Time,X-cord,Y-cord,Mag_x,Mag_y,Mag_z,Acc_x,Acc_y,Acc_z,Gyro_x,Gyro_y,Gyro_z,Orn_x,Orn_y,Orn_z,Pressure,
2021.05.22 15:28:56,51.0,24.0,28.619999,8.4,-23.1,-0.65842557,0.56744313,10.532414,0.013390777,0.20728184,-0.1060682,-0.053719181567430496,0.06243296340107918,-1.2266322374343872,1000.5845,
2021.05.22 15:28:56,51.0,24.0,28.98,8.58,-23.4,-0.28970724,0.7709565,9.8548355,-0.13199514,-0.051725015,-0.007108028,-0.07803869992494583,0.02938900701701641,-1.2170329093933105,1000.5835,
2021.05.22 15:28:56,51.0,24.0,29.82,8.5199995,-24.24,-0.53392327,0.69912827,9.73991,-0.009211237,0.039293908,0.04053946,-0.07154979556798935,0.054763276129961014,-1.2220170497894287,1000.59985,
2021.05.22 15:28:56,51.0,24.0,29.88,8.5199995,-24.779999,-0.5865973,0.5818088,9.754275,0.003616933,-0.031566463,-0.0077188932,-0.05946877598762512,0.060065120458602905,-1.2290019989013672,1000.59985,
2021.05.22 15:28:56,51.0,24.0,30.66,8.34,-24.66,-0.6249057,0.6081458,9.905115,-0.0018808541,-0.023625214,0.022213504,-0.06119880452752113,0.06300568580627441,-1.2408411502838135,1000.5786,
2021.05.22 15:28:56,51.0,24.0,31.26,8.16,-25.14,-0.64166564,0.6344828,9.964972,-0.07396295,-0.0052992557,-0.016271008,-0.06345441937446594,0.06430334597826004,-1.248989224433899,1000.5786,
2021.05.22 15:28:56,51.0,24.0,31.5,7.98,-25.14,-0.57223165,0.74222517,9.967366,-0.041587092,-0.02790127,0.056421958,-0.07420659810304642,0.05734756588935852,-1.250538945198059,1000.58374,
2021.05.22 15:28:56,51.0,24.0,31.98,8.28,-25.08,-0.44054657,0.69912827,10.446221,-0.05746959,-0.061498858,0.049091574,-0.06676759570837021,0.042147841304540634,-1.2570788860321045,1000.5774,
2021.05.22 15:28:56,51.0,24.0,32.219997,8.82,-25.98,-0.45970076,0.65363705,9.838076,0.034160193,-0.028512135,0.030765617,-0.06626993417739868,0.046692732721567154,-1.240506649017334,1000.5774,
2021.05.22 15:28:56,51.0,24.0,32.219997,9.0,-26.099998,-0.47167215,0.51955765,10.168485,0.0182777,-0.029123,0.0063310075,-0.050995759665966034,0.046352460980415344,-1.247070074081421,1000.58887,
2021.05.22 15:28:56,51.0,24.0,31.92,9.0,-26.099998,-0.28013015,0.6560313,9.692024,0.02438635,-0.04378377,0.014272256,-0.06755653023719788,0.028895117342472076,-1.2369996309280396,1000.58887,
2021.05.22 15:28:56,51.0,24.0,31.8,8.88,-26.46,-0.3519584,0.5985687,10.149331,0.02438635,-0.05600107,-3.885103E-4,-0.05887262895703316,0.0346640981733799,-1.2432994842529297,1000.59546,
2021.05.22 15:28:56,51.0,24.0,31.439999,8.82,-26.279999,-0.42618093,0.56265455,10.1206,0.0072821244,-0.10487029,-0.03520783,-0.05548873543739319,0.04208537936210632,-1.242118000984192,1000.59106,
2021.05.22 15:28:56,51.0,24.0,31.14,8.58,-26.519999,-0.4932206,0.4644893,9.945818,0.018888565,-0.10792461,-0.05170119,-0.046610865741968155,0.04955015704035759,-1.2506393194198608,1000.59106,
2021.05.22 15:28:56,51.0,24.0,31.019999,8.4,-27.0,-0.44772938,0.51955765,9.593859,0.040879715,-0.031566463,-0.038262155,-0.05404368042945862,0.0466344952583313,-1.2486361265182495,1000.5842,
2021.05.22 15:28:56,51.0,24.0,31.019999,7.74,-26.46,-0.3974496,0.5913859,10.144543,0.014001642,-0.057833668,-0.0040537016,-0.05818552151322365,0.03915863484144211,-1.2687493562698364,1000.5842,
2021.05.22 15:28:57,51.0,24.0,31.439999,7.62,-26.279999,-0.1699935,0.71588814,9.816526,-0.02142854,-0.080435686,0.10895637,-0.0727870762348175,0.017315343022346497,-1.2717698812484741,1000.58765,
2021.05.22 15:28:57,51.0,24.0,31.619999,7.3799996,-26.58,-0.1699935,0.48843205,10.273833,-0.034256715,-0.067607515,0.12483887,-0.04749910533428192,0.016544748097658157,-1.2998968362808228,1000.5825,
2021.05.22 15:28:57,51.0,24.0,31.619999,7.56,-26.46,-0.035914123,0.45251793,10.158908,-0.04952834,-0.029733866,0.061919745,-0.0445142537355423,0.0035352197010070086,-1.30050790309906,1000.5825,
2021.05.22 15:28:57,51.0,24.0,31.679998,8.34,-27.06,0.0047885496,0.45730647,9.72315,0.00789299,-0.023625214,0.064363204,-0.04699810594320297,-4.92489489261061E-4,-1.2766392230987549,1000.5945,
2021.05.22 15:28:57,51.0,24.0,31.019999,8.5199995,-27.48,-0.12929083,0.6105401,9.964972,0.048210096,-0.049281556,0.055811092,-0.06118699908256531,0.012973803095519543,-1.2493804693222046,1000.5945,
2021.05.22 15:28:57,51.0,24.0,30.539999,8.82,-27.3,-0.25379312,0.7685622,9.584282,-0.007378641,-0.042562034,0.058254555,-0.07999071478843689,0.02647395245730877,-1.216162919998169,1000.60425,
2021.05.22 15:28:57,51.0,24.0,30.359999,8.58,-27.42,-0.16759923,0.6608198,10.048771,-0.009211237,-0.031566463,0.04053946,-0.0656576007604599,0.01667703315615654,-1.2362374067306519,1000.5984,
2021.05.22 15:28:57,51.0,24.0,30.0,8.099999,-27.539999,-0.17478207,0.70631105,9.993703,-0.022650272,-0.002855795,0.011828794,-0.07054752856492996,0.017487436532974243,-1.242356538772583,1000.5984,
2021.05.22 15:28:57,51.0,24.0,29.939999,7.98,-27.0,-0.090982445,0.7637737,10.113417,-0.03608931,-0.0010231993,0.043593787,-0.07537471503019333,0.008995969779789448,-1.245652198791504,1000.60425,
2021.05.22 15:28:57,51.0,24.0,30.179998,7.9199996,-27.06,0.028731298,0.9337672,9.962578,-0.014709025,-0.0034666602,0.07474792,-0.09345405548810959,-0.0028839141596108675,-1.2396607398986816,1000.60425,
2021.05.22 15:28:57,51.0,24.0,30.3,7.8599997,-27.24,-0.18914771,0.818842,9.96976,0.014612508,-0.013240504,0.04970244,-0.08193395286798477,0.018969867378473282,-1.2435036897659302,1000.6028,
2021.05.22 15:28:57,51.0,24.0,30.179998,7.7999997,-26.699999,-0.23463893,0.56744313,10.00328,0.07875336,0.04418083,-0.002221106,-0.056649431586265564,0.023451898247003555,-1.2646501064300537,1000.60156,
2021.05.22 15:28:57,51.0,24.0,30.359999,7.68,-27.359999,-0.06943397,0.7039168,9.593859,0.16488536,-0.021181753,0.05764369,-0.07323845475912094,0.007237208541482687,-1.2603155374526978,1000.60156,
2021.05.22 15:28:57,51.0,24.0,30.24,7.62,-27.359999,0.31365,0.7853221,10.376787,0.06287086,-0.014462234,0.098571666,-0.07550231367349625,-0.030216921120882034,-1.2711944580078125,1000.5979,
2021.05.22 15:28:57,51.0,24.0,30.42,7.68,-27.06,0.13647367,1.0175668,9.581888,-0.01654162,-0.0046883905,0.007552738,-0.10578969120979309,-0.014241915196180344,-1.243768572807312,1000.59717,
2021.05.22 15:28:57,51.0,24.0,30.72,7.44,-27.06,-0.31843856,0.75180227,10.067925,-0.042808827,-0.025457809,-0.07124888,-0.07449755817651749,0.031618472188711166,-1.2625242471694946,1000.59717,
2021.05.22 15:28:57,51.0,24.0,30.84,7.2,-26.699999,-0.29210153,0.6847626,9.8237095,-0.05013921,-0.0059101214,-0.07735753,-0.06956188380718231,0.029725581407546997,-1.2765487432479858,1000.5957,
2021.05.22 15:28:58,51.0,24.0,31.14,7.02,-26.939999,-0.30886146,0.68236834,9.840469,-0.044641424,0.020357084,-0.055977248,-0.06919827312231064,0.031376563012599945,-1.2839304208755493,1000.5957,
2021.05.22 15:28:58,51.0,24.0,30.599998,6.96,-26.939999,-0.18196489,0.7350424,9.859624,-0.0257046,0.0026419922,-0.0339861,-0.07440047711133957,0.018453465774655342,-1.2806943655014038,1000.5879,
2021.05.22 15:28:58,51.0,24.0,30.48,7.14,-27.42,-0.117319465,0.7446195,10.082292,-0.040365364,0.006918049,-0.0016102408,-0.07371538132429123,0.011635665781795979,-1.2757426500320435,1000.5879,
2021.05.22 15:28:58,51.0,24.0,30.119999,7.14,-27.42,-0.090982445,0.749408,9.905115,-0.02814806,8.0939644E-4,-0.005275432,-0.07551164925098419,0.009185140952467918,-1.2717105150222778,1000.584,
2021.05.22 15:28:58,51.0,24.0,30.24,7.02,-27.42,-0.19393626,0.6201172,9.905115,-0.029980656,0.015470162,-0.006497163,-0.06251220405101776,0.01957690343260765,-1.2840827703475952,1000.5825,
2021.05.22 15:28:58,51.0,24.0,31.019999,6.8399997,-27.42,-0.23224466,0.66800267,10.067925,-0.06479997,0.013637567,-0.02726658,-0.06623491644859314,0.02306368574500084,-1.2922875881195068,1000.5825,
2021.05.22 15:28:58,51.0,24.0,30.96,7.3799996,-27.0,-0.19154198,0.65124273,9.794978,0.0023952026,0.036850445,0.0020549507,-0.06637704372406006,0.019552629441022873,-1.2773337364196777,1000.5845,
2021.05.22 15:28:58,51.0,24.0,31.439999,7.68,-27.24,-0.25139886,0.6440599,10.082292,-0.0018808541,0.025854873,-0.0016102408,-0.06377385556697845,0.024929529055953026,-1.272656798362732,1000.5845,
2021.05.22 15:28:58,51.0,24.0,31.5,7.8599997,-27.0,-0.1699935,0.6392714,10.010463,0.0030060678,0.020357084,-0.0028319713,-0.0637645572423935,0.016979951411485672,-1.2708710432052612,1000.58105,
2021.05.22 15:28:58,51.0,24.0,31.38,8.04,-26.88,-0.22266756,0.6368771,9.979338,0.01705597,0.012415837,0.0112179285,-0.06371733546257019,0.022309157997369766,-1.263094186782837,1000.57446,
2021.05.22 15:28:58,51.0,24.0,31.26,7.5,-27.48,-0.33519846,0.6368771,9.80695,0.014612508,0.011194105,0.0038875462,-0.06481260061264038,0.03416638448834419,-1.2720513343811035,1000.57446,
2021.05.22 15:28:58,51.0,24.0,31.08,7.9199996,-27.24,-0.4860378,0.6057515,9.909904,0.009725586,0.03257439,2.2235495E-4,-0.060976799577474594,0.0490063913166523,-1.2565383911132812,1000.5764,
2021.05.22 15:28:58,51.0,24.0,30.779999,7.9199996,-27.119999,-0.5458947,0.51716334,10.065532,-0.065410845,0.0026419922,0.018548314,-0.051259297877550125,0.05418098345398903,-1.2605562210083008,1000.5764,
2021.05.22 15:28:58,51.0,24.0,30.48,7.98,-27.119999,-0.38787252,0.5698374,9.93624,-0.013487294,0.08144361,0.09673907,-0.05724314600229263,0.03901633620262146,-1.2556203603744507,1000.5803,
2021.05.22 15:28:58,51.0,24.0,30.66,8.04,-26.82,-0.17238778,0.59378016,9.972155,0.034771062,0.07838928,0.12544973,-0.05946473404765129,0.017285192385315895,-1.2614071369171143,1000.5825,
2021.05.22 15:28:58,51.0,24.0,31.08,7.2599998,-26.88,-0.22985038,0.6057515,9.586677,0.051264424,0.1327563,0.13339098,-0.06308483332395554,0.023971430957317352,-1.2836085557937622,1000.5825,
2021.05.22 15:28:59,51.0,24.0,31.38,7.3799996,-26.64,-0.47167215,0.5818088,9.950606,0.012779912,0.096104376,0.107734635,-0.05833783745765686,0.04736589267849922,-1.279933214187622,1000.58594,
2021.05.22 15:28:59,51.0,24.0,31.56,7.3799996,-26.4,-0.14126222,0.61293435,10.216371,-0.08862372,-0.012629638,0.12911493,-0.059917766600847244,0.013826164416968822,-1.2906712293624878,1000.58594,
2021.05.22 15:28:59,51.0,24.0,31.5,7.68,-26.34,-0.42618093,0.55786604,9.933846,-0.04586315,-0.011407908,0.13949963,-0.05604773759841919,0.042875610291957855,-1.275862216949463,1000.5862,
2021.05.22 15:28:59,51.0,24.0,30.72,7.7999997,-25.5,-0.7589851,0.30646718,9.924269,-0.02936979,-0.0046883905,0.04848071,-0.030780939385294914,0.07632910460233688,-1.2778980731964111,1000.5879,
2021.05.22 15:28:59,51.0,24.0,30.48,7.9199996,-24.96,-0.6105401,0.28013015,9.771035,0.0017843375,-0.033399057,0.10895637,-0.028605835512280464,0.06240355968475342,-1.2785636186599731,1000.5879,
2021.05.22 15:28:59,51.0,24.0,30.179998,7.8599997,-24.42,-0.7733508,0.30646718,10.230737,-0.091678046,0.119317256,0.009385334,-0.029861435294151306,0.0754474326968193,-1.273653507232666,1000.5906,
2021.05.22 15:28:59,51.0,24.0,30.06,7.8599997,-23.58,-0.38787252,0.69673395,10.178062,-0.10145189,0.07472409,0.06741753,-0.06829843670129776,0.03809024766087532,-1.2547876834869385,1000.5906,
2021.05.22 15:28:59,51.0,24.0,30.24,7.74,-23.519999,0.15562786,1.1420691,10.194822,-6.591236E-4,0.03379612,0.18103847,-0.11154641211032867,-0.015264197252690792,-1.2472862005233765,1000.5913,
2021.05.22 15:28:59,51.0,24.0,30.119999,7.3799996,-23.16,-0.117319465,0.86193895,10.427067,-0.0018808541,-0.1256397,0.13705617,-0.08247088640928268,0.01125095970928669,-1.2691295146942139,1000.59717,
2021.05.22 15:28:59,51.0,24.0,29.58,7.2599998,-23.46,0.18435916,0.6153286,9.744699,0.118459605,-0.080435686,-0.053533785,-0.06304998695850372,-0.01891666278243065,-1.2890652418136597,1000.59717,
2021.05.22 15:28:59,51.0,24.0,29.34,7.08,-24.06,-0.16520496,0.5243462,9.967366,0.12578999,-0.06699664,-0.13538973,-0.05255063995718956,0.016573065891861916,-1.2895727157592773,1000.6008,
2021.05.22 15:28:59,51.0,24.0,29.099998,7.56,-24.359999,-0.43815228,0.36392978,10.10384,-0.03731104,-0.10364856,-0.34247306,-0.03596961498260498,0.04333777353167534,-1.2770336866378784,1000.6008,
2021.05.22 15:28:59,51.0,24.0,28.68,7.98,-25.5,-0.45251793,0.3328042,9.780613,0.016445102,-0.11892019,-0.26550403,-0.033977486193180084,0.04623385891318321,-1.2579563856124878,1000.60474,
2021.05.22 15:28:59,51.0,24.0,28.5,8.46,-25.26,-0.409421,0.45012367,9.5794935,0.08791634,-0.08837693,-0.13294627,-0.046910952776670456,0.04271332547068596,-1.2307815551757812,1000.5925,
2021.05.22 15:28:59,51.0,24.0,28.26,8.58,-25.26,-0.2944958,0.55307746,9.57231,0.066536054,-0.065164044,-0.08713138,-0.057687483727931976,0.030755680054426193,-1.2193760871887207,1000.5925,
2021.05.22 15:28:59,51.0,24.0,28.74,8.58,-25.439999,-0.4285752,0.54828894,10.35045,-0.12466477,-0.060277127,-0.10912252,-0.05287778377532959,0.041382793337106705,-1.2247406244277954,1000.5991,
2021.05.22 15:28:59,51.0,24.0,28.98,8.76,-25.019999,-0.3232271,0.84278476,9.974549,-0.12649737,-0.060277127,-0.101181276,-0.08424929529428482,0.03239384666085243,-1.2010383605957031,1000.5991,
2021.05.22 15:29:00,51.0,24.0,29.4,8.76,-25.14,-0.11013664,0.7709565,10.403124,-0.029980656,0.027076604,-0.022990525,-0.07396882772445679,0.01058648619800806,-1.221319317817688,1000.59985,
2021.05.22 15:29:00,51.0,24.0,29.46,8.58,-25.08,0.15802214,0.7398309,9.80695,0.053707883,0.102213025,8.332202E-4,-0.0752870962023735,-0.016111887991428375,-1.2354623079299927,1000.59204,
2021.05.22 15:29:00,51.0,24.0,28.92,8.94,-25.439999,0.021548472,0.59378016,9.955395,0.08058595,0.07472409,-0.017492738,-0.05957334116101265,-0.00216449867002666,-1.2251166105270386,1000.59204,
2021.05.22 15:29:00,51.0,24.0,28.92,8.88,-25.74,-0.19633053,0.54350036,9.718362,0.051264424,0.017913625,-0.041316483,-0.055855534970760345,0.02019927091896534,-1.221705675125122,1000.5967,
2021.05.22 15:29:00,51.0,24.0,29.16,8.82,-26.039999,-0.3974496,0.42139238,10.24989,0.015834238,0.0056963186,-0.056588113,-0.041057929396629333,0.03875657171010971,-1.2315335273742676,1000.5967,
2021.05.22 15:29:00,51.0,24.0,28.74,9.12,-25.92,-0.21309046,0.7015225,9.634562,0.023775486,0.035628714,0.0038875462,-0.07266713678836823,0.02211369201540947,-1.1976724863052368,1000.5967,
2021.05.22 15:29:00,51.0,24.0,28.98,9.0,-25.619999,-0.1987248,0.679974,10.010463,0.029273273,0.039293908,0.0026658159,-0.06780882924795151,0.019849102944135666,-1.2095884084701538,1000.5852,
2021.05.22 15:29:00,51.0,24.0,28.68,8.88,-25.019999,-0.22027329,0.7039168,10.142148,-0.008600371,0.02096795,-0.023601389,-0.06927768886089325,0.0217151902616024,-1.209391474723816,1000.5852,
2021.05.22 15:29:00,51.0,24.0,28.26,8.88,-24.66,-0.2561874,0.723071,9.799767,0.018888565,0.0087506445,-9.993755E-4,-0.07362598925828934,0.0261362437158823,-1.2002828121185303,1000.58325,
2021.05.22 15:29:00,51.0,24.0,28.859999,9.12,-24.42,-0.3423813,0.65124273,9.981731,0.003616933,-0.027290406,-0.0058862977,-0.06511293351650238,0.03428734838962555,-1.204196572303772,1000.58325,
2021.05.22 15:29:00,51.0,24.0,28.859999,9.0,-24.24,-0.32562137,0.69673395,9.794978,-0.012265563,-0.021181753,-0.028488312,-0.07097306847572327,0.0332314670085907,-1.2042680978775024,1000.5935,
2021.05.22 15:29:00,51.0,24.0,28.98,9.42,-24.6,-0.16281068,0.6751855,10.041589,-0.022039408,-0.002855795,0.0130505245,-0.06712905317544937,0.01621221750974655,-1.200914978981018,1000.59814,
2021.05.22 15:29:00,51.0,24.0,29.279999,9.36,-24.48,-0.09337672,0.74222517,9.931452,-0.034867577,-0.019349158,0.0038875462,-0.07459285110235214,0.009401844814419746,-1.2034357786178589,1000.59814,
2021.05.22 15:29:00,51.0,24.0,29.039999,8.88,-24.6,-0.038308397,0.72546524,10.032011,0.003616933,0.0026419922,0.01243966,-0.0721888467669487,0.003818597411736846,-1.2185696363449097,1000.5969,
2021.05.22 15:29:00,51.0,24.0,28.619999,8.639999,-24.9,-0.19633053,0.6392714,10.027223,-0.015930755,-0.045616362,-0.041316483,-0.06365524977445602,0.019577249884605408,-1.2215933799743652,1000.5969,
2021.05.22 15:29:00,51.0,24.0,28.619999,8.5199995,-24.84,-0.36632404,0.6081458,9.821315,0.02866241,0.00936151,-0.051090326,-0.06179919093847275,0.03728159889578819,-1.2207716703414917,1000.5957,
2021.05.22 15:29:00,51.0,24.0,28.619999,8.58,-25.08,-0.62251145,0.5411061,9.974549,0.00911472,-0.010797042,-0.06391849,-0.05409052222967148,0.062329139560461044,-1.215559720993042,1000.59595,
2021.05.22 15:29:01,51.0,24.0,28.439999,9.059999,-25.08,-0.55307746,0.63208854,10.091868,-0.02936979,0.011194105,-0.011384085,-0.062458258122205734,0.054749496281147,-1.1937211751937866,1000.59595,
2021.05.22 15:29:01,51.0,24.0,28.32,9.12,-24.779999,-0.11971374,0.66800267,9.929058,-0.022039408,0.018524488,0.037485134,-0.06717144697904587,0.012056323699653149,-1.2033467292785645,1000.59204,
2021.05.22 15:29:01,51.0,24.0,28.5,8.94,-24.84,0.0047885496,0.6560313,9.893144,0.025608081,0.035628714,0.06253061,-0.06621476262807846,-4.8402705579064786E-4,-1.215996265411377,1000.59204,
2021.05.22 15:29:01,51.0,24.0,28.14,8.82,-24.6,-0.12450229,0.68715686,9.981731,0.0048386636,0.013637567,0.017937446,-0.06872767955064774,0.012472367845475674,-1.2096370458602905,1000.5857,
2021.05.22 15:29:01,51.0,24.0,28.26,9.12,-24.48,-0.39505535,0.7015225,9.93624,-0.0061569107,0.014248433,-0.039483886,-0.07042999565601349,0.03973810747265816,-1.1905531883239746,1000.5825,
2021.05.22 15:29:01,51.0,24.0,28.08,9.54,-24.48,-0.32801566,0.6201172,10.204399,-0.035478443,-0.038896844,-0.018103601,-0.06066369637846947,0.03213346749544144,-1.1855928897857666,1000.5825,
2021.05.22 15:29:01,51.0,24.0,27.96,9.24,-23.939999,-0.2370332,0.6608198,9.914692,-0.014098159,-0.032177325,0.016715717,-0.06653318554162979,0.023902714252471924,-1.1933406591415405,1000.5847,
2021.05.22 15:29:01,51.0,24.0,28.08,9.54,-24.24,-0.16281068,0.6153286,10.084685,0.021332026,-0.026679538,0.042372055,-0.06093267351388931,0.0161429475992918,-1.191792368888855,1000.5847,
2021.05.22 15:29:01,51.0,24.0,28.14,9.24,-24.24,-0.24182175,0.55307746,9.826104,0.030495005,-0.025457809,0.020380909,-0.0562102347612381,0.024605168029665947,-1.2025067806243896,1000.58594,
2021.05.22 15:29:01,51.0,24.0,28.74,9.059999,-24.06,-0.40463245,0.531529,9.804555,0.012169046,0.025854873,-0.019325333,-0.054113466292619705,0.0412464365363121,-1.2115586996078491,1000.5891,
2021.05.22 15:29:01,51.0,24.0,28.98,8.94,-24.359999,-0.31125572,0.60335726,9.885961,-0.019595945,-0.0059101214,0.007552738,-0.06092599779367447,0.03147422522306442,-1.2155498266220093,1000.5891,
2021.05.22 15:29:01,51.0,24.0,29.22,8.46,-24.24,-0.21787901,0.7134939,9.933846,-0.04219796,0.0032528574,0.03870687,-0.07168422639369965,0.021929478272795677,-1.228498935699463,1000.5979,
2021.05.22 15:29:01,51.0,24.0,29.4,8.46,-24.18,-0.19393626,0.72546524,10.075109,-0.05991305,0.008139779,0.024046099,-0.07186837494373322,0.019246673211455345,-1.2313671112060547,1000.59375,
2021.05.22 15:29:01,51.0,24.0,29.519999,8.639999,-24.24,-0.18675344,0.679974,10.204399,-0.040365364,-0.009575313,0.031987347,-0.0665259137749672,0.018299223855137825,-1.231277585029602,1000.59375,
2021.05.22 15:29:01,51.0,24.0,29.46,8.7,-24.539999,-0.25139886,0.56744313,9.90272,-0.0018808541,-0.024236077,0.022213504,-0.05722074955701828,0.02538139745593071,-1.2328304052352905,1000.58887,
2021.05.22 15:29:01,51.0,24.0,29.099998,8.88,-24.3,-0.19633053,0.50758624,9.847652,0.026829813,-0.008353583,0.0130505245,-0.05148809403181076,0.019934145733714104,-1.2299240827560425,1000.58887,
2021.05.22 15:29:02,51.0,24.0,29.099998,9.059999,-24.119999,-0.24182175,0.5865973,9.955395,0.026829813,-0.021181753,0.01610485,-0.05883719399571419,0.024285748600959778,-1.2177537679672241,1000.5818,
2021.05.22 15:29:02,51.0,24.0,28.8,9.059999,-24.119999,-0.17478207,0.57462597,9.962578,5.6260685E-4,-0.0059101214,-0.0034428365,-0.057605765759944916,0.01754205860197544,-1.2175109386444092,1000.5835,
2021.05.22 15:29:02,51.0,24.0,28.199999,9.0,-23.939999,-0.30886146,0.5458947,9.900327,-0.009211237,-0.011407908,8.332202E-4,-0.05505654588341713,0.031186982989311218,-1.210059642791748,1000.5835,
2021.05.22 15:29:02,51.0,24.0,28.439999,9.24,-23.76,-0.18196489,0.53392327,10.07032,-0.009822102,-0.04439463,0.017326582,-0.05296127125620842,0.018067458644509315,-1.2117276191711426,1000.58594,
2021.05.22 15:29:02,51.0,24.0,28.08,9.12,-24.24,-0.15802214,0.52674043,9.838076,-0.0024917193,-0.040729437,0.024046099,-0.053483039140701294,0.01606092043220997,-1.2106313705444336,1000.58594,
2021.05.22 15:29:02,51.0,24.0,28.56,8.88,-24.3,-0.04070267,0.531529,9.900327,0.0060603945,-0.021792619,0.020380909,-0.053636081516742706,0.004111221991479397,-1.227398157119751,1000.58887,
2021.05.22 15:29:02,51.0,24.0,28.68,9.059999,-24.42,-0.14605077,0.5147691,9.847652,-0.018374216,-0.041340306,0.020991774,-0.05222001299262047,0.014829936437308788,-1.2205263376235962,1000.58887,
2021.05.22 15:29:02,51.0,24.0,28.56,9.0,-24.84,-0.16759923,0.51716334,9.862018,-0.033645846,-0.009575313,0.008774469,-0.05238437280058861,0.016992781311273575,-1.2194210290908813,1000.5845,
2021.05.22 15:29:02,51.0,24.0,28.32,8.88,-25.019999,-0.2083019,0.5243462,10.015251,-0.061745647,-0.010797042,0.008163603,-0.05229572206735611,0.020795471966266632,-1.2188692092895508,1000.584,
2021.05.22 15:29:02,51.0,24.0,27.72,8.88,-25.019999,0.026337024,0.5243462,9.98652,-0.05624786,0.005085453,0.018548314,-0.052457042038440704,-0.002637251280248165,-1.219743013381958,1000.584,
2021.05.22 15:29:02,51.0,24.0,28.32,9.179999,-25.08,-0.07422252,0.53871185,10.10384,-0.056858726,-0.0052992557,0.019770043,-0.053265661001205444,0.007345838937908411,-1.2131896018981934,1000.57886,
2021.05.22 15:29:02,51.0,24.0,28.26,8.88,-25.199999,0.011971374,0.5411061,10.010463,-0.018374216,0.0056963186,0.028322157,-0.05400146171450615,-0.0011958855902776122,-1.2239594459533691,1000.57886,
2021.05.22 15:29:02,51.0,24.0,28.98,9.059999,-25.32,-0.090982445,0.46209505,9.976943,-0.009211237,1.9853121E-4,0.0044984114,-0.046281300485134125,0.009119017980992794,-1.228797197341919,1000.58887,
2021.05.22 15:29:02,51.0,24.0,29.16,9.3,-25.5,-0.13647367,0.43815228,9.871595,-4.8258353E-5,0.002031127,-0.004664567,-0.04435180872678757,0.01382400467991829,-1.2231056690216064,1000.5906,
2021.05.22 15:29:02,51.0,24.0,28.92,9.12,-25.14,-0.13647367,0.39266106,10.0368,5.6260685E-4,-0.0016340646,0.0032766813,-0.0390985831618309,0.013596490025520325,-1.2307099103927612,1000.5906,
2021.05.22 15:29:02,51.0,24.0,28.68,9.42,-24.539999,-0.09577099,0.44294083,9.938635,-0.0031025845,-0.008964447,0.0051092766,-0.044536035507917404,0.009635933674871922,-1.2166684865951538,1000.59937,
2021.05.22 15:29:02,51.0,24.0,28.38,9.48,-24.539999,-0.11971374,0.43336374,9.964972,0.0060603945,0.010583241,0.02526783,-0.04345818981528282,0.012012877501547337,-1.211378812789917,1000.59937,
2021.05.22 15:29:03,51.0,24.0,28.439999,9.36,-24.359999,-0.07901107,0.47167215,9.950606,-0.0037134497,0.014248433,0.010607065,-0.04736439883708954,0.007940160110592842,-1.2144677639007568,1000.59424,
2021.05.22 15:29:03,51.0,24.0,28.439999,9.54,-24.6,-0.11013664,0.45012367,9.962578,0.0072821244,0.016691893,0.019770043,-0.045147985219955444,0.011054584756493568,-1.2091560363769531,1000.593,
2021.05.22 15:29:03,51.0,24.0,28.619999,9.66,-25.14,-0.22745611,0.45012367,9.948212,5.6260685E-4,0.007528914,0.008163603,-0.045204054564237595,0.02286003716289997,-1.2026396989822388,1000.593,
2021.05.22 15:29:03,51.0,24.0,28.439999,9.599999,-25.199999,-0.117319465,0.45730647,9.945818,0.012169046,0.015470162,0.01610485,-0.0459442213177681,0.01179531216621399,-1.2055058479309082,1000.59326,
2021.05.22 15:29:03,51.0,24.0,28.26,9.48,-25.14,-0.14605077,0.45491222,10.075109,-6.591236E-4,0.00936151,0.014883121,-0.04511670395731926,0.014495182782411575,-1.2069178819656372,1000.5901,
2021.05.22 15:29:03,51.0,24.0,28.019999,8.88,-25.019999,-0.11013664,0.505192,9.821315,0.013390777,0.015470162,0.01610485,-0.05138980597257614,0.011213572695851326,-1.2193814516067505,1000.5901,
2021.05.22 15:29:03,51.0,24.0,28.439999,8.5199995,-24.9,-0.11971374,0.4644893,9.964972,0.0182777,0.02218968,0.017326582,-0.046575140208005905,0.012012876570224762,-1.2392820119857788,1000.58984,
2021.05.22 15:29:03,51.0,24.0,28.98,8.22,-24.539999,-0.10055954,0.50998056,10.008069,-0.01654162,0.013026701,-0.018714469,-0.050910335034132004,0.010047508403658867,-1.2523201704025269,1000.58984,
2021.05.22 15:29:03,51.0,24.0,28.8,8.16,-24.539999,-0.13886794,0.50998056,10.072714,-0.023872003,0.017302757,-0.029710043,-0.0505819134414196,0.013785673305392265,-1.251452922821045,1000.5896,
2021.05.22 15:29:03,51.0,24.0,28.92,8.28,-24.359999,-0.15802214,0.4932206,10.000886,-0.017152485,0.00936151,-0.04253821,-0.04927162081003189,0.015799498185515404,-1.2496273517608643,1000.5896,
2021.05.22 15:29:03,51.0,24.0,28.5,8.5199995,-24.48,-0.16281068,0.46927786,9.900327,0.005449529,0.002031127,-0.04009475,-0.047358397394418716,0.01644349843263626,-1.2386122941970825,1000.5864,
2021.05.22 15:29:03,51.0,24.0,28.56,8.94,-23.82,-0.17717634,0.41181526,9.9889145,-0.011654698,-0.0016340646,-0.044981673,-0.04119741916656494,0.0177354384213686,-1.2313505411148071,1000.58496,
2021.05.22 15:29:03,51.0,24.0,29.099998,9.059999,-23.76,-0.16759923,0.29689008,9.885961,-0.014709025,0.011194105,-0.07247061,-0.03001815266907215,0.016951631754636765,-1.2421802282333374,1000.58496,
2021.05.22 15:29:03,51.0,24.0,29.099998,9.719999,-24.18,-0.2657645,0.31843856,9.984126,-0.0379219,0.04906775,-0.06819455,-0.03187239170074463,0.02661241963505745,-1.216883897781372,1000.5896,
2021.05.22 15:29:03,51.0,24.0,29.099998,9.96,-24.06,-0.28970724,0.4166038,9.98652,-0.029980656,-0.008964447,-0.025433986,-0.04167493060231209,0.029001697897911072,-1.2014998197555542,1000.5896,
2021.05.22 15:29:03,51.0,24.0,29.039999,10.0199995,-24.539999,-0.16520496,0.4740664,10.276228,-0.0379219,0.007528914,-0.028488312,-0.04609370231628418,0.01607503555715084,-1.1992080211639404,1000.5913,
2021.05.22 15:29:03,51.0,24.0,29.099998,10.08,-24.9,-0.34477556,0.39505535,10.022434,0.0445449,0.00936151,-0.016271008,-0.03937344253063202,0.03438682109117508,-1.196399450302124,1000.58936,
2021.05.22 15:29:04,51.0,24.0,29.519999,9.84,-24.72,-0.18435916,0.45251793,9.96976,0.07997509,-0.007742717,0.010607065,-0.045350175350904465,0.01848972775042057,-1.209662675857544,1000.58936,
2021.05.22 15:29:04,51.0,24.0,29.82,9.54,-24.6,-0.20590763,0.45012367,9.72315,0.082418546,-0.025457809,0.0130505245,-0.046250633895397186,0.021173885092139244,-1.2206907272338867,1000.59937,
2021.05.22 15:29:04,51.0,24.0,29.16,9.3,-24.359999,-0.1699935,0.48843205,10.034406,0.028051542,-0.0150731,0.018548314,-0.048630375415086746,0.016939442604780197,-1.2206449508666992,1000.59937,
2021.05.22 15:29:04,51.0,24.0,28.98,9.42,-24.119999,-0.13647367,0.531529,9.90272,-0.001269989,-0.026068674,0.0051092766,-0.05361850932240486,0.013780559413135052,-1.212681531906128,1000.59985,
2021.05.22 15:29:04,51.0,24.0,28.74,9.54,-24.119999,-0.17478207,0.47885495,10.271439,-0.009822102,0.009972375,0.0014440855,-0.04657958447933197,0.017014676705002785,-1.2103769779205322,1000.59595,
2021.05.22 15:29:04,51.0,24.0,28.5,9.42,-24.42,-0.031125572,0.31125572,10.008069,0.08302941,-0.004077526,-0.010162354,-0.031090304255485535,0.0031100378837436438,-1.2269643545150757,1000.59595,
2021.05.22 15:29:04,51.0,24.0,28.92,9.42,-25.019999,-0.0071828244,0.34716985,10.427067,-0.08801286,-0.32417092,0.015493986,-0.03328276053071022,6.88863277900964E-4,-1.2300567626953125,1000.6013,
2021.05.22 15:29:04,51.0,24.0,28.619999,9.36,-25.019999,-0.409421,0.54828894,9.881172,-0.06724344,0.2170557,-0.002221106,-0.05538398027420044,0.041410770267248154,-1.1974678039550781,1000.6013,
