Time,X-cord,Y-cord,Mag_x,Mag_y,Mag_z,Acc_x,Acc_y,Acc_z,Gyro_x,Gyro_y,Gyro_z,Orn_x,Orn_y,Orn_z,Pressure,
2021.05.22 15:27:07,42.0,24.0,23.88,11.88,-28.56,-0.28013015,0.3974496,10.07032,-0.031813253,0.2011732,-0.11339858,-0.03943171352148056,0.0278102308511734,-1.0570322275161743,1000.5718,
2021.05.22 15:27:07,42.0,24.0,24.9,11.82,-29.22,-0.45730647,0.15323359,10.422278,-0.11428006,-0.08959866,-0.056588113,-0.014687315560877323,0.043849654495716095,-1.091477394104004,1000.5676,
2021.05.22 15:27:07,42.0,24.0,24.72,11.88,-30.24,-0.38787252,0.29928434,9.751882,0.090970665,0.016081028,0.0032766813,-0.030656052753329277,0.03975316509604454,-1.0710152387619019,1000.5676,
2021.05.22 15:27:07,42.0,24.0,25.439999,11.58,-30.96,-0.72546524,0.22745611,9.885961,0.12640084,0.031352658,0.06680667,-0.02294226549565792,0.07325208187103271,-1.0806761980056763,1000.5742,
2021.05.22 15:27:08,42.0,24.0,25.8,11.28,-31.439999,-0.53392327,0.19393626,9.871595,0.07386644,0.03746131,0.020991774,-0.019614698365330696,0.05403417721390724,-1.1108543872833252,1000.5742,
2021.05.22 15:27:08,42.0,24.0,25.859999,11.28,-31.74,-0.3902668,0.062251143,9.8787775,0.026829813,0.025854873,0.07413705,-0.006296507548540831,0.03948504477739334,-1.1337683200836182,1000.5779,
2021.05.22 15:27:08,42.0,24.0,26.34,10.92,-31.56,-0.20351335,0.09577099,9.8787775,0.04882096,-0.036453385,0.09368474,-0.009692260064184666,0.02059815265238285,-1.1585935354232788,1000.5801,
2021.05.22 15:27:08,42.0,24.0,27.18,10.679999,-31.679998,-0.6153286,0.13168511,10.211582,-0.048917476,-0.012018774,0.039928596,-0.01287160161882639,0.060185134410858154,-1.1560218334197998,1000.5801,
2021.05.22 15:27:08,42.0,24.0,26.939999,10.38,-31.74,-0.23224466,0.53392327,9.826104,0.017666833,0.06250679,0.10345858,-0.054268717765808105,0.023631077259778976,-1.1372499465942383,1000.58936,
2021.05.22 15:27:08,42.0,24.0,26.88,9.66,-31.56,-0.2753416,0.48843205,10.257073,0.04026885,0.017302757,0.12300627,-0.047565992921590805,0.026837626472115517,-1.1649131774902344,1000.58325,
2021.05.22 15:27:08,42.0,24.0,26.58,9.78,-31.56,-0.11253092,0.41181526,10.355239,-0.0061569107,-0.008964447,0.07474792,-0.03974549472332001,0.010866624303162098,-1.1725590229034424,1000.58325,
2021.05.22 15:27:08,42.0,24.0,25.439999,9.719999,-31.199999,0.0023942748,0.36871833,9.835681,0.09280326,0.050289482,0.05092417,-0.03747028112411499,-2.4342745018657297E-4,-1.166713833808899,1000.57666,
2021.05.22 15:27:08,42.0,24.0,25.92,9.42,-31.38,-0.22027329,0.37590113,9.864412,0.11051835,-0.0022449298,0.027100425,-0.03807888180017471,0.022326387465000153,-1.1718181371688843,1000.57666,
2021.05.22 15:27:08,42.0,24.0,25.619999,9.719999,-31.38,-0.67757976,0.4668836,9.895537,0.06287086,-0.04744896,-0.020547064,-0.04703629016876221,0.06836654990911484,-1.1224561929702759,1000.57104,
2021.05.22 15:27:08,42.0,24.0,25.98,9.48,-31.74,-1.1372806,0.4740664,10.221159,0.030495005,-0.07188357,-0.051090326,-0.04606381058692932,0.11081148684024811,-1.1107597351074219,1000.57104,
2021.05.22 15:27:08,42.0,24.0,26.099998,9.42,-32.16,-0.9601042,0.339987,10.2642565,0.034160193,-0.07432703,0.009385334,-0.03296748176217079,0.09326722472906113,-1.140577793121338,1000.56836,
2021.05.22 15:27:08,42.0,24.0,25.5,9.42,-32.219997,-0.29928434,0.30167863,10.05356,0.07875336,-0.052946746,0.085743494,-0.029984865337610245,0.029760202392935753,-1.1696574687957764,1000.5674,
2021.05.22 15:27:08,42.0,24.0,25.619999,9.24,-31.679998,-0.51716334,0.4668836,9.4932995,0.05920567,-0.042562034,0.104680315,-0.04906809702515602,0.05442287400364876,-1.1440341472625732,1000.5674,
2021.05.22 15:27:08,42.0,24.0,25.619999,9.24,-31.38,-0.13647367,0.70631105,8.906702,0.09585758,0.042959098,0.06925013,-0.07912621647119522,0.015321383252739906,-1.1344313621520996,1000.5559,
2021.05.22 15:27:08,42.0,24.0,25.619999,8.76,-31.199999,0.083799616,0.43575802,11.020847,-0.06479997,-0.111589804,0.04298292,-0.03951770067214966,-0.007603589445352554,-1.2025024890899658,1000.5559,
2021.05.22 15:27:08,42.0,24.0,26.22,8.5199995,-31.679998,-0.076616794,0.34956414,9.629773,-0.18086436,-0.19466747,0.03931773,-0.03628326952457428,0.007956073619425297,-1.214274287223816,1000.5625,
2021.05.22 15:27:09,42.0,24.0,26.4,8.28,-32.04,-0.505192,0.5411061,9.055147,0.08486201,0.021578815,8.332202E-4,-0.059593316167593,0.055732809007167816,-1.175350308418274,1000.5615,
2021.05.22 15:27:09,42.0,24.0,26.46,8.22,-32.16,-0.8547561,0.600963,10.252285,-0.038532767,-0.019960022,-0.10240301,-0.05834849551320076,0.08317988365888596,-1.1642125844955444,1000.5615,
2021.05.22 15:27:09,42.0,24.0,26.519999,8.4,-32.04,-0.5961744,0.6392714,10.312141,-0.13321689,0.031963523,-0.082244456,-0.06180993467569351,0.05774858221411705,-1.1693366765975952,1000.56934,
2021.05.22 15:27:09,42.0,24.0,26.039999,8.7,-31.859999,-0.47885495,0.38068968,10.314536,-0.018985081,-0.008353583,0.047869842,-0.0368516780436039,0.046391941606998444,-1.1868735551834106,1000.56934,
2021.05.22 15:27:09,42.0,24.0,25.8,9.0,-31.98,-0.11253092,0.3974496,9.821315,0.059816536,-0.029733866,0.13583444,-0.04044334217905998,0.011457324959337711,-1.186067819595337,1000.56226,
2021.05.22 15:27:09,42.0,24.0,25.92,8.88,-32.46,-0.14126222,0.34956414,9.538791,0.08302941,0.011194105,0.09124128,-0.036626186221838,0.014808154664933681,-1.1936160326004028,1000.56445,
2021.05.22 15:27:09,42.0,24.0,25.8,8.76,-32.76,-0.44054657,0.33519846,9.993703,-0.009211237,0.017302757,0.017326582,-0.03349589183926582,0.04405389726161957,-1.1847646236419678,1000.56445,
2021.05.22 15:27:09,42.0,24.0,25.68,8.46,-32.579998,-0.026337024,0.7637737,10.204399,-0.05502613,0.04906775,0.022213504,-0.07470794767141342,0.002580942353233695,-1.16909658908844,1000.55664,
2021.05.22 15:27:09,42.0,24.0,25.619999,8.099999,-32.46,0.13647367,0.74701375,10.589877,-0.046474017,0.016691893,0.07841311,-0.0704178735613823,-0.012886468321084976,-1.1927452087402344,1000.55664,
2021.05.22 15:27:09,42.0,24.0,25.14,8.4,-32.1,-0.14605077,0.4189981,9.926663,0.078142494,-0.026679538,0.036263406,-0.042179759591817856,0.014711914584040642,-1.1939465999603271,1000.55273,
2021.05.22 15:27:09,42.0,24.0,24.96,8.46,-31.74,-0.4932206,0.20590763,10.017646,0.07753163,-0.05661194,-0.019325333,-0.020526742562651634,0.04919545352458954,-1.1981903314590454,1000.56104,
2021.05.22 15:27:09,42.0,24.0,25.56,8.46,-31.92,-0.7302538,0.39505535,9.567522,0.11174008,0.026465736,-0.06880542,-0.04114830121397972,0.07617861777544022,-1.167344093322754,1000.56104,
2021.05.22 15:27:09,42.0,24.0,26.22,8.58,-31.92,-0.8834874,0.5554718,9.725544,0.04882096,0.06067419,-0.08346619,-0.05681928992271423,0.09059330075979233,-1.1459742784500122,1000.56714,
2021.05.22 15:27:09,42.0,24.0,26.939999,8.4,-32.219997,-0.37350687,0.70870537,9.835681,-0.046474017,0.04173737,0.016715717,-0.071878582239151,0.037956442683935165,-1.1741325855255127,1000.56714,
2021.05.22 15:27:09,42.0,24.0,27.48,8.5199995,-32.52,-0.15083931,0.55786604,10.079897,-0.036700174,0.053343806,0.05703282,-0.05528183653950691,0.014963253401219845,-1.2053842544555664,1000.5757,
2021.05.22 15:27:09,42.0,24.0,27.06,8.58,-32.579998,0.0023942748,0.30646718,10.391152,-0.05258267,-0.03523165,0.07230445,-0.029484540224075317,-2.304147492395714E-4,-1.2320518493652344,1000.5747,
2021.05.22 15:27:10,42.0,24.0,26.279999,8.76,-32.88,0.05506832,0.5506832,9.72315,-0.022039408,-0.050503284,0.07413705,-0.056574948132038116,-0.005663569085299969,-1.1899508237838745,1000.5747,
2021.05.22 15:27:10,42.0,24.0,25.98,8.639999,-33.0,0.011971374,0.82602483,9.557945,0.028051542,-0.033399057,0.04970244,-0.08620857447385788,-0.0012525042984634638,-1.1563830375671387,1000.573,
2021.05.22 15:27:10,42.0,24.0,25.68,8.639999,-32.94,-0.31604427,0.66800267,10.199611,-0.029980656,-0.037675112,-0.032153502,-0.06536827236413956,0.030976003035902977,-1.156994342803955,1000.573,
2021.05.22 15:27:10,42.0,24.0,25.56,8.82,-32.76,-0.5243462,0.4668836,10.326508,-0.046474017,-0.015683964,-0.14516358,-0.045123327523469925,0.05073314905166626,-1.1617658138275146,1000.56177,
2021.05.22 15:27:10,42.0,24.0,25.859999,8.4,-32.64,-0.22506183,0.43336374,9.845258,0.0011734721,-0.019349158,-0.082855314,-0.04397764056921005,0.02285594306886196,-1.196846604347229,1000.56177,
2021.05.22 15:27:10,42.0,24.0,25.619999,8.46,-32.1,-0.17478207,0.39266106,9.684841,0.054929614,-0.008353583,-0.0028319713,-0.04051509499549866,0.018045013770461082,-1.198681354522705,1000.56177,
2021.05.22 15:27:10,42.0,24.0,25.8,8.46,-32.399998,-0.30646718,0.52913475,10.132571,0.025608081,-0.033399057,-0.009551489,-0.052149977535009384,0.03023652918636799,-1.181501865386963,1000.5603,
2021.05.22 15:27:10,42.0,24.0,26.16,8.5199995,-32.16,-0.3328042,0.6464542,9.991309,-0.022650272,-0.02301435,-0.023601389,-0.06457588076591492,0.03329705819487572,-1.1697437763214111,1000.5603,
2021.05.22 15:27:10,42.0,24.0,26.22,8.76,-32.1,-0.2657645,0.5770202,10.108628,0.0060603945,-0.01873829,0.0112179285,-0.05700042471289635,0.026284802705049515,-1.174547791481018,1000.5735,
2021.05.22 15:27:10,42.0,24.0,26.16,8.7,-32.64,-0.18675344,0.52913475,9.91948,0.012169046,-0.011407908,0.014272256,-0.05328305810689926,0.018824713304638863,-1.182365894317627,1000.57153,
2021.05.22 15:27:10,42.0,24.0,26.16,8.94,-31.92,-0.18435916,0.5363176,9.821315,0.043323174,0.019135352,0.015493986,-0.05454374477267265,0.018769128248095512,-1.1745100021362305,1000.57153,
2021.05.22 15:27:10,42.0,24.0,25.26,9.54,-31.38,-0.15083931,0.5602603,9.826104,0.028051542,-0.010797042,0.0130505245,-0.056949175894260406,0.015349671244621277,-1.1417977809906006,1000.56714,
2021.05.22 15:27:10,42.0,24.0,24.72,10.0199995,-30.539999,-0.18196489,0.5889916,9.974549,0.00789299,1.9853121E-4,0.01243966,-0.058971162885427475,0.018240895122289658,-1.1154824495315552,1000.56714,
2021.05.22 15:27:10,42.0,24.0,24.66,10.26,-30.539999,-0.14844504,0.6368771,9.996098,-0.011654698,-0.015683964,-9.993755E-4,-0.06361958384513855,0.014849208295345306,-1.1037817001342773,1000.5681,
2021.05.22 15:27:10,42.0,24.0,24.96,9.84,-31.679998,-0.15083931,0.7039168,10.005674,0.025608081,-0.008353583,-0.0034428365,-0.07022807747125626,0.015074234455823898,-1.1128816604614258,1000.5703,
2021.05.22 15:27:10,42.0,24.0,25.859999,9.24,-32.52,-0.17238778,0.7302538,10.005674,0.029273273,0.0038637226,-0.020547064,-0.0728440210223198,0.0172272976487875,-1.1403684616088867,1000.5703,
2021.05.22 15:27:10,42.0,24.0,25.74,8.76,-32.94,-0.17717634,0.68715686,9.981731,0.05065356,0.0014202617,-0.025433986,-0.06872221827507019,0.01774819754064083,-1.1574336290359497,1000.5615,
2021.05.22 15:27:11,42.0,24.0,25.98,8.5199995,-33.059998,-0.20590763,0.67279124,10.008069,0.04393404,-0.0071318517,-0.039483886,-0.06710972636938095,0.020571259781718254,-1.1688244342803955,1000.5686,
2021.05.22 15:27:11,42.0,24.0,25.439999,8.5199995,-32.399998,-0.14605077,0.7398309,9.744699,0.045766637,0.022800544,-0.018714469,-0.07576752454042435,0.014986592344939709,-1.156358003616333,1000.5686,
2021.05.22 15:27:11,42.0,24.0,25.32,8.22,-32.1,-0.27055305,0.72785956,9.950606,0.031105869,0.008139779,-0.018714469,-0.07299033552408218,0.02718290686607361,-1.161941409111023,1000.56396,
2021.05.22 15:27:11,42.0,24.0,25.74,8.46,-32.76,-0.2753416,0.7589851,9.754275,0.017666833,0.024022276,-0.03520783,-0.07762324810028076,0.028220294043421745,-1.1523832082748413,1000.56396,
2021.05.22 15:27:11,42.0,24.0,25.8,8.22,-32.82,-0.35914123,0.6703969,10.10384,-0.014098159,0.022800544,-0.048035998,-0.06621190905570984,0.03553006425499916,-1.1699531078338623,1000.5508,
2021.05.22 15:27:11,42.0,24.0,26.099998,8.34,-33.059998,-0.22027329,0.8284191,9.787795,-0.0061569107,0.031352658,-0.0028319713,-0.08441545069217682,0.02250109612941742,-1.1565287113189697,1000.5508,
2021.05.22 15:27:11,42.0,24.0,25.98,8.4,-33.54,-0.3304099,0.76616794,10.029617,-0.012265563,-4.1233405E-4,0.019159177,-0.07620129734277725,0.03293151035904884,-1.1544853448867798,1000.55347,
2021.05.22 15:27:11,42.0,24.0,26.099998,7.68,-33.54,-0.29689008,0.7206767,9.931452,-0.03303498,-0.019349158,0.014272256,-0.07240588963031769,0.029885025694966316,-1.1866141557693481,1000.55884,
2021.05.22 15:27:11,42.0,24.0,25.74,8.16,-33.3,-0.15083931,0.68236834,9.814133,-0.022039408,-0.01385137,0.033819944,-0.06940925866365433,0.015368391759693623,-1.1771379709243774,1000.55884,
2021.05.22 15:27:11,42.0,24.0,25.92,8.28,-33.239998,-0.19154198,0.68236834,10.091868,-0.0379219,-0.0071318517,0.026489561,-0.0675007775425911,0.018977554515004158,-1.1759814023971558,1000.56934,
2021.05.22 15:27:11,42.0,24.0,25.74,8.28,-32.88,-0.08858817,0.7326481,9.967366,-0.018985081,-0.024846943,0.054589365,-0.07336984574794769,0.008887587115168571,-1.1732686758041382,1000.56934,
2021.05.22 15:27:11,42.0,24.0,25.74,8.5199995,-32.82,-0.21548474,0.6895511,10.146936,-0.03059152,-0.030955598,0.026489561,-0.06783701479434967,0.021233240142464638,-1.1648472547531128,1000.5642,
2021.05.22 15:27:11,42.0,24.0,26.16,8.4,-32.579998,-0.2466103,0.69912827,9.893144,0.015834238,0.02096795,0.01610485,-0.07052883505821228,0.024922233074903488,-1.1705724000930786,1000.55786,
2021.05.22 15:27:11,42.0,24.0,25.74,7.7999997,-32.399998,-0.27055305,0.66321415,10.07032,0.01705597,1.9853121E-4,0.028933022,-0.06573967635631561,0.026859918609261513,-1.1898738145828247,1000.55786,
2021.05.22 15:27:11,42.0,24.0,26.16,7.62,-32.52,-0.1699935,0.6895511,10.0200405,0.029273273,-0.008353583,0.04970244,-0.06869900971651077,0.016963724046945572,-1.2030586004257202,1000.56494,
2021.05.22 15:27:11,42.0,24.0,26.16,7.98,-32.52,-0.038308397,0.7901107,9.90272,0.037214525,-0.004077526,0.054589365,-0.07961798459291458,0.003868452738970518,-1.1858081817626953,1000.56494,
2021.05.22 15:27:11,42.0,24.0,25.8,7.8599997,-32.7,-0.22027329,0.7398309,9.984126,0.030495005,0.011194105,0.0020549507,-0.07394760847091675,0.022058771923184395,-1.181147813796997,1000.5615,
2021.05.22 15:27:12,42.0,24.0,25.859999,8.22,-32.82,-0.22745611,0.7589851,10.079897,0.022553755,0.00936151,-0.0058862977,-0.07513603568077087,0.022561492398381233,-1.1678943634033203,1000.56323,
2021.05.22 15:27:12,42.0,24.0,25.98,8.34,-33.0,-0.24182175,0.68236834,9.838076,0.05004269,0.012415837,0.030765617,-0.06922819465398788,0.024575239047408104,-1.1705200672149658,1000.56323,
2021.05.22 15:27:12,42.0,24.0,25.859999,8.099999,-32.82,-0.2849187,0.600963,9.847652,0.040879715,-0.0022449298,0.020380909,-0.06092499941587448,0.02892458252608776,-1.1844875812530518,1000.56714,
2021.05.22 15:27:12,42.0,24.0,26.099998,8.34,-33.0,-0.16759923,0.67279124,9.933846,0.0072821244,0.009972375,0.033819944,-0.06761430203914642,0.016869934275746346,-1.1780606508255005,1000.57007,
2021.05.22 15:27:12,42.0,24.0,26.58,8.46,-32.82,-0.18675344,0.75180227,9.873989,-0.014098159,0.017302757,0.023435233,-0.07597950845956802,0.018911421298980713,-1.1710867881774902,1000.57007,
2021.05.22 15:27:12,42.0,24.0,26.46,8.7,-32.52,-0.18675344,0.7302538,10.144543,-0.041587092,0.005085453,0.020380909,-0.0718488097190857,0.018407173454761505,-1.1670459508895874,1000.57227,
2021.05.22 15:27:12,42.0,24.0,26.46,8.76,-33.059998,-0.1340794,0.7350424,9.957788,-0.04708488,-0.010797042,0.017937446,-0.07367554306983948,0.013463962823152542,-1.164361596107483,1000.57227,
2021.05.22 15:27:12,42.0,24.0,26.099998,8.34,-32.7,-0.17238778,0.72785956,10.024829,-0.023261137,0.009972375,0.0057201423,-0.07246782630681992,0.017194386571645737,-1.1733802556991577,1000.5686,
2021.05.22 15:27:12,42.0,24.0,25.68,8.099999,-33.3,-0.2849187,0.70870537,9.845258,-0.038532767,0.005085453,-0.021157928,-0.07183051854372025,0.028931614011526108,-1.1681959629058838,1000.5613,
2021.05.22 15:27:12,42.0,24.0,25.619999,7.9199996,-33.48,-0.27294734,0.6344828,10.012857,-0.018985081,0.006918049,-0.018103601,-0.06325876712799072,0.027252936735749245,-1.1838587522506714,1000.5613,
2021.05.22 15:27:12,42.0,24.0,25.92,8.099999,-33.48,-0.24421602,0.6440599,9.8548355,-0.0397545,-0.019960022,-0.021768793,-0.06524192541837692,0.024776268750429153,-1.180919885635376,1000.5676,
2021.05.22 15:27:12,42.0,24.0,26.279999,8.4,-33.3,-0.2753416,0.6153286,9.950606,-0.02142854,-0.018127427,0.014272256,-0.0617360882461071,0.02766377665102482,-1.17867910861969,1000.5676,
2021.05.22 15:27:12,42.0,24.0,26.279999,8.5199995,-33.12,-0.21548474,0.6273,10.240314,-0.023872003,-0.015683964,0.011828794,-0.06116793304681778,0.021039683371782303,-1.179181456565857,1000.56665,
2021.05.22 15:27:12,42.0,24.0,26.22,8.7,-33.36,-0.15083931,0.64166564,10.008069,-0.019595945,-0.010186179,0.011828794,-0.06401994079351425,0.015070629306137562,-1.1717984676361084,1000.56665,
2021.05.22 15:27:12,42.0,24.0,26.4,8.94,-33.36,-0.13168511,0.6656084,9.984126,-0.006767776,0.009972375,0.014272256,-0.06656239181756973,0.013188683427870274,-1.1646912097930908,1000.5735,
2021.05.22 15:27:12,42.0,24.0,26.4,8.76,-33.66,-0.14605077,0.64166564,9.905115,0.0060603945,-0.007742717,0.0112179285,-0.06468383967876434,0.01474391482770443,-1.1710703372955322,1000.5708,
2021.05.22 15:27:13,42.0,24.0,26.76,8.7,-33.6,-0.16281068,0.5650489,9.780613,0.02194289,-0.011407908,0.0014440855,-0.05770021677017212,0.016644727438688278,-1.184715986251831,1000.5708,
2021.05.22 15:27:13,42.0,24.0,26.46,8.4,-33.239998,-0.25379312,0.52913475,10.113417,0.012169046,-0.01629483,-0.005275432,-0.05225599929690361,0.025089431554079056,-1.1932634115219116,1000.5823,
2021.05.22 15:27:13,42.0,24.0,25.859999,8.04,-33.6,-0.05506832,0.6153286,9.787795,0.013390777,0.0014202617,0.0044984114,-0.06278330832719803,0.005626164376735687,-1.194556474685669,1000.5823,
2021.05.22 15:27:13,42.0,24.0,25.92,8.639999,-33.6,-0.14126222,0.57223165,10.075109,0.006671259,0.006918049,0.010607065,-0.05673005431890488,0.01401999406516552,-1.177715539932251,1000.57715,
2021.05.22 15:27:13,42.0,24.0,25.92,8.58,-33.719997,-0.102953814,0.64166564,9.8548355,-0.005546046,0.0026419922,-0.024212256,-0.06501644104719162,0.010446654632687569,-1.1720950603485107,1000.5742,
2021.05.22 15:27:13,42.0,24.0,26.16,8.5199995,-34.2,-0.18196489,0.5865973,10.065532,-0.006767776,1.9853121E-4,-0.015049276,-0.05820249766111374,0.018076051026582718,-1.1799652576446533,1000.5742,
2021.05.22 15:27:13,42.0,24.0,26.76,8.639999,-33.36,-0.14365649,0.64166564,9.885961,0.0023952026,0.014859296,-0.028488312,-0.06480901688337326,0.014530341140925884,-1.1805388927459717,1000.5779,
2021.05.22 15:27:13,42.0,24.0,26.699999,8.099999,-33.48,-0.23224466,0.5913859,10.05356,0.01033645,0.017302757,-0.033375233,-0.05874019116163254,0.023096628487110138,-1.1996595859527588,1000.5779,
2021.05.22 15:27:13,42.0,24.0,26.82,8.34,-33.18,-0.23224466,0.5961744,10.012857,0.0060603945,0.0032528574,-0.03520783,-0.059454720467329025,0.023190485313534737,-1.1930776834487915,1000.5742,
2021.05.22 15:27:13,42.0,24.0,26.939999,8.7,-33.18,-0.2370332,0.5865973,9.974549,0.0060603945,0.0063071838,-0.023601389,-0.058725204318761826,0.023759329691529274,-1.1833274364471436,1000.5718,
2021.05.22 15:27:13,42.0,24.0,26.58,8.7,-33.84,-0.22266756,0.5913859,9.917087,0.011558182,0.00936151,-0.008329758,-0.05954752117395401,0.022449148818850517,-1.1767390966415405,1000.5718,
2021.05.22 15:27:13,42.0,24.0,26.699999,9.12,-34.02,-0.2466103,0.6273,10.005674,0.0017843375,0.0087506445,-0.012605815,-0.06259351968765259,0.024642053991556168,-1.1596945524215698,1000.5696,
2021.05.22 15:27:13,42.0,24.0,26.82,9.42,-33.899998,-0.16281068,0.66800267,9.821315,0.0072821244,0.016081028,-0.010162354,-0.06790171563625336,0.016575761139392853,-1.1506778001785278,1000.5696,
2021.05.22 15:27:13,42.0,24.0,26.699999,8.82,-33.0,-0.2944958,0.6368771,10.101445,5.6260685E-4,0.0032528574,-0.009551489,-0.06293810904026031,0.02914557419717312,-1.169182300567627,1000.5664,
2021.05.22 15:27:13,42.0,24.0,26.34,9.059999,-32.219997,-0.22266756,0.6608198,9.797373,0.0060603945,0.007528914,-0.004664567,-0.06732933223247528,0.02272336184978485,-1.1568655967712402,1000.5669,
2021.05.22 15:27:13,42.0,24.0,25.32,9.0,-31.439999,-0.33759275,0.6273,9.967366,0.015834238,0.0063071838,0.009996199,-0.0628165677189827,0.03385686129331589,-1.1445163488388062,1000.5669,
2021.05.22 15:27:13,42.0,24.0,24.119999,8.88,-30.48,-0.2561874,0.65842557,9.948212,-0.001269989,0.0026419922,0.0020549507,-0.06606709212064743,0.025746416300535202,-1.1332148313522339,1000.56323,
2021.05.22 15:27:14,42.0,24.0,23.34,9.9,-30.0,-0.21787901,0.68236834,10.000886,-0.009822102,-0.0052992557,0.011828794,-0.06810908764600754,0.0217825248837471,-1.085784673690796,1000.56323,
2021.05.22 15:27:14,42.0,24.0,23.16,10.0199995,-29.099998,-0.17957062,0.6943397,9.967366,0.0023952026,0.0087506445,0.014883121,-0.0695376992225647,0.018013905733823776,-1.0816676616668701,1000.5679,
2021.05.22 15:27:14,42.0,24.0,23.34,9.78,-28.32,-0.28252444,0.6201172,9.914692,-6.591236E-4,8.0939644E-4,-0.005275432,-0.06243863329291344,0.02848782390356064,-1.0963081121444702,1000.56226,
2021.05.22 15:27:14,42.0,24.0,23.22,9.84,-28.38,-0.26097596,0.59378016,9.964972,-0.001269989,-0.0052992557,-9.993755E-4,-0.059496019035577774,0.026183348149061203,-1.0961322784423828,1000.56226,
2021.05.22 15:27:14,42.0,24.0,23.4,9.42,-29.099998,-0.16759923,0.6440599,9.852441,-0.0037134497,0.0044745877,0.01610485,-0.06526829302310944,0.017009293660521507,-1.1116036176681519,1000.5681,
2021.05.22 15:27:14,42.0,24.0,23.1,9.12,-29.58,-0.1987248,0.6440599,10.051166,-0.014709025,0.0026419922,0.0112179285,-0.0639781728386879,0.019768744707107544,-1.1155004501342773,1000.5681,
2021.05.22 15:27:14,42.0,24.0,22.8,9.179999,-30.3,-0.16041641,0.67757976,9.9889145,-0.011043833,0.0044745877,-3.885103E-4,-0.06772071868181229,0.016058064997196198,-1.104335069656372,1000.574,
2021.05.22 15:27:14,42.0,24.0,22.859999,9.12,-30.179998,-0.25858167,0.62251145,9.976943,-0.018985081,-0.0071318517,-0.012605815,-0.062293361872434616,0.025912124663591385,-1.1077957153320312,1000.5708,
2021.05.22 15:27:14,42.0,24.0,22.98,9.719999,-30.0,-0.18914771,0.6057515,9.979338,-0.014098159,-0.020570887,-0.0077188932,-0.06061532348394394,0.018951665610074997,-1.095017671585083,1000.5708,
2021.05.22 15:27:14,42.0,24.0,23.1,9.66,-29.699999,-0.16281068,0.5985687,9.93624,0.0060603945,-0.008964447,0.0038875462,-0.06016019359230995,0.016384076327085495,-1.1020116806030273,1000.57227,
2021.05.22 15:27:14,42.0,24.0,23.82,9.96,-30.06,-0.17478207,0.6392714,9.838076,-0.011043833,0.0026419922,-0.0138275465,-0.06487787514925003,0.017764011397957802,-1.097782015800476,1000.57227,
2021.05.22 15:27:14,42.0,24.0,23.46,10.26,-30.119999,-0.21309046,0.6177229,10.10384,5.6260685E-4,-0.009575313,0.0014440855,-0.06104790046811104,0.02108692191541195,-1.082964301109314,1000.56885,
2021.05.22 15:27:14,42.0,24.0,23.16,10.139999,-29.76,-0.17717634,0.63208854,9.876384,0.0030060678,-0.008353583,-0.0034428365,-0.06390257179737091,0.017937470227479935,-1.081505298614502,1000.5654,
2021.05.22 15:27:14,42.0,24.0,23.22,10.2,-30.119999,-0.17478207,0.5794145,10.005674,0.00789299,0.006918049,0.0020549507,-0.05783518776297569,0.01746651902794838,-1.0861515998840332,1000.5654,
2021.05.22 15:27:14,42.0,24.0,22.92,9.78,-30.359999,-0.24421602,0.58420306,9.924269,-0.005546046,-0.0052992557,-0.007108028,-0.05878050625324249,0.024602998048067093,-1.0894030332565308,1000.56494,
2021.05.22 15:27:14,42.0,24.0,23.1,9.719999,-30.48,-0.22266756,0.5770202,10.024829,-0.0018808541,-0.0071318517,-0.0016102408,-0.05748152360320091,0.0222079548984766,-1.0973716974258423,1000.56494,
2021.05.22 15:27:14,42.0,24.0,23.279999,9.48,-30.66,-0.10774237,0.5985687,9.976943,-0.006767776,0.0014202617,0.015493986,-0.05991988629102707,0.01079871691763401,-1.1127352714538574,1000.56274,
2021.05.22 15:27:15,42.0,24.0,23.699999,10.08,-30.66,-0.12210801,0.56744313,10.024829,-0.007378641,-0.0022449298,0.014272256,-0.056539248675107956,0.012179955840110779,-1.1020090579986572,1000.56226,
2021.05.22 15:27:15,42.0,24.0,23.22,10.44,-29.64,-0.13647367,0.6057515,9.98652,-0.0037134497,0.0087506445,0.0038875462,-0.06057704985141754,0.01366493757814169,-1.078539490699768,1000.56226,
2021.05.22 15:27:15,42.0,24.0,23.46,10.74,-29.46,-0.11971374,0.62251145,10.108628,-0.0018808541,0.021578815,-0.011384085,-0.06150021404027939,0.011842174455523491,-1.0733819007873535,1000.56006,
2021.05.22 15:27:15,42.0,24.0,23.1,10.559999,-29.519999,-0.17957062,0.5985687,9.950606,0.0023952026,-0.0034666602,-0.021157928,-0.06007184088230133,0.018044238910079002,-1.0704076290130615,1000.56006,
2021.05.22 15:27:15,42.0,24.0,22.38,9.9,-29.46,-0.23463893,0.52913475,9.972155,0.0060603945,0.008139779,-0.02482312,-0.05299687385559082,0.023525072261691093,-1.0840401649475098,1000.55615,
2021.05.22 15:27:15,42.0,24.0,22.26,10.0199995,-29.58,-0.22506183,0.5027977,9.847652,-0.004324315,1.9853121E-4,-0.025433986,-0.05100003629922867,0.022850386798381805,-1.0796855688095093,1000.5603,
2021.05.22 15:27:15,42.0,24.0,21.84,9.78,-29.58,-0.105348095,0.52913475,9.912297,-0.014098159,0.015470162,-0.006497163,-0.0533280223608017,0.010627619922161102,-1.0853569507598877,1000.5603,
2021.05.22 15:27:15,42.0,24.0,21.96,9.78,-29.58,-0.11013664,0.6057515,9.912297,-0.03303498,-0.008353583,-0.012605815,-0.06103144958615303,0.011110654100775719,-1.0792295932769775,1000.56445,
2021.05.22 15:27:15,42.0,24.0,22.14,9.9,-29.22,-0.06464542,0.52674043,9.909904,-0.034256715,-0.025457809,-0.041927345,-0.053101833909749985,0.006523221731185913,-1.0901607275009155,1000.57227,
2021.05.22 15:27:15,42.0,24.0,22.38,10.2,-28.98,-0.24900457,0.5698374,10.321719,-0.05136094,-0.041340306,-0.07857926,-0.055135615170001984,0.024119652807712555,-1.071865439414978,1000.57227,
2021.05.22 15:27:15,42.0,24.0,22.92,10.08,-29.16,-0.3304099,0.4932206,10.1206,0.014612508,-0.014462234,-0.07308147,-0.048669908195734024,0.03263567388057709,-1.0875176191329956,1000.56934,
2021.05.22 15:27:15,42.0,24.0,23.1,10.32,-29.16,-0.2657645,0.5027977,9.890749,0.043323174,0.042959098,-0.056588113,-0.05077313631772995,0.026863543316721916,-1.083644151687622,1000.56934,
2021.05.22 15:27:15,42.0,24.0,23.1,10.559999,-29.76,-0.19633053,0.5961744,9.862018,0.061649133,0.008139779,0.030765617,-0.060366157442331314,0.01990511640906334,-1.0684016942977905,1000.5735,
2021.05.22 15:27:15,42.0,24.0,23.64,10.26,-30.06,-0.10055954,0.6368771,9.842864,0.04759923,-0.010797042,0.017937446,-0.06461101770401001,0.01021613646298647,-1.0891717672348022,1000.57104,
2021.05.22 15:27:15,42.0,24.0,23.58,10.32,-30.779999,-0.057462595,0.6392714,10.005674,0.0030060678,-0.0150731,0.0051092766,-0.06380311399698257,0.005742937792092562,-1.0878976583480835,1000.57104,
2021.05.22 15:27:15,42.0,24.0,23.46,10.5,-30.9,-0.05027977,0.66321415,9.917087,-0.018985081,-0.01385137,-0.006497163,-0.0667756199836731,0.005069970618933439,-1.0769031047821045,1000.56885,
2021.05.22 15:27:16,42.0,24.0,23.699999,10.44,-30.119999,-0.2681588,0.5770202,10.132571,-0.009211237,0.018524488,-0.018103601,-0.056865762919187546,0.026458851993083954,-1.0822190046310425,1000.56885,
2021.05.22 15:27:16,42.0,24.0,23.58,10.44,-30.359999,-0.21069619,0.52913475,10.10384,-0.006767776,0.06495025,-0.028488312,-0.0523105189204216,0.020850058645009995,-1.0875544548034668,1000.56323,
2021.05.22 15:27:16,42.0,24.0,23.279999,10.32,-30.0,0.062251143,0.67757976,10.510866,-0.087401986,-0.19283488,0.0026658159,-0.06437449157238007,-0.005922481883317232,-1.09054434299469,1000.56323,
2021.05.22 15:27:16,42.0,24.0,23.4,10.139999,-29.939999,-0.38068968,0.71588814,9.680053,-0.045252286,0.14375186,0.0130505245,-0.07376378029584885,0.03930697590112686,-1.0620250701904297,1000.563,
