Time,X-cord,Y-cord,Mag_x,Mag_y,Mag_z,Acc_x,Acc_y,Acc_z,Gyro_x,Gyro_y,Gyro_z,Orn_x,Orn_y,Orn_z,Pressure,
2021.05.22 15:27:54,46.0,24.0,27.9,10.26,-29.039999,-1.0534809,0.5219519,9.09585,-0.10084102,0.0710589,-0.15188308,-0.056940849870443344,0.11530619859695435,-1.1110650300979614,1000.5796,
2021.05.22 15:27:54,46.0,24.0,27.539999,10.74,-29.34,-0.56265455,0.32801566,9.778218,0.021332026,0.09060659,-0.049868595,-0.03347763791680336,0.057478245347738266,-1.1430139541625977,1000.5762,
2021.05.22 15:27:54,46.0,24.0,28.14,10.679999,-29.82,-0.94573855,-0.038308397,10.379181,-0.084347665,-0.06638578,-0.041927345,0.0036756445188075304,0.09086787700653076,-1.1755932569503784,1000.56934,
2021.05.22 15:27:54,46.0,24.0,28.5,10.86,-30.539999,-0.45730647,0.39505535,9.90272,-0.022650272,0.002031127,-0.117063776,-0.03983007371425629,0.046147096902132034,-1.1497520208358765,1000.56934,
2021.05.22 15:27:54,46.0,24.0,29.279999,10.559999,-31.26,-0.4644893,0.505192,9.749487,0.034160193,0.038683042,-0.02482312,-0.05171243101358414,0.047606438398361206,-1.155751347541809,1000.57446,
2021.05.22 15:27:54,46.0,24.0,30.119999,10.62,-31.26,-0.6296943,0.15562786,10.276228,0.014001642,-0.026679538,-0.057809845,-0.015114950947463512,0.06120026856660843,-1.19465970993042,1000.57446,
2021.05.22 15:27:54,46.0,24.0,30.179998,10.86,-31.679998,-0.8332076,0.11013664,9.811738,0.06531432,-0.010797042,-0.07247061,-0.011184264905750751,0.08471622318029404,-1.181369662284851,1000.56494,
2021.05.22 15:27:54,46.0,24.0,30.179998,11.219999,-31.679998,-0.69673395,0.21548474,10.032011,0.05798394,0.01974622,-0.049868595,-0.02142481878399849,0.06933972984552383,-1.1666083335876465,1000.5769,
2021.05.22 15:27:54,46.0,24.0,30.179998,11.46,-31.5,-0.3040729,0.5554718,10.012857,0.0463775,-0.037064247,0.07291532,-0.055393557995557785,0.03035891242325306,-1.1453298330307007,1000.5769,
2021.05.22 15:27:54,46.0,24.0,30.48,11.099999,-32.04,-0.29689008,0.5985687,10.017646,0.03965798,-0.03950771,0.08146743,-0.059654347598552704,0.02962804026901722,-1.1547081470489502,1000.57446,
2021.05.22 15:27:54,46.0,24.0,30.3,11.099999,-31.8,-0.4836435,0.46209505,10.403124,-0.008600371,-0.057833668,-0.024212256,-0.04434186592698097,0.04645676538348198,-1.1594445705413818,1000.57446,
2021.05.22 15:27:54,46.0,24.0,30.119999,11.34,-31.98,-0.45730647,0.51955765,9.656111,0.010947316,-0.059666265,-0.019325333,-0.053694192320108414,0.04732392355799675,-1.1405029296875,1000.58716,
2021.05.22 15:27:54,46.0,24.0,30.179998,11.639999,-31.859999,-0.41181526,0.5219519,9.73991,0.09524672,-0.040118575,0.07902397,-0.05349007621407509,0.04225604981184006,-1.1355947256088257,1000.5867,
2021.05.22 15:27:55,46.0,24.0,29.64,11.82,-31.859999,-0.31125572,0.66321415,10.302565,0.05004269,-0.0022449298,0.061919745,-0.06425575166940689,0.030202293768525124,-1.1193420886993408,1000.5867,
2021.05.22 15:27:55,46.0,24.0,29.16,12.12,-31.92,-0.29210153,0.77574503,9.864412,-0.024482869,-0.06699664,0.07963484,-0.07844501733779907,0.029603000730276108,-1.0916845798492432,1000.5879,
2021.05.22 15:27:55,46.0,24.0,29.099998,11.7,-32.34,-0.31125572,0.5913859,10.326508,0.010947316,-0.031566463,0.07902397,-0.05718033015727997,0.03013230860233307,-1.120840072631836,1000.5879,
2021.05.22 15:27:55,46.0,24.0,28.619999,11.5199995,-32.52,-0.7972935,0.54828894,9.560339,-0.012265563,-0.01751656,-0.034596965,-0.05708986893296242,0.08320340514183044,-1.089432716369629,1000.58716,
2021.05.22 15:27:55,46.0,24.0,28.26,10.8,-32.76,-0.5794145,0.50758624,9.797373,0.05004269,0.05578727,-0.017492738,-0.05167200416326523,0.059070978313684464,-1.1248852014541626,1000.5884,
2021.05.22 15:27:55,46.0,24.0,28.38,10.38,-32.579998,-0.59378016,0.62251145,10.082292,-0.022039408,-0.012629638,0.019770043,-0.061558373272418976,0.058825425803661346,-1.1299312114715576,1000.5884,
2021.05.22 15:27:55,46.0,24.0,28.08,10.5,-32.16,-0.33519846,0.7972935,9.751882,-0.020206813,-4.1233405E-4,0.039928596,-0.08152853697538376,0.0343591682612896,-1.1166340112686157,1000.5825,
2021.05.22 15:27:55,46.0,24.0,28.38,10.26,-31.98,-0.5458947,0.4956149,10.304958,-0.011043833,-0.031566463,0.069860995,-0.047990582883358,0.0529245100915432,-1.1523082256317139,1000.5825,
2021.05.22 15:27:55,46.0,24.0,29.099998,10.8,-31.679998,-0.4956149,0.4189981,9.938635,-0.009822102,-0.059666265,0.04970244,-0.04208133742213249,0.04982622712850571,-1.1535907983779907,1000.5818,
2021.05.22 15:27:55,46.0,24.0,28.8,10.86,-31.98,-0.30167863,0.72546524,9.668081,0.011558182,-0.011407908,0.07535878,-0.07486049085855484,0.0311934445053339,-1.124772548675537,1000.58374,
2021.05.22 15:27:55,46.0,24.0,28.619999,10.86,-32.399998,-0.43336374,0.72785956,9.857229,-0.022039408,-0.025457809,0.044204652,-0.0736355409026146,0.043935757130384445,-1.1154353618621826,1000.58374,
2021.05.22 15:27:55,46.0,24.0,28.439999,11.04,-32.399998,-0.61293435,0.6057515,10.357633,-0.050750073,-0.065164044,-3.885103E-4,-0.05831525847315788,0.05910813808441162,-1.1142433881759644,1000.58203,
2021.05.22 15:27:55,46.0,24.0,27.779999,10.62,-32.34,-0.30886146,0.57223165,10.039194,0.015834238,-0.026068674,0.07658051,-0.05691128224134445,0.030755862593650818,-1.1342835426330566,1000.58203,
2021.05.22 15:27:55,46.0,24.0,27.84,10.86,-32.04,-0.35674694,0.51716334,9.864412,0.014001642,-0.01751656,0.063752346,-0.052345067262649536,0.036149293184280396,-1.1301755905151367,1000.5884,
2021.05.22 15:27:55,46.0,24.0,27.48,10.38,-31.98,-0.41420954,0.5818088,9.725544,0.008503855,-4.1233405E-4,0.07047185,-0.059697553515434265,0.042564135044813156,-1.129140019416809,1000.5862,
2021.05.22 15:27:55,46.0,24.0,27.66,10.0199995,-31.8,-0.35674694,0.59378016,9.979338,-0.009822102,-0.026679538,0.075969644,-0.05939304456114769,0.03573334217071533,-1.1473290920257568,1000.5862,
2021.05.22 15:27:55,46.0,24.0,27.48,10.32,-31.679998,-0.1987248,0.6105401,10.175668,-0.04708488,-0.04378377,0.07963484,-0.05991675704717636,0.019526930525898933,-1.14346182346344,1000.5874,
2021.05.22 15:27:56,46.0,24.0,27.72,9.9,-31.32,-0.014365649,0.67279124,9.960183,-0.04097623,-0.01873829,0.07474792,-0.06744556128978729,0.00144230667501688,-1.161932110786438,1000.6006,
2021.05.22 15:27:56,46.0,24.0,27.72,9.96,-30.42,-0.098165266,0.5985687,9.962578,-0.005546046,0.0026419922,0.039928596,-0.06000666320323944,0.009853080846369267,-1.1649281978607178,1000.6006,
2021.05.22 15:27:56,46.0,24.0,27.66,9.9,-30.599998,-0.22985038,0.6153286,10.027223,-0.008600371,-0.01629483,0.014272256,-0.06127289682626724,0.02291862480342388,-1.158315896987915,1000.5906,
2021.05.22 15:27:56,46.0,24.0,27.9,9.719999,-30.96,-0.25379312,0.505192,9.8548355,-0.020206813,-0.018127427,0.021602638,-0.051201578229665756,0.02574746496975422,-1.1747804880142212,1000.5906,
2021.05.22 15:27:56,46.0,24.0,28.32,9.48,-31.5,-0.29210153,0.3615355,9.998491,0.0023952026,-0.04378377,0.009385334,-0.036127857863903046,0.029206253588199615,-1.2002201080322266,1000.593,
2021.05.22 15:27:56,46.0,24.0,28.74,9.42,-32.28,-0.35435268,0.31365,9.77343,0.017666833,0.014248433,-0.019936197,-0.03206004947423935,0.03624086081981659,-1.2072371244430542,1000.5867,
2021.05.22 15:27:56,46.0,24.0,28.859999,9.599999,-32.04,-0.21548474,0.43575802,9.8548355,0.0048386636,0.04784602,-0.020547064,-0.04417835548520088,0.02186240442097187,-1.1972880363464355,1000.5867,
2021.05.22 15:27:56,46.0,24.0,29.16,9.36,-31.5,-0.16520496,0.56265455,10.158908,-0.04097623,0.01974622,0.016715717,-0.05532151460647583,0.016260644420981407,-1.2006911039352417,1000.58765,
2021.05.22 15:27:56,46.0,24.0,28.68,9.66,-31.439999,-0.12929083,0.5554718,10.1541195,-0.035478443,0.011194105,0.02282437,-0.05464519187808037,0.012732157483696938,-1.1881084442138672,1000.58765,
2021.05.22 15:27:56,46.0,24.0,28.439999,10.0199995,-31.08,-0.28970724,0.52913475,9.835681,-0.0037134497,0.030130928,-0.020547064,-0.053722407668828964,0.029446208849549294,-1.1681313514709473,1000.5867,
2021.05.22 15:27:56,46.0,24.0,27.779999,10.2,-31.26,-0.41420954,0.43575802,9.96976,0.003616933,0.04540256,-0.025433986,-0.043642573058605194,0.041522711515426636,-1.1575076580047607,1000.5867,
2021.05.22 15:27:56,46.0,24.0,27.48,10.559999,-31.26,-0.36392978,0.4740664,10.106234,-0.012876429,-0.0034666602,0.0026658159,-0.04684363305568695,0.03599487245082855,-1.1414629220962524,1000.5901,
2021.05.22 15:27:56,46.0,24.0,27.42,10.559999,-31.439999,-0.19393626,0.531529,9.907509,0.008503855,-0.015683964,0.060698014,-0.05358748137950897,0.019572174176573753,-1.1418308019638062,1000.58936,
2021.05.22 15:27:56,46.0,24.0,27.96,10.139999,-31.439999,-0.17238778,0.46927786,9.955395,0.00789299,0.011194105,0.056421958,-0.0470961257815361,0.017314286902546883,-1.1694942712783813,1000.58936,
2021.05.22 15:27:56,46.0,24.0,28.199999,9.599999,-31.38,-0.36392978,0.43336374,9.77343,0.0023952026,0.071669765,-0.025433986,-0.044281333684921265,0.03721945360302925,-1.1832870244979858,1000.59033,
2021.05.22 15:27:56,46.0,24.0,28.68,9.36,-31.38,-0.38547826,0.43336374,9.976943,-0.025093732,0.027687468,-0.019325333,-0.04337691143155098,0.03861770033836365,-1.1972156763076782,1000.59033,
2021.05.22 15:27:57,46.0,24.0,28.74,9.179999,-31.26,-0.30886146,0.49082634,9.984126,-0.0061569107,0.005085453,0.028933022,-0.04909767583012581,0.030925389379262924,-1.2014529705047607,1000.5947,
2021.05.22 15:27:57,46.0,24.0,28.74,9.059999,-31.74,-0.3902668,0.4836435,9.948212,0.0017843375,-0.009575313,0.029543886,-0.048540595918893814,0.03920973837375641,-1.201212763786316,1000.5852,
2021.05.22 15:27:57,46.0,24.0,29.279999,9.24,-32.28,-0.43096948,0.4836435,10.0439825,-0.02692633,-0.015683964,-0.0077188932,-0.048071231693029404,0.04288192093372345,-1.199864387512207,1000.5852,
2021.05.22 15:27:57,46.0,24.0,28.8,9.24,-32.82,-0.22266756,0.5363176,9.967366,0.003616933,-0.002855795,0.031987347,-0.05374212935566902,0.022335942834615707,-1.1964552402496338,1000.59546,
2021.05.22 15:27:57,46.0,24.0,28.74,9.36,-32.7,-0.28731298,0.41420954,10.015251,0.016445102,-0.023625214,0.022213504,-0.04131734371185303,0.028679680079221725,-1.202133059501648,1000.59546,
2021.05.22 15:27:57,46.0,24.0,28.92,9.48,-32.52,-0.3328042,0.409421,9.929058,0.031716734,-0.012018774,-0.0034428365,-0.04118817672133446,0.03350565955042839,-1.1988604068756104,1000.5935,
2021.05.22 15:27:57,46.0,24.0,28.5,9.599999,-32.04,-0.3304099,0.49800915,9.914692,0.027440678,-0.0046883905,0.0014440855,-0.050159431993961334,0.033312954008579254,-1.1816966533660889,1000.6023,
2021.05.22 15:27:57,46.0,24.0,28.14,9.599999,-31.439999,-0.19393626,0.5602603,9.873989,0.0072821244,-0.0065209866,0.0026658159,-0.05666934698820114,0.019638601690530777,-1.1781504154205322,1000.6023,
2021.05.22 15:27:57,46.0,24.0,28.019999,9.599999,-31.38,-0.32083282,0.48843205,10.039194,0.01033645,-0.02301435,0.007552738,-0.04858941584825516,0.03194715082645416,-1.1790351867675781,1000.6101,
2021.05.22 15:27:57,46.0,24.0,27.24,9.78,-31.08,-0.29210153,0.52913475,9.869201,0.013390777,-0.03278819,-0.020547064,-0.05354006588459015,0.029588645324110985,-1.159611463546753,1000.6101,
2021.05.22 15:27:57,46.0,24.0,26.82,9.9,-30.779999,-0.25139886,0.56744313,9.98652,0.022553755,1.9853121E-4,-0.0028319713,-0.05674193799495697,0.02516850456595421,-1.1495161056518555,1000.60156,
2021.05.22 15:27:57,46.0,24.0,26.699999,10.26,-30.66,-0.23224466,0.5770202,10.1206,-0.012876429,-0.0052992557,-0.027877446,-0.056937817484140396,0.022943690419197083,-1.1375212669372559,1000.6001,
2021.05.22 15:27:57,46.0,24.0,26.519999,10.139999,-30.119999,-0.2561874,0.57462597,10.024829,0.00911472,-0.0059101214,-0.015049276,-0.05723898112773895,0.02554972842335701,-1.1382660865783691,1000.6001,
2021.05.22 15:27:57,46.0,24.0,27.0,10.2,-30.48,-0.35914123,0.5411061,10.055954,0.03354933,1.9853121E-4,-0.011384085,-0.053723499178886414,0.035699110478162766,-1.1409003734588623,1000.59644,
2021.05.22 15:27:57,46.0,24.0,27.24,9.96,-30.359999,-0.31604427,0.5650489,9.873989,0.04271231,-0.013240504,0.017326582,-0.05713445320725441,0.03199683874845505,-1.1507452726364136,1000.59644,
2021.05.22 15:27:57,46.0,24.0,27.24,10.0199995,-30.359999,-0.31604427,0.54350036,9.948212,0.018888565,-4.1233405E-4,2.2235495E-4,-0.054551247507333755,0.031758274883031845,-1.1514703035354614,1000.5935,
2021.05.22 15:27:57,46.0,24.0,27.72,10.44,-30.779999,-0.30886146,0.59378016,9.785401,0.011558182,0.006918049,0.0051092766,-0.06057579815387726,0.03155301883816719,-1.1384828090667725,1000.5945,
2021.05.22 15:27:58,46.0,24.0,27.42,10.32,-30.179998,-0.24182175,0.5913859,10.008069,-0.0061569107,0.007528914,0.010607065,-0.059005092829465866,0.024157976731657982,-1.1444268226623535,1000.5945,
2021.05.22 15:27:58,46.0,24.0,26.939999,10.44,-30.06,-0.28731298,0.65124273,10.034406,-0.018374216,-0.0059101214,0.0038875462,-0.06478360295295715,0.028624964877963066,-1.1263887882232666,1000.59375,
2021.05.22 15:27:58,46.0,24.0,27.42,10.38,-30.0,-0.3328042,0.6488485,9.809344,0.01033645,0.009972375,0.016715717,-0.06601186841726303,0.03391425311565399,-1.1316026449203491,1000.59375,
2021.05.22 15:27:58,46.0,24.0,26.939999,9.9,-30.179998,-0.56265455,0.5506832,10.096657,-0.0024917193,-0.0059101214,0.011828794,-0.0544029101729393,0.055669236928224564,-1.1395059823989868,1000.5989,
2021.05.22 15:27:58,46.0,24.0,26.88,9.48,-30.3,-0.37829542,0.5961744,9.924269,0.024997218,-0.0065209866,0.044815518,-0.059956833720207214,0.03809976950287819,-1.1553834676742554,1000.6001,
2021.05.22 15:27:58,46.0,24.0,27.24,9.3,-30.42,-0.21309046,0.6273,9.9889145,0.01033645,-4.1233405E-4,0.047869842,-0.06270302832126617,0.02132945880293846,-1.1713099479675293,1000.6001,
2021.05.22 15:27:58,46.0,24.0,26.46,9.24,-29.939999,-0.16041641,0.64166564,9.933846,0.0048386636,-0.012018774,0.06314147,-0.06449587643146515,0.016147064045071602,-1.1643962860107422,1000.5891,
2021.05.22 15:27:58,46.0,24.0,26.58,9.54,-29.699999,-0.15323359,0.6296943,9.957788,0.008503855,0.011194105,0.038096,-0.06314481049776077,0.015387100167572498,-1.1586018800735474,1000.5886,
2021.05.22 15:27:58,46.0,24.0,26.16,10.2,-29.279999,-0.1699935,0.64166564,9.979338,-0.015319889,-0.019349158,0.009385334,-0.0642017349600792,0.01703290082514286,-1.130579948425293,1000.5886,
2021.05.22 15:27:58,46.0,24.0,25.8,10.139999,-29.4,-0.21069619,0.6392714,10.010463,-0.009211237,-0.012629638,0.0057201423,-0.06375963985919952,0.021044490858912468,-1.1251330375671387,1000.5947,
2021.05.22 15:27:58,46.0,24.0,26.039999,10.08,-29.46,-0.2777359,0.6081458,9.926663,-0.008600371,-0.013240504,-0.0040537016,-0.0611635185778141,0.027971480041742325,-1.1295214891433716,1000.5947,
2021.05.22 15:27:58,46.0,24.0,25.92,9.96,-28.92,-0.25379312,0.5865973,10.0439825,-0.007989507,-0.020570887,-0.019936197,-0.05831802263855934,0.025262800976634026,-1.1369426250457764,1000.5947,
2021.05.22 15:27:58,46.0,24.0,26.099998,10.0199995,-28.98,-0.15802214,0.58420306,9.912297,-0.007989507,-0.0034666602,-0.011384085,-0.058861635625362396,0.015940679237246513,-1.141599178314209,1000.59863,
2021.05.22 15:27:58,46.0,24.0,25.859999,10.62,-28.74,-0.2466103,0.56265455,9.842864,0.0023952026,-0.013240504,-0.018714469,-0.05708368495106697,0.025049488991498947,-1.1163320541381836,1000.59863,
2021.05.22 15:27:58,46.0,24.0,25.98,10.86,-29.099998,-0.29689008,0.53871185,9.8787775,-4.8258353E-5,-4.1233405E-4,-0.026655717,-0.05445374175906181,0.030044278129935265,-1.1096248626708984,1000.60693,
2021.05.22 15:27:58,46.0,24.0,25.98,10.679999,-28.92,-0.34477556,0.54350036,10.012857,-0.020206813,0.005085453,-0.026655717,-0.05419497564435005,0.03441968187689781,-1.1137809753417969,1000.60693,
2021.05.22 15:27:58,46.0,24.0,25.92,10.8,-28.74,-0.28970724,0.6201172,9.845258,-0.033645846,0.015470162,-0.018714469,-0.0628761351108551,0.029417579993605614,-1.1039642095565796,1000.6008,
2021.05.22 15:27:59,46.0,24.0,25.859999,10.8,-28.74,-0.26337022,0.53871185,10.1206,-0.023872003,0.018524488,-0.0034428365,-0.05316109210252762,0.026017311960458755,-1.113693118095398,1000.6008,
2021.05.22 15:27:59,46.0,24.0,25.859999,10.5,-28.56,-0.2083019,0.59378016,9.964972,-0.01654162,0.002031127,0.007552738,-0.05950339883565903,0.020900368690490723,-1.1204482316970825,1000.6023,
2021.05.22 15:27:59,46.0,24.0,25.56,10.98,-29.099998,-0.1987248,0.5411061,9.981731,-0.0049351803,0.011804971,0.0069418726,-0.054145924746990204,0.019906220957636833,-1.104648470878601,1000.5984,
2021.05.22 15:27:59,46.0,24.0,25.439999,10.679999,-28.859999,-0.20351335,0.5219519,9.926663,-0.0031025845,0.0038637226,-0.0028319713,-0.05252141132950783,0.020498815923929214,-1.1140685081481934,1000.5984,
2021.05.22 15:27:59,46.0,24.0,25.68,10.5,-29.22,-0.28013015,0.49082634,9.914692,-4.8258353E-5,0.0014202617,-0.002221106,-0.04944487288594246,0.028246529400348663,-1.121927261352539,1000.605,
2021.05.22 15:27:59,46.0,24.0,25.92,10.62,-29.34,-0.28252444,0.44533512,10.015251,-0.006767776,-0.011407908,-0.0040537016,-0.044418781995773315,0.028201941400766373,-1.1263673305511475,1000.605,
2021.05.22 15:27:59,46.0,24.0,26.34,10.62,-29.699999,-0.2370332,0.53871185,9.893144,-0.014709025,-0.0010231993,0.015493986,-0.05438374727964401,0.023954756557941437,-1.1247230768203735,1000.60693,
2021.05.22 15:27:59,46.0,24.0,26.46,10.74,-30.24,-0.21309046,0.53871185,10.008069,-0.014098159,0.0026419922,0.019159177,-0.05376369133591652,0.02128864824771881,-1.123576283454895,1000.60596,
2021.05.22 15:27:59,46.0,24.0,26.039999,10.8,-30.06,-0.26097596,0.50040346,10.146936,-0.017152485,-0.01873829,0.009385334,-0.04925953224301338,0.02571401186287403,-1.1176468133926392,1000.60596,
2021.05.22 15:27:59,46.0,24.0,25.56,10.679999,-30.06,-0.16041641,0.5027977,9.917087,-0.014098159,-0.012629638,0.0063310075,-0.050650157034397125,0.016174349933862686,-1.1176154613494873,1000.6096,
2021.05.22 15:27:59,46.0,24.0,25.08,10.679999,-30.0,-0.29689008,0.4644893,9.921875,-0.0049351803,-0.002855795,0.0014440855,-0.04675962030887604,0.029913853853940964,-1.1065105199813843,1000.60815,
2021.05.22 15:27:59,46.0,24.0,25.14,10.86,-29.82,-0.34477556,0.4764607,9.895537,-0.012876429,-0.002855795,-0.012605815,-0.048082757741212845,0.03482742980122566,-1.0979342460632324,1000.60815,
2021.05.22 15:27:59,46.0,24.0,25.26,10.62,-29.76,-0.28731298,0.46927786,10.178062,-0.014098159,-0.0022449298,0.019159177,-0.04605584591627121,0.02822115831077099,-1.1135252714157104,1000.604,
2021.05.22 15:27:59,46.0,24.0,25.619999,11.099999,-29.46,-0.14844504,0.5027977,9.885961,-0.01776335,1.9853121E-4,0.014272256,-0.05081027001142502,0.01501461397856474,-1.1067081689834595,1000.604,
2021.05.22 15:27:59,46.0,24.0,26.039999,10.679999,-29.099998,-0.2657645,0.42378664,10.0368,-4.8258353E-5,0.010583241,0.017326582,-0.04218344762921333,0.026472821831703186,-1.1296916007995605,1000.6018,
2021.05.22 15:27:59,46.0,24.0,25.68,10.26,-28.98,-0.28252444,0.46209505,9.974549,-0.0061569107,-0.015683964,0.0032766813,-0.046275775879621506,0.028316961601376534,-1.1332964897155762,1000.6018,
2021.05.22 15:28:00,46.0,24.0,25.68,10.26,-28.859999,-0.20351335,0.505192,9.950606,0.0060603945,0.0056963186,0.03870687,-0.05071582645177841,0.020449504256248474,-1.1331857442855835,1000.6079,
2021.05.22 15:28:00,46.0,24.0,25.08,10.2,-28.8,-0.2370332,0.48124924,10.029617,5.6260685E-4,-0.0010231993,0.033819944,-0.04793267324566841,0.023628927767276764,-1.1270215511322021,1000.6067,
2021.05.22 15:28:00,46.0,24.0,24.72,10.38,-28.56,-0.22506183,0.4740664,9.979338,0.0048386636,0.0032528574,0.029543886,-0.04745706170797348,0.022548958659172058,-1.116686463356018,1000.6067,
2021.05.22 15:28:00,46.0,24.0,24.96,10.74,-28.8,-0.19154198,0.45970076,9.931452,0.0072821244,-0.0059101214,0.035652537,-0.0462457612156868,0.01928401179611683,-1.1110278367996216,1000.6116,
2021.05.22 15:28:00,46.0,24.0,24.96,10.92,-28.74,-0.21309046,0.4668836,9.847652,-6.591236E-4,-0.007742717,0.02282437,-0.04736410453915596,0.021635331213474274,-1.1029645204544067,1000.6116,
2021.05.22 15:28:00,46.0,24.0,25.32,10.559999,-28.56,-0.22027329,0.46927786,10.127783,-0.018374216,-0.0150731,0.019159177,-0.04629164934158325,0.02174598164856434,-1.1218675374984741,1000.6106,
2021.05.22 15:28:00,46.0,24.0,24.9,10.32,-28.8,-0.14126222,0.49800915,9.941029,-0.005546046,-0.0071318517,0.024046099,-0.05004945024847984,0.014209063723683357,-1.122908592224121,1000.6074,
2021.05.22 15:28:00,46.0,24.0,24.779999,10.139999,-28.56,-0.2561874,0.4644893,10.127783,5.6260685E-4,-0.008353583,0.0069418726,-0.04581613093614578,0.02529011480510235,-1.1259238719940186,1000.6074,
2021.05.22 15:28:00,46.0,24.0,25.26,9.66,-29.279999,-0.21787901,0.50040346,9.761458,-0.006767776,0.0032528574,-0.0034428365,-0.051205623894929886,0.02231662906706333,-1.1444218158721924,1000.6123,
2021.05.22 15:28:00,46.0,24.0,25.38,9.54,-29.76,-0.22985038,0.44772938,10.156514,-0.007989507,-4.1233405E-4,0.0051092766,-0.04404319450259209,0.0226269718259573,-1.1563600301742554,1000.6123,
2021.05.22 15:28:00,46.0,24.0,26.039999,9.599999,-30.0,-0.14605077,0.50998056,9.850046,0.0023952026,0.013637567,0.0014440855,-0.05172257125377655,0.014826332218945026,-1.1596565246582031,1000.6123,
2021.05.22 15:28:00,46.0,24.0,26.58,9.599999,-30.24,-0.18196489,0.46927786,10.084685,-0.0024917193,-0.014462234,-0.007108028,-0.04649261757731438,0.01804172806441784,-1.1704132556915283,1000.6199,
2021.05.22 15:28:00,46.0,24.0,26.76,9.719999,-29.699999,-0.2561874,0.49800915,9.866806,-0.001269989,-0.0010231993,-0.019936197,-0.05041343346238136,0.025958741083741188,-1.1625124216079712,1000.6199,
2021.05.22 15:28:00,46.0,24.0,27.0,9.9,-29.939999,-0.23463893,0.46927786,9.98652,0.01033645,0.0014202617,-0.0138275465,-0.046943653374910355,0.02349124290049076,-1.164086937904358,1000.6128,
2021.05.22 15:28:00,46.0,24.0,27.72,9.9,-30.0,-0.21069619,0.49800915,9.869201,5.6260685E-4,-4.1233405E-4,-0.02726658,-0.05040670931339264,0.02134561724960804,-1.171359896659851,1000.61597,
2021.05.22 15:28:00,46.0,24.0,27.48,9.66,-29.939999,-0.22027329,0.50758624,9.962578,0.00789299,-0.008353583,-0.0138275465,-0.05089285597205162,0.022106466814875603,-1.1750633716583252,1000.61597,
2021.05.22 15:28:00,46.0,24.0,27.48,9.719999,-30.42,-0.32083282,0.44054657,9.862018,0.0042277984,0.017302757,-0.03765129,-0.04461778327822685,0.03252070024609566,-1.1736111640930176,1000.6162,
2021.05.22 15:28:01,46.0,24.0,27.359999,9.48,-30.359999,-0.30646718,0.5147691,10.163696,-0.027537195,-0.010186179,-0.021768793,-0.05058163031935692,0.030143987387418747,-1.1750283241271973,1000.6162,
2021.05.22 15:28:01,46.0,24.0,26.699999,9.12,-30.359999,-0.23942748,0.5554718,10.010463,-0.015930755,-0.013240504,-3.885103E-4,-0.05541646108031273,0.02391316555440426,-1.1759029626846313,1000.6045,
2021.05.22 15:28:01,46.0,24.0,26.34,9.36,-30.48,-0.22506183,0.5027977,10.0368,0.00789299,-0.0022449298,0.008774469,-0.050041016191244125,0.02241990715265274,-1.1689003705978394,1000.6045,
2021.05.22 15:28:01,46.0,24.0,26.16,9.54,-30.06,-0.27055305,0.46927786,9.797373,0.0048386636,0.0026419922,-0.0119949505,-0.04784354194998741,0.027607841417193413,-1.1609381437301636,1000.6001,
2021.05.22 15:28:01,46.0,24.0,26.16,9.42,-29.58,-0.21548474,0.44772938,10.017646,0.010947316,0.0056963186,-0.0040537016,-0.04465403035283089,0.021507199853658676,-1.1718910932540894,1000.59814,
2021.05.22 15:28:01,46.0,24.0,26.4,9.78,-29.34,-0.22745611,0.5865973,9.895537,-0.006767776,-0.0150731,-0.006497163,-0.059194087982177734,0.022981679067015648,-1.1492177248001099,1000.59814,
2021.05.22 15:28:01,46.0,24.0,26.64,10.0199995,-29.279999,-0.18196489,0.53392327,10.015251,-0.012876429,0.0044745877,-0.0077188932,-0.053251832723617554,0.018166780471801758,-1.1529518365859985,1000.5979,
2021.05.22 15:28:01,46.0,24.0,26.699999,10.08,-29.4,-0.27055305,0.5243462,10.108628,-0.020817677,-0.018127427,-0.026044851,-0.05180618539452553,0.02675817906856537,-1.148950457572937,1000.5979,
2021.05.22 15:28:01,46.0,24.0,26.46,10.74,-28.98,-0.3615355,0.43336374,9.962578,-0.031813253,-0.0010231993,-0.082244456,-0.043443188071250916,0.03627343475818634,-1.1283676624298096,1000.604,
2021.05.22 15:28:01,46.0,24.0,26.039999,11.04,-28.5,-0.29210153,0.38787252,9.890749,-0.068465166,0.073502354,-0.038262155,-0.03917853906750679,0.029524222016334534,-1.1204556226730347,1000.6084,
2021.05.22 15:28:01,46.0,24.0,26.039999,10.74,-28.32,-0.31365,0.46927786,10.07032,-0.046474017,0.016081028,-0.033375233,-0.046543870121240616,0.031135916709899902,-1.1228519678115845,1000.6084,
2021.05.22 15:28:01,46.0,24.0,25.439999,10.98,-27.66,-0.18675344,0.4836435,9.869201,0.003616933,0.008139779,-0.041316483,-0.04895741119980812,0.018920596688985825,-1.1107611656188965,1000.6206,
2021.05.22 15:28:01,46.0,24.0,25.439999,10.98,-28.08,-0.31125572,0.409421,10.149331,0.0023952026,0.027076604,-0.041316483,-0.04029891639947891,0.030658001080155373,-1.1120580434799194,1000.6206,
2021.05.22 15:28:01,46.0,24.0,25.56,11.4,-28.439999,-0.7039168,0.3519584,9.119793,-0.09289977,0.04784602,-0.08652051,-0.03845938295125961,0.07703287154436111,-1.0763986110687256,1000.61865,
2021.05.22 15:28:01,46.0,24.0,25.619999,11.88,-28.26,-0.17238778,0.3615355,10.465375,-0.03608931,-0.02790127,-0.06880542,-0.034527454525232315,0.016470713540911674,-1.0980501174926758,1000.6167,
