Time,X-cord,Y-cord,Mag_x,Mag_y,Mag_z,Acc_x,Acc_y,Acc_z,Gyro_x,Gyro_y,Gyro_z,Orn_x,Orn_y,Orn_z,Pressure,
2021.05.22 15:20:17,6.0,24.0,30.84,-3.3,-26.76,-0.71588814,0.17957062,10.180456,-0.054415263,-0.08165741,-0.032153502,-0.017593493685126305,0.07020428031682968,-1.66714346408844,1000.6638,
2021.05.22 15:20:17,6.0,24.0,31.38,-4.14,-27.72,-0.7350424,0.05506832,9.873989,-0.083125934,-0.04744896,-0.044370808,-0.005561663303524256,0.07430523633956909,-1.7058730125427246,1000.6638,
2021.05.22 15:20:17,6.0,24.0,32.7,-4.38,-28.98,-0.55786604,0.14126222,9.914692,-0.0061569107,-0.029123,0.059476282,-0.014224305748939514,0.056207336485385895,-1.697192668914795,1000.66675,
2021.05.22 15:20:17,6.0,24.0,33.18,-4.62,-29.34,-0.4189981,0.3040729,10.017646,-0.011043833,-0.0065209866,0.084521756,-0.030317917466163635,0.04180163890123367,-1.6857837438583374,1000.6577,
2021.05.22 15:20:17,6.0,24.0,33.84,-5.04,-30.72,-0.2753416,0.3232271,10.000886,-0.035478443,-0.0071318517,0.06253061,-0.032296374440193176,0.027524767443537712,-1.691955327987671,1000.6577,
2021.05.22 15:20:17,6.0,24.0,34.079998,-4.62,-30.539999,-0.36871833,0.21309046,10.012857,-0.012876429,-0.0071318517,0.03137648,-0.02126406319439411,0.03680785372853279,-1.6899679899215698,1000.6572,
2021.05.22 15:20:17,6.0,24.0,33.899998,-4.92,-30.9,-0.38547826,0.21787901,10.328901,5.6260685E-4,1.9853121E-4,-0.03276437,-0.021076316013932228,0.03730304166674614,-1.6996922492980957,1000.6572,
2021.05.22 15:20:17,6.0,24.0,33.42,-4.62,-31.14,-0.3304099,0.22985038,9.787795,0.024997218,-0.022403482,-0.02237966,-0.02346568927168846,0.03374452516436577,-1.6896154880523682,1000.6636,
2021.05.22 15:20:17,6.0,24.0,33.78,-4.38,-30.539999,-0.60335726,0.15562786,9.835681,0.102577105,0.00936151,-0.0119949505,-0.01579178310930729,0.0612669438123703,-1.6915818452835083,1000.6736,
2021.05.22 15:20:17,6.0,24.0,33.42,-4.74,-30.72,-0.40223816,0.2657645,10.041589,0.03965798,-0.01751656,-0.043759942,-0.026439011096954346,0.04003581777215004,-1.6912024021148682,1000.6736,
2021.05.22 15:20:17,6.0,24.0,33.0,-4.56,-30.48,-0.32801566,0.44772938,9.873989,0.061649133,0.009972375,0.03443081,-0.04528833553195,0.0332079641520977,-1.6682837009429932,1000.688,
2021.05.22 15:20:17,6.0,24.0,33.66,-4.8599997,-30.72,-0.23942748,0.4932206,9.8237095,0.00789299,-0.012018774,0.0014440855,-0.050150174647569656,0.02436758577823639,-1.669956922531128,1000.6846,
2021.05.22 15:20:17,6.0,24.0,33.36,-5.2799997,-30.96,-0.16759923,0.45251793,9.804555,0.02438635,-0.0059101214,0.019770043,-0.04611438885331154,0.017092352733016014,-1.6866800785064697,1000.6846,
2021.05.22 15:20:17,6.0,24.0,33.6,-5.1,-31.14,-0.3328042,0.5818088,10.134965,-0.03608931,-0.087766066,0.035652537,-0.057312339544296265,0.03282544016838074,-1.6701518297195435,1000.68066,
2021.05.22 15:20:18,6.0,24.0,33.54,-5.2799997,-31.14,-0.47885495,0.600963,10.352844,-0.068465166,-0.095096454,0.026489561,-0.05792124941945076,0.04622052609920502,-1.6758397817611694,1000.68066,
2021.05.22 15:20:18,6.0,24.0,33.36,-4.98,-31.439999,-0.38068968,0.51955765,10.027223,0.030495005,-0.08226828,0.10284772,-0.05173121392726898,0.0379473902285099,-1.672591209411621,1000.6736,
2021.05.22 15:20:18,6.0,24.0,33.18,-4.98,-31.74,-0.48124924,0.21069619,10.10384,0.06592519,-0.063331455,0.09063041,-0.02082645520567894,0.04759436100721359,-1.705464482307434,1000.6736,
2021.05.22 15:20:18,6.0,24.0,32.82,-4.92,-31.619999,-0.55307746,0.17478207,10.403124,0.010947316,-0.049281556,0.04848071,-0.01677565462887287,0.053114552050828934,-1.7101162672042847,1000.6797,
2021.05.22 15:20:18,6.0,24.0,32.52,-5.04,-31.38,-0.14126222,0.47885495,9.318518,0.03599279,0.008139779,0.10406945,-0.05133641138672829,0.01515814010053873,-1.6764549016952515,1000.6726,
2021.05.22 15:20:18,6.0,24.0,32.34,-5.4,-30.539999,-0.016759925,0.43575802,10.015251,0.049431827,-0.032177325,0.15354954,-0.04348196089267731,0.0016734387027099729,-1.6960331201553345,1000.6726,
2021.05.22 15:20:18,6.0,24.0,32.16,-5.52,-30.06,-0.43815228,0.09577099,10.000886,0.027440678,-0.04439463,0.08940868,-0.009566782042384148,0.04378334805369377,-1.7385774850845337,1000.6738,
2021.05.22 15:20:18,6.0,24.0,32.399998,-5.64,-30.0,-0.40463245,-0.026337024,9.921875,0.05248615,0.0044745877,0.024656964,0.0026522292755544186,0.040759265422821045,-1.752489686012268,1000.6738,
2021.05.22 15:20:18,6.0,24.0,32.28,-5.58,-30.359999,-0.2849187,0.11492519,9.96976,0.0445449,-0.0052992557,0.043593787,-0.011522164568305016,0.028570514172315598,-1.7355138063430786,1000.6743,
2021.05.22 15:20:18,6.0,24.0,32.64,-5.7,-31.32,-0.29928434,0.5554718,9.574705,-0.011654698,0.022800544,0.06253061,-0.05792132392525673,0.031247638165950775,-1.690902590751648,1000.67847,
2021.05.22 15:20:18,6.0,24.0,32.52,-5.8199997,-31.5,-0.31125572,0.49800915,10.005674,-0.0031025845,0.025854873,0.07902397,-0.049707621335983276,0.031097890809178352,-1.7031879425048828,1000.67847,
2021.05.22 15:20:18,6.0,24.0,32.219997,-6.2999997,-31.32,-0.4932206,0.3040729,10.307353,-0.05136094,-0.01385137,0.023435233,-0.029458338394761086,0.04781486093997955,-1.7427889108657837,1000.6846,
2021.05.22 15:20:18,6.0,24.0,32.219997,-6.66,-31.14,-0.61293435,0.5123748,10.139753,-0.04341969,0.024633141,0.046037246,-0.05039651319384575,0.06037518009543419,-1.7340399026870728,1000.69214,
2021.05.22 15:20:18,6.0,24.0,31.98,-7.08,-30.599998,-0.23224466,0.90503585,9.656111,0.015223373,0.03746131,0.11995194,-0.09342687577009201,0.024046937003731728,-1.7020529508590698,1000.69214,
2021.05.22 15:20:18,6.0,24.0,31.38,-7.08,-30.779999,-0.6296943,0.6249057,9.938635,0.035381928,0.036239583,0.12972578,-0.06266842782497406,0.06327364593744278,-1.7400124073028564,1000.6885,
2021.05.22 15:20:18,6.0,24.0,31.26,-6.66,-30.96,-0.6440599,0.5889916,10.132571,-0.02814806,0.015470162,-0.017492738,-0.057946521788835526,0.06347792595624924,-1.7316946983337402,1000.6885,
2021.05.22 15:20:19,6.0,24.0,31.199999,-6.2999997,-31.32,-0.33759275,0.7039168,9.79019,-6.591236E-4,0.038683042,-0.0034428365,-0.07173421233892441,0.03446910157799721,-1.701704502105713,1000.6836,
2021.05.22 15:20:19,6.0,24.0,30.42,-6.2999997,-31.5,-0.40463245,0.49082634,10.0368,0.020721162,0.025854873,0.029543886,-0.048824142664670944,0.04029306769371033,-1.7306684255599976,1000.6836,
2021.05.22 15:20:19,6.0,24.0,31.5,-6.48,-31.32,-0.34956414,0.38068968,9.991309,-0.01654162,-0.05111415,0.0038875462,-0.03806039318442345,0.03497255593538284,-1.7416422367095947,1000.6804,
2021.05.22 15:20:19,6.0,24.0,31.859999,-6.8999996,-31.019999,-0.4956149,0.69194543,9.419077,0.00789299,-0.0022449298,0.03443081,-0.07322946190834045,0.05256972089409828,-1.7185425758361816,1000.6846,
2021.05.22 15:20:19,6.0,24.0,32.219997,-7.2599998,-30.539999,-0.56265455,0.6703969,10.427067,-0.12038871,-0.06638578,-0.04253821,-0.06411252170801163,0.05390867963433266,-1.7388790845870972,1000.6846,
2021.05.22 15:20:19,6.0,24.0,32.82,-6.8999996,-30.179998,-0.16759923,0.50998056,9.826104,0.0072821244,-0.008964447,0.008163603,-0.05184653401374817,0.017054874449968338,-1.7333683967590332,1000.6814,
2021.05.22 15:20:19,6.0,24.0,32.46,-7.2,-30.3,-0.49800915,0.23224466,9.869201,0.02194289,0.08571967,-0.20625009,-0.023498037829995155,0.050418175756931305,-1.7765882015228271,1000.6814,
2021.05.22 15:20:19,6.0,24.0,32.52,-7.02,-30.599998,-0.24900457,0.3519584,9.747093,0.053707883,0.112597734,-0.16776559,-0.036081619560718536,0.025540990754961967,-1.754103183746338,1000.6792,
2021.05.22 15:20:19,6.0,24.0,32.16,-6.96,-30.48,-0.28252444,0.6105401,10.281016,-0.0049351803,0.053954672,-0.14088751,-0.059293195605278015,0.027473291382193565,-1.7319483757019043,1000.67847,
2021.05.22 15:20:19,6.0,24.0,32.219997,-6.8999996,-30.359999,-0.37350687,0.65842557,9.972155,0.014001642,0.008139779,-0.12195069,-0.06588464975357056,0.03743748366832733,-1.7243763208389282,1000.67847,
2021.05.22 15:20:19,6.0,24.0,32.1,-6.0,-30.119999,-0.7350424,0.50040346,9.998491,0.07569904,-0.008353583,-0.16043521,-0.049871813505887985,0.07338331639766693,-1.7166316509246826,1000.66895,
2021.05.22 15:20:19,6.0,24.0,31.98,-5.8799996,-30.119999,-0.7398309,0.44533512,9.826104,0.067757785,-0.012629638,-0.16959819,-0.04516298696398735,0.07515060156583786,-1.7185420989990234,1000.66895,
2021.05.22 15:20:19,6.0,24.0,32.16,-5.7,-29.699999,-0.6057515,0.51716334,10.362421,0.05248615,-0.05600107,-0.07185974,-0.04978136345744133,0.058390114456415176,-1.7057595252990723,1000.6699,
2021.05.22 15:20:19,6.0,24.0,32.219997,-5.52,-30.0,-0.31365,0.7996878,9.8787775,0.046988364,-0.057833668,0.0130505245,-0.08073344081640244,0.03173922002315521,-1.6665422916412354,1000.67554,
2021.05.22 15:20:19,6.0,24.0,32.399998,-5.52,-30.119999,-0.35435268,0.8140534,10.089474,0.032938465,-0.059055395,0.065584935,-0.08045964688062668,0.0351065956056118,-1.666009783744812,1000.67554,
2021.05.22 15:20:19,6.0,24.0,32.219997,-5.58,-30.179998,-0.56744313,0.6703969,10.034406,0.017666833,-0.050503284,0.029543886,-0.0666045993566513,0.05648958310484886,-1.6832740306854248,1000.6775,
2021.05.22 15:20:19,6.0,24.0,31.92,-5.3399997,-30.0,-0.6296943,0.5889916,9.608225,0.048210096,-0.01629483,0.02771129,-0.06109342351555824,0.06544341892004013,-1.6832298040390015,1000.67676,
2021.05.22 15:20:20,6.0,24.0,30.96,-5.16,-29.519999,-0.4668836,0.53392327,9.749487,0.02866241,0.0032528574,0.025878694,-0.054647088050842285,0.04785146191716194,-1.6875312328338623,1000.67676,
2021.05.22 15:20:20,6.0,24.0,30.359999,-5.2799997,-28.98,-0.47167215,0.7541966,10.261862,-0.02692633,-0.010797042,0.06680667,-0.07328610867261887,0.04593127593398094,-1.675390601158142,1000.67773,
2021.05.22 15:20:20,6.0,24.0,29.82,-5.2799997,-28.14,-0.3519584,0.8786988,10.1206,-0.04341969,-0.05661194,0.092463,-0.08655355125665665,0.0347624272108078,-1.6655553579330444,1000.67773,
2021.05.22 15:20:20,6.0,24.0,30.359999,-5.2799997,-28.439999,-0.20590763,0.6560313,9.387952,0.081196815,-0.010186179,0.14927347,-0.06974999606609344,0.02192966267466545,-1.6793241500854492,1000.66943,
2021.05.22 15:20:20,6.0,24.0,30.539999,-5.52,-28.38,-0.2681588,0.42618093,9.730332,0.056151345,0.021578815,0.064363204,-0.04375464841723442,0.027552083134651184,-1.7122820615768433,1000.66943,
2021.05.22 15:20:20,6.0,24.0,30.24,-5.22,-28.38,-0.052674048,0.88109314,9.972155,-0.058691323,0.04784602,0.0112179285,-0.08812527358531952,0.005282063968479633,-1.6598914861679077,1000.6763,
2021.05.22 15:20:20,6.0,24.0,30.72,-5.2799997,-28.38,-0.16041641,1.1037607,10.041589,-0.061745647,-0.03584252,0.015493986,-0.1094655767083168,0.01597384177148342,-1.6399049758911133,1000.6765,
2021.05.22 15:20:20,6.0,24.0,29.64,-5.46,-28.68,-0.32562137,0.86912173,10.324113,-0.044030555,-0.049892418,-0.019936197,-0.08394409716129303,0.03152943775057793,-1.6734570264816284,1000.6765,
2021.05.22 15:20:20,6.0,24.0,29.46,-5.46,-28.8,-0.25858167,0.6368771,10.063137,0.041490577,0.011804971,-0.10240301,-0.06318303197622299,0.02569027617573738,-1.6949679851531982,1000.6814,
2021.05.22 15:20:20,6.0,24.0,29.64,-5.58,-28.5,-0.3998439,0.5985687,9.694419,0.069590375,0.0063071838,-0.08713138,-0.06161310151219368,0.041221387684345245,-1.7015780210494995,1000.6814,
2021.05.22 15:20:20,6.0,24.0,29.099998,-5.3399997,-28.8,-0.29928434,0.6249057,9.751882,0.012169046,-0.045005497,-0.031542636,-0.06396299600601196,0.030680278316140175,-1.691891074180603,1000.6843,
2021.05.22 15:20:20,6.0,24.0,29.58,-5.1,-28.5,-0.21309046,0.67279124,10.192428,-0.009211237,-0.032177325,-0.02726658,-0.06589894741773605,0.0209036972373724,-1.6798206567764282,1000.6907,
2021.05.22 15:20:20,6.0,24.0,29.64,-4.7999997,-28.26,-0.16281068,0.70870537,9.811738,-0.014709025,-0.02790127,-0.030931773,-0.07209524512290955,0.016591938212513924,-1.6636725664138794,1000.6907,
2021.05.22 15:20:20,6.0,24.0,29.58,-4.5,-28.439999,-0.31365,0.66800267,9.979338,0.014612508,-0.0052992557,-0.023601389,-0.06680597364902496,0.03141959756612778,-1.6588188409805298,1000.68896,
2021.05.22 15:20:20,6.0,24.0,29.64,-4.3199997,-28.019999,-0.45730647,0.69194543,9.881172,-0.035478443,-0.040729437,-0.018714469,-0.0698380097746849,0.04624759033322334,-1.6504731178283691,1000.68896,
2021.05.22 15:20:20,6.0,24.0,29.46,-4.38,-28.26,-0.39505535,0.67279124,9.938635,0.0042277984,-0.0010231993,0.015493986,-0.06753823906183243,0.03972854092717171,-1.654844045639038,1000.6858,
2021.05.22 15:20:20,6.0,24.0,29.039999,-4.5,-28.56,-0.4836435,0.57223165,9.9889145,-0.018985081,-0.002855795,0.037485134,-0.05715731531381607,0.04838024452328682,-1.6711933612823486,1000.68604,
2021.05.22 15:20:21,6.0,24.0,29.34,-4.5,-28.439999,-0.15083931,0.73743665,9.979338,-0.024482869,-0.011407908,0.0680284,-0.07375388592481613,0.0151140121743083,-1.6522459983825684,1000.68604,
2021.05.22 15:20:21,6.0,24.0,29.4,-4.56,-28.74,0.11253092,0.84996754,9.941029,0.015834238,-0.002855795,0.12972578,-0.08528808504343033,-0.011319363489747047,-1.6421245336532593,1000.6875,
2021.05.22 15:20:21,6.0,24.0,29.16,-4.62,-28.08,-0.05985687,0.72785956,10.060742,-0.0018808541,0.0056963186,0.07047185,-0.07221940904855728,0.005949477665126324,-1.6591856479644775,1000.6875,
2021.05.22 15:20:21,6.0,24.0,29.64,-4.74,-27.9,-0.21548474,0.70870537,9.895537,0.015834238,1.9853121E-4,0.01243966,-0.07147972285747528,0.021772511303424835,-1.6631988286972046,1000.6924,
2021.05.22 15:20:21,6.0,24.0,29.16,-5.2799997,-28.08,-0.2849187,0.59378016,9.876384,0.041490577,-0.004077526,0.021602638,-0.06002402305603027,0.028840485960245132,-1.6949435472488403,1000.68823,
2021.05.22 15:20:21,6.0,24.0,29.039999,-5.58,-28.26,-0.25139886,0.60335726,10.101445,-0.008600371,-0.034620788,0.020991774,-0.059640493243932724,0.024882279336452484,-1.7056376934051514,1000.68823,
2021.05.22 15:20:21,6.0,24.0,28.98,-5.8199997,-28.619999,-0.27055305,0.5698374,9.79019,-0.0024917193,-0.012018774,0.039928596,-0.058117203414440155,0.027628088369965553,-1.7153513431549072,1000.6841,
2021.05.22 15:20:21,6.0,24.0,29.22,-5.7,-28.619999,-0.16281068,0.5913859,9.98652,-0.025093732,0.0038637226,0.044815518,-0.05914149805903435,0.016301600262522697,-1.7080333232879639,1000.6841,
2021.05.22 15:20:21,6.0,24.0,29.46,-5.46,-29.16,-0.026337024,0.7110996,9.79019,-0.022039408,0.009972375,0.050313305,-0.07250630855560303,0.0026901380624622107,-1.6835671663284302,1000.68115,
2021.05.22 15:20:21,6.0,24.0,29.16,-5.3399997,-28.92,-0.17717634,0.68715686,10.144543,-0.040365364,0.011194105,0.029543886,-0.06762301176786423,0.017463412135839462,-1.686833143234253,1000.67993,
2021.05.22 15:20:21,6.0,24.0,29.4,-4.98,-29.22,-0.17478207,0.70870537,9.883567,-0.019595945,0.036239583,-0.012605815,-0.07157175987958908,0.017682265490293503,-1.6688529253005981,1000.67993,
2021.05.22 15:20:21,6.0,24.0,29.099998,-5.4,-29.099998,-0.3328042,0.62251145,10.108628,-0.0049351803,0.028909197,-0.018103601,-0.06147129833698273,0.032910898327827454,-1.696146011352539,1000.67114,
2021.05.22 15:20:21,6.0,24.0,29.22,-5.64,-28.619999,-0.31125572,0.63208854,9.967366,-0.0024917193,0.018524488,-0.013216681,-0.0633002296090126,0.031217336654663086,-1.7028777599334717,1000.66846,
2021.05.22 15:20:21,6.0,24.0,29.76,-5.46,-28.5,-0.16281068,0.6440599,9.864412,0.011558182,0.013026701,2.2235495E-4,-0.06518986076116562,0.016503356397151947,-1.691766381263733,1000.66846,
2021.05.22 15:20:21,6.0,24.0,29.699999,-5.8199997,-28.26,-0.26337022,0.5794145,9.766247,0.031105869,0.029520063,-0.0119949505,-0.059237319976091385,0.026960859075188637,-1.7112514972686768,1000.6682,
2021.05.22 15:20:21,6.0,24.0,30.24,-5.2799997,-28.68,-0.28252444,0.60335726,10.0368,-0.004324315,0.015470162,-0.047425132,-0.060018524527549744,0.02814142405986786,-1.6891969442367554,1000.6682,
2021.05.22 15:20:21,6.0,24.0,30.24,-5.1,-28.5,-0.33759275,0.70631105,9.984126,-0.007989507,-0.002855795,-0.0028319713,-0.07058552652597427,0.033800072968006134,-1.6731847524642944,1000.67114,
2021.05.22 15:20:22,6.0,24.0,30.0,-5.22,-28.56,-0.28970724,0.62251145,9.871595,0.009725586,0.007528914,-0.013216681,-0.06295045465230942,0.02933913841843605,-1.6855040788650513,1000.67114,
2021.05.22 15:20:22,6.0,24.0,29.76,-4.8599997,-28.5,-0.31125572,0.63208854,10.022434,0.003616933,-0.004077526,-0.02237966,-0.06295368075370789,0.03104592114686966,-1.6743751764297485,1000.6809,
2021.05.22 15:20:22,6.0,24.0,29.46,-5.16,-27.66,-0.32801566,0.68715686,9.809344,-0.007378641,-0.0016340646,-0.026044851,-0.06989805400371552,0.03342664614319801,-1.6807301044464111,1000.6758,
2021.05.22 15:20:22,6.0,24.0,29.46,-5.46,-27.84,-0.38308397,0.6153286,10.134965,-0.0018808541,-0.013240504,-0.004664567,-0.06059584021568298,0.037780266255140305,-1.7003302574157715,1000.6758,
2021.05.22 15:20:22,6.0,24.0,29.82,-5.46,-28.26,-0.30167863,0.6177229,9.866806,-0.01654162,-0.01751656,-0.02237966,-0.062495432794094086,0.03056558407843113,-1.6955076456069946,1000.6731,
2021.05.22 15:20:22,6.0,24.0,30.119999,-5.7599998,-28.08,-0.2657645,0.61293435,9.929058,0.014612508,-4.1233405E-4,0.018548314,-0.061631109565496445,0.02675994485616684,-1.7052266597747803,1000.6658,
2021.05.22 15:20:22,6.0,24.0,29.939999,-5.7,-28.68,-0.24421602,0.6177229,9.972155,-0.010432967,-0.018127427,0.0112179285,-0.06184723600745201,0.024484902620315552,-1.7024904489517212,1000.6658,
2021.05.22 15:20:22,6.0,24.0,29.34,-5.64,-28.5,-0.18675344,0.6656084,9.941029,-0.009211237,-0.008353583,0.014883121,-0.066844142973423,0.018783919513225555,-1.6981366872787476,1000.666,
2021.05.22 15:20:22,6.0,24.0,28.8,-5.64,-27.84,-0.16520496,0.65842557,10.000886,-0.012265563,-0.0059101214,0.007552738,-0.0657329112291336,0.016517529264092445,-1.7030000686645508,1000.666,
2021.05.22 15:20:22,6.0,24.0,28.38,-5.7,-28.14,-0.23463893,0.6105401,9.921875,-0.008600371,-0.0016340646,-0.016271008,-0.0614401213824749,0.023644238710403442,-1.7113696336746216,1000.67017,
2021.05.22 15:20:22,6.0,24.0,28.32,-5.58,-27.779999,-0.3232271,0.5770202,10.07032,-0.014098159,-0.0022449298,-0.015049276,-0.05720711499452591,0.03208598867058754,-1.713232398033142,1000.67017,
2021.05.22 15:20:22,6.0,24.0,28.56,-5.46,-27.779999,-0.16520496,0.60335726,10.027223,-0.018985081,-0.008353583,-0.0028319713,-0.06009132042527199,0.016474153846502304,-1.703603744506836,1000.6719,
2021.05.22 15:20:22,6.0,24.0,28.68,-5.46,-28.08,-0.18914771,0.5889916,9.866806,-0.008600371,0.009972375,-0.0034428365,-0.059612564742565155,0.019167758524417877,-1.7031171321868896,1000.67505,
2021.05.22 15:20:22,6.0,24.0,28.56,-5.46,-28.38,-0.30167863,0.5458947,10.022434,-0.015319889,-0.012018774,-0.015049276,-0.054388921707868576,0.03009124845266342,-1.7093987464904785,1000.67505,
2021.05.22 15:20:22,6.0,24.0,28.08,-5.64,-28.74,-0.20590763,0.5650489,10.0439825,0.010947316,0.0014202617,-9.993755E-4,-0.056186433881521225,0.020497724413871765,-1.7147870063781738,1000.67334,
2021.05.22 15:20:22,6.0,24.0,28.32,-5.58,-28.98,-0.20111908,0.63208854,9.921875,-0.0031025845,-0.007742717,-0.007108028,-0.06360755860805511,0.020267494022846222,-1.7031208276748657,1000.6692,
2021.05.22 15:20:23,6.0,24.0,28.32,-5.7,-29.039999,-0.17717634,0.5961744,9.948212,0.015223373,0.00936151,-0.002221106,-0.05984674021601677,0.017807986587285995,-1.7109936475753784,1000.6692,
2021.05.22 15:20:23,6.0,24.0,28.98,-5.46,-28.68,-0.30167863,0.56744313,9.9889145,0.00911472,1.9853121E-4,-0.017492738,-0.056720491498708725,0.030192164704203606,-1.7043858766555786,1000.6748,
2021.05.22 15:20:23,6.0,24.0,29.699999,-5.52,-28.32,-0.22985038,0.6153286,9.897932,0.00789299,0.005085453,-0.009551489,-0.06207079440355301,0.023217886686325073,-1.6978986263275146,1000.6748,
2021.05.22 15:20:23,6.0,24.0,29.699999,-5.4,-28.08,-0.26337022,0.5865973,9.8548355,0.009725586,0.0044745877,-0.007108028,-0.059432487934827805,0.026718612760305405,-1.6971461772918701,1000.67944,
2021.05.22 15:20:23,6.0,24.0,30.119999,-5.16,-27.84,-0.20351335,0.55786604,9.964972,-0.0031025845,-0.0052992557,-0.0028319713,-0.05591268837451935,0.02042003534734249,-1.6907811164855957,1000.67944,
2021.05.22 15:20:23,6.0,24.0,29.76,-5.22,-27.96,-0.20590763,0.5818088,9.873989,-0.0018808541,0.00936151,-0.0040537016,-0.05884256586432457,0.020850516855716705,-1.6912415027618408,1000.6819,
2021.05.22 15:20:23,6.0,24.0,29.939999,-5.3399997,-28.619999,-0.2370332,0.6081458,10.173274,-0.022039408,-0.012018774,-0.008940623,-0.05969155207276344,0.023295382037758827,-1.6925880908966064,1000.6892,
2021.05.22 15:20:23,6.0,24.0,30.0,-5.58,-29.039999,-0.15802214,0.65124273,9.909904,-0.028758924,-0.0059101214,-0.0028319713,-0.06561367958784103,0.015944529324769974,-1.6931895017623901,1000.6892,
2021.05.22 15:20:23,6.0,24.0,29.64,-5.7599998,-28.92,-0.27055305,0.5985687,9.993703,-0.0018808541,0.005085453,-0.0040537016,-0.05980125814676285,0.027065742760896683,-1.7076973915100098,1000.6892,
2021.05.22 15:20:23,6.0,24.0,30.119999,-5.7599998,-28.74,-0.33759275,0.59378016,9.869201,-0.014709025,-0.0052992557,-0.025433986,-0.060057491064071655,0.034193363040685654,-1.7060850858688354,1000.6892,
2021.05.22 15:20:23,6.0,24.0,29.519999,-5.4,-27.96,-0.23942748,0.6153286,10.0368,0.00911472,0.009972375,0.009996199,-0.06121324002742767,0.023850437253713608,-1.6962178945541382,1000.6843,
2021.05.22 15:20:23,6.0,24.0,29.4,-5.16,-27.24,-0.16281068,0.65124273,9.931452,-0.009822102,-0.008353583,8.332202E-4,-0.06547124683856964,0.016391973942518234,-1.685507893562317,1000.67944,
2021.05.22 15:20:23,6.0,24.0,29.519999,-4.62,-27.42,-0.31125572,0.6057515,9.945818,0.012779912,0.013637567,0.0014440855,-0.06080031394958496,0.03128492459654808,-1.6713382005691528,1000.67944,
2021.05.22 15:20:23,6.0,24.0,28.98,-4.56,-27.3,-0.3040729,0.5794145,9.945818,-0.0024917193,0.008139779,-0.020547064,-0.05816420912742615,0.030563419684767723,-1.6740303039550781,1000.66943,
2021.05.22 15:20:23,6.0,24.0,29.099998,-4.7999997,-27.359999,-0.2657645,0.55307746,10.010463,-0.009822102,0.030741792,-0.012605815,-0.05517442151904106,0.026542438194155693,-1.6845978498458862,1000.66943,
2021.05.22 15:20:23,6.0,24.0,28.56,-4.74,-27.66,-0.35674694,0.5027977,9.90272,-0.020817677,0.079000145,-0.034596965,-0.05069730430841446,0.03600957617163658,-1.6893500089645386,1000.667,
2021.05.22 15:20:23,6.0,24.0,28.619999,-4.92,-27.779999,-0.3974496,0.66800267,10.017646,0.0030060678,0.0692263,-0.017492738,-0.06653183698654175,0.03965415433049202,-1.6790499687194824,1000.67285,
2021.05.22 15:20:24,6.0,24.0,28.619999,-5.16,-27.72,-0.38547826,0.6153286,9.8548355,0.020110294,0.039293908,-0.030320907,-0.062310777604579926,0.039095714688301086,-1.6921504735946655,1000.67285,
2021.05.22 15:20:24,6.0,24.0,28.859999,-4.92,-27.539999,-0.4956149,0.5985687,9.895537,0.006671259,0.040515635,-0.03887302,-0.060339685529470444,0.05004287138581276,-1.6856170892715454,1000.677,
2021.05.22 15:20:24,6.0,24.0,29.279999,-5.1,-27.48,-0.38068968,0.5818088,10.07032,-0.04097623,-0.010797042,-0.043759942,-0.057669349014759064,0.03778514638543129,-1.6922683715820312,1000.677,
2021.05.22 15:20:24,6.0,24.0,28.98,-5.04,-27.24,-0.5219519,0.50040346,9.8237095,-0.06907603,0.035017848,-0.044981673,-0.05082279071211815,0.0530819445848465,-1.7000465393066406,1000.678,
2021.05.22 15:20:24,6.0,24.0,29.4,-4.74,-27.66,-0.54828894,0.43815228,10.077502,-0.0696869,0.008139779,-0.030931773,-0.04338680952787399,0.054353635758161545,-1.6946773529052734,1000.68115,
2021.05.22 15:20:24,6.0,24.0,29.58,-4.56,-27.84,-0.3974496,0.5243462,9.957788,-0.04952834,0.024022276,-0.026655717,-0.0525665283203125,0.03989226743578911,-1.6769168376922607,1000.68115,
2021.05.22 15:20:24,6.0,24.0,29.699999,-4.7999997,-28.32,-0.34956414,0.5698374,10.041589,-0.023261137,0.034406986,-0.0034428365,-0.05665269121527672,0.034797582775354385,-1.6794803142547607,1000.67554,
2021.05.22 15:20:24,6.0,24.0,30.179998,-4.7999997,-28.26,-0.48843205,0.52913475,9.996098,-0.0061569107,0.023411412,-0.014438411,-0.05282187461853027,0.04882344231009483,-1.68245530128479,1000.67554,
2021.05.22 15:20:24,6.0,24.0,29.88,-4.62,-27.779999,-0.37829542,0.3519584,10.391152,0.01705597,0.040515635,-0.060253303,-0.033835623413324356,0.03638945892453194,-1.6963536739349365,1000.6704,
2021.05.22 15:20:24,6.0,24.0,29.64,-4.62,-27.779999,-0.6201172,0.36392978,10.288198,-0.12832996,-0.12258538,0.046037246,-0.03529477119445801,0.06020177900791168,-1.6981948614120483,1000.6655,
