Time,X-cord,Y-cord,Mag_x,Mag_y,Mag_z,Acc_x,Acc_y,Acc_z,Gyro_x,Gyro_y,Gyro_z,Orn_x,Orn_y,Orn_z,Pressure,
2021.05.22 15:29:55,56.0,24.0,33.36,3.48,-23.82,-0.16041641,0.24900457,10.046377,-0.022039408,0.18040378,-0.12683761,-0.024777276441454887,0.015966229140758514,-1.4476282596588135,1000.58276,
2021.05.22 15:29:55,56.0,24.0,33.36,3.48,-24.119999,-0.5698374,0.18196489,10.060742,-0.078849874,-0.115255,0.008774469,-0.01805572211742401,0.05657924339175224,-1.44781494140625,1000.58276,
2021.05.22 15:29:55,56.0,24.0,33.719997,3.6599998,-23.82,-0.54828894,0.16041641,9.984126,-0.017152485,-0.0150731,-0.018103601,-0.016041595488786697,0.05486096069216728,-1.4456712007522583,1000.5864,
2021.05.22 15:29:55,56.0,24.0,34.38,3.54,-23.519999,-0.7901107,0.1699935,9.7135725,-0.0061569107,0.059452463,-0.011384085,-0.017441237345337868,0.0811622142791748,-1.4479044675827026,1000.5864,
2021.05.22 15:29:55,56.0,24.0,34.26,4.02,-22.98,-0.84996754,0.105348095,9.8787775,0.02866241,0.015470162,0.010607065,-0.01062442734837532,0.08582837134599686,-1.4380708932876587,1000.5813,
2021.05.22 15:29:55,56.0,24.0,34.2,3.6599998,-22.98,-0.26337022,0.37829542,10.917893,-0.04341969,-0.086544335,0.07658051,-0.03462520241737366,0.024118127301335335,-1.4383361339569092,1000.5769,
2021.05.22 15:29:55,56.0,24.0,34.14,3.6,-23.34,-0.69673395,0.46927786,9.771035,0.08302941,-0.0065209866,0.09551734,-0.04786921665072441,0.07118556648492813,-1.4229010343551636,1000.5769,
2021.05.22 15:29:55,56.0,24.0,34.32,3.72,-23.519999,-0.67757976,0.090982445,9.893144,0.124568254,-0.028512135,0.09124128,-0.009174763225018978,0.06838303804397583,-1.4501373767852783,1000.5842,
2021.05.22 15:29:55,56.0,24.0,34.44,3.36,-23.46,-0.53392327,-0.14365649,10.13736,0.13556382,-0.060277127,0.12483887,0.014150438830256462,0.05262024700641632,-1.4804915189743042,1000.584,
2021.05.22 15:29:55,56.0,24.0,34.44,3.54,-23.34,-0.33759275,-0.13168511,9.893144,0.14594853,-0.052946746,0.13033666,0.013302217237651348,0.034110672771930695,-1.4755058288574219,1000.584,
2021.05.22 15:29:55,56.0,24.0,34.44,3.3,-23.16,-0.18435916,0.09577099,9.591465,0.20398073,0.033185255,0.17309721,-0.009982846677303314,0.019218800589442253,-1.467087745666504,1000.583,
2021.05.22 15:29:55,56.0,24.0,34.5,3.12,-23.699999,-0.14844504,0.339987,9.500483,0.19359602,0.039904773,0.20302962,-0.035766661167144775,0.01562372874468565,-1.4545577764511108,1000.583,
2021.05.22 15:29:55,56.0,24.0,34.62,3.0,-24.359999,-0.05506832,0.5794145,10.079897,0.03904712,0.02218968,0.11934108,-0.05741814151406288,0.005463128909468651,-1.4437862634658813,1000.5845,
2021.05.22 15:29:56,56.0,24.0,34.2,2.76,-24.66,0.0047885496,0.8236305,9.804555,-0.03731104,-0.02790127,0.07658051,-0.08380810171365738,-4.884004592895508E-4,-1.4310262203216553,1000.5852,
2021.05.22 15:29:56,56.0,24.0,34.14,2.3999999,-25.019999,-0.16520496,0.82123625,9.974549,-0.020206813,-0.0052992557,0.033819944,-0.08213666826486588,0.016561133787035942,-1.438401222229004,1000.5852,
2021.05.22 15:29:56,56.0,24.0,33.899998,2.04,-25.019999,-0.4285752,0.77574503,10.508472,-0.06724344,-0.065164044,-0.01566014,-0.07362627238035202,0.04076118394732475,-1.4503846168518066,1000.58936,
2021.05.22 15:29:56,56.0,24.0,33.66,1.86,-24.539999,-0.52913475,0.7733508,10.168485,-0.03608931,-0.048670687,-0.0119949505,-0.07580538839101791,0.0519898422062397,-1.4525140523910522,1000.58936,
2021.05.22 15:29:56,56.0,24.0,33.36,1.68,-24.18,-0.5913859,0.50998056,10.005674,0.015223373,-0.03584252,0.035652537,-0.05083650350570679,0.059036366641521454,-1.4768187999725342,1000.5891,
2021.05.22 15:29:56,56.0,24.0,33.48,1.86,-24.0,-0.102953814,0.3328042,10.462981,0.01705597,-0.07188357,0.0839109,-0.03179552033543587,0.009839499369263649,-1.4917709827423096,1000.5891,
2021.05.22 15:29:56,56.0,24.0,33.12,1.74,-24.18,-0.18435916,0.45491222,9.991309,-0.0018808541,-0.07677049,0.07841311,-0.04549163579940796,0.01844985969364643,-1.483307957649231,1000.5884,
2021.05.22 15:29:56,56.0,24.0,33.059998,1.1999999,-24.3,-0.12450229,0.79250497,8.561927,0.1044097,0.11748466,-0.009551489,-0.09228881448507309,0.014540361240506172,-1.4648323059082031,1000.5818,
2021.05.22 15:29:56,56.0,24.0,33.42,1.3199999,-24.24,-0.10774237,0.35914123,9.840469,0.1044097,0.094882645,-0.008329758,-0.03647797554731369,0.010948467999696732,-1.5040398836135864,1000.5818,
2021.05.22 15:29:56,56.0,24.0,33.6,1.02,-24.24,-0.3304099,0.29689008,10.443827,-0.11305833,-0.12808317,-0.08468791,-0.02840546891093254,0.03162631765007973,-1.5178886651992798,1000.58496,
2021.05.22 15:29:56,56.0,24.0,34.02,1.5,-24.539999,-0.12929083,0.8834874,9.153313,-0.08862372,-0.093874715,-0.032153502,-0.0962134376168251,0.014124092645943165,-1.45558500289917,1000.58496,
2021.05.22 15:29:56,56.0,24.0,34.32,2.22,-25.14,-0.6392714,0.6943397,10.199611,-0.035478443,0.018524488,-0.0058862977,-0.06783754378557205,0.06259418278932571,-1.447158932685852,1000.58765,
2021.05.22 15:29:56,56.0,24.0,34.14,1.74,-25.439999,-0.68715686,0.59378016,10.774237,-0.12832996,0.024633141,-0.08407705,-0.05494401231408119,0.06369151175022125,-1.4709510803222656,1000.5847,
2021.05.22 15:29:56,56.0,24.0,34.02,1.9799999,-25.14,-0.0670397,0.68715686,10.312141,-0.05258267,0.07044803,0.0014440855,-0.06653594225645065,0.006500953808426857,-1.463057518005371,1000.5847,
2021.05.22 15:29:56,56.0,24.0,33.54,1.8,-24.84,-0.047885496,0.53871185,9.871595,0.09219239,0.039293908,0.04848071,-0.054517198354005814,0.00485079875215888,-1.476528525352478,1000.5808,
2021.05.22 15:29:56,56.0,24.0,33.66,1.3199999,-24.18,-0.26097596,0.29210153,9.826104,0.12334652,0.00936151,0.01243966,-0.029707875102758408,0.026553211733698845,-1.508345603942871,1000.5808,
2021.05.22 15:29:57,56.0,24.0,33.719997,2.04,-23.82,-0.52674043,0.19393626,9.627379,0.057373073,0.018524488,-0.07247061,-0.0201114472001791,0.054658256471157074,-1.4920263290405273,1000.5803,
2021.05.22 15:29:57,56.0,24.0,33.66,1.9799999,-23.699999,-0.40463245,0.48843205,9.505271,0.026218947,0.043569967,-0.02726658,-0.051293861120939255,0.04254358634352684,-1.4710465669631958,1000.58325,
2021.05.22 15:29:57,56.0,24.0,34.2,2.1,-23.699999,-0.31843856,0.6296943,10.075109,-0.07701728,-0.0046883905,0.020380909,-0.06238773837685585,0.03159594535827637,-1.4623479843139648,1000.58325,
2021.05.22 15:29:57,56.0,24.0,33.96,2.22,-23.46,-0.19633053,0.6464542,10.688043,-0.08923458,-0.034009922,0.027100425,-0.060400113463401794,0.018367111682891846,-1.461769938468933,1000.58813,
2021.05.22 15:29:57,56.0,24.0,33.84,1.68,-24.0,-0.11492519,0.65124273,10.302565,-0.056858726,-0.028512135,0.064363204,-0.06312379986047745,0.011154544539749622,-1.4753376245498657,1000.58813,
2021.05.22 15:29:57,56.0,24.0,33.84,1.4399999,-24.119999,-0.098165266,0.5650489,9.737515,0.02866241,-0.013240504,0.07658051,-0.05796009674668312,0.010080799460411072,-1.4860327243804932,1000.5923,
2021.05.22 15:29:57,56.0,24.0,33.42,1.26,-24.18,-0.44054657,0.34716985,9.522031,0.049431827,-0.021181753,-0.01566014,-0.03640459105372429,0.04623305797576904,-1.5028893947601318,1000.58105,
2021.05.22 15:29:57,56.0,24.0,33.239998,1.02,-24.48,-0.70631105,0.22745611,9.6585045,0.018888565,-0.0065209866,-0.06636196,-0.0234827920794487,0.07299847155809402,-1.5182427167892456,1000.58105,
2021.05.22 15:29:57,56.0,24.0,33.78,1.26,-24.48,-0.6057515,0.30167863,9.981731,-0.05746959,0.035017848,-0.045592535,-0.030158428475260735,0.06061168387532234,-1.507041335105896,1000.5796,
2021.05.22 15:29:57,56.0,24.0,34.14,1.26,-24.6,-0.05027977,0.49082634,10.08708,-0.07640641,0.031352658,0.027100425,-0.048619963228702545,0.004984530154615641,-1.498536467552185,1000.5796,
2021.05.22 15:29:57,56.0,24.0,34.079998,1.38,-24.72,0.17717634,0.29210153,10.405519,-0.07029776,-0.016905695,0.07963484,-0.02806035429239273,-0.017025506123900414,-1.5112470388412476,1000.57837,
2021.05.22 15:29:57,56.0,24.0,34.86,1.74,-24.539999,0.14844504,0.4860378,9.680053,-0.051971804,-0.013240504,0.042372055,-0.050162218511104584,-0.015333945862948895,-1.487505316734314,1000.5703,
2021.05.22 15:29:57,56.0,24.0,34.8,1.62,-24.779999,-0.17238778,0.5027977,9.684841,-0.007378641,0.030130928,-0.037040424,-0.05186118185520172,0.01779787428677082,-1.4855891466140747,1000.5703,
2021.05.22 15:29:57,56.0,24.0,34.26,1.62,-24.84,-0.68715686,0.30646718,10.269045,-0.046474017,-0.0016340646,-0.13111368,-0.02976839803159237,0.06681574881076813,-1.4963746070861816,1000.58105,
2021.05.22 15:29:57,56.0,24.0,34.559998,1.3199999,-24.359999,-0.6081458,0.18675344,10.355239,-0.038532767,0.002031127,-0.13477887,-0.01800171658396721,0.05866093933582306,-1.5166047811508179,1000.58105,
2021.05.22 15:29:57,56.0,24.0,34.14,1.56,-24.539999,-0.28731298,0.339987,9.929058,0.022553755,0.03746131,-0.022990525,-0.03421393409371376,0.02892850898206234,-1.4981459379196167,1000.57935,
2021.05.22 15:29:57,56.0,24.0,33.84,1.9799999,-24.24,-0.2466103,0.32083282,9.771035,0.038436253,0.021578815,-0.0040537016,-0.03281285613775253,0.02523355558514595,-1.4866447448730469,1000.57764,
2021.05.22 15:29:58,56.0,24.0,34.2,2.46,-23.88,-0.3304099,0.3615355,9.984126,0.012779912,0.0032528574,-0.044370808,-0.036175426095724106,0.03308144956827164,-1.4704349040985107,1000.57764,
2021.05.22 15:29:58,56.0,24.0,34.02,2.76,-23.88,-0.48843205,0.37590113,10.055954,0.005449529,0.0087506445,-0.058420707,-0.0373196005821228,0.04853328317403793,-1.4582504034042358,1000.57886,
2021.05.22 15:29:58,56.0,24.0,33.78,2.9399998,-22.92,-0.5027977,0.44294083,10.360027,0.009725586,-0.008353583,-0.016271008,-0.0426785983145237,0.04849442094564438,-1.4493005275726318,1000.57886,
2021.05.22 15:29:58,56.0,24.0,33.18,2.82,-22.26,-0.37350687,0.50998056,10.096657,0.069590375,-0.051725015,0.0063310075,-0.050432514399290085,0.03697626292705536,-1.4477256536483765,1000.5779,
2021.05.22 15:29:58,56.0,24.0,32.7,3.12,-21.6,-0.22506183,0.66800267,9.481328,0.1990938,-0.024846943,0.069860995,-0.07031857222318649,0.02373291738331318,-1.4262467622756958,1000.57324,
2021.05.22 15:29:58,56.0,24.0,32.1,3.54,-21.18,-0.4070267,0.56265455,9.799767,0.15266806,0.011194105,0.03870687,-0.05730283632874489,0.04151047021150589,-1.4174124002456665,1000.57324,
2021.05.22 15:29:58,56.0,24.0,31.679998,3.3,-22.02,-0.2466103,0.6105401,9.991309,-0.0379219,0.013026701,0.024046099,-0.06101268529891968,0.024677472189068794,-1.4214435815811157,1000.5825,
2021.05.22 15:29:58,56.0,24.0,31.56,3.24,-22.32,-0.25379312,0.5770202,10.0200405,-0.054415263,0.002031127,0.07780224,-0.05750468373298645,0.025323137640953064,-1.4245824813842773,1000.5825,
2021.05.22 15:29:58,56.0,24.0,31.859999,3.0,-22.859999,-0.2777359,0.505192,10.158908,-0.0031025845,-0.045005497,0.07352618,-0.04966950789093971,0.02733234129846096,-1.4378995895385742,1000.5791,
2021.05.22 15:29:58,56.0,24.0,31.92,2.9399998,-22.74,-0.18435916,0.66321415,9.787795,-0.006767776,-0.05233588,0.077191375,-0.06764392554759979,0.01883339136838913,-1.4285049438476562,1000.5879,
2021.05.22 15:29:58,56.0,24.0,32.34,3.12,-22.56,-0.06943397,0.66321415,10.022434,0.026829813,-0.021181753,0.118119344,-0.06607504934072495,0.006927744019776583,-1.42829167842865,1000.5879,
2021.05.22 15:29:58,56.0,24.0,32.52,3.0,-22.26,-0.047885496,0.5889916,10.13736,-0.01654162,-0.051725015,0.0802457,-0.058035191148519516,0.004723630379885435,-1.4390617609024048,1000.5874,
2021.05.22 15:29:58,56.0,24.0,31.8,3.12,-22.439999,-0.0023942748,0.5985687,9.771035,0.031105869,0.0056963186,0.050313305,-0.061183035373687744,2.4503798340447247E-4,-1.4306055307388306,1000.5874,
2021.05.22 15:29:58,56.0,24.0,31.679998,2.7,-22.98,-0.16520496,0.5147691,9.924269,0.00911472,-0.0065209866,0.032598212,-0.05181610956788063,0.016645025461912155,-1.446375846862793,1000.5774,
2021.05.22 15:29:58,56.0,24.0,30.96,2.04,-23.58,-0.038308397,0.6464542,9.938635,-0.017152485,-0.010186179,0.026489561,-0.06495258957147598,0.003854474052786827,-1.4555314779281616,1000.58276,
2021.05.22 15:29:58,56.0,24.0,30.84,1.92,-24.24,-0.14365649,0.62251145,9.98652,-0.014709025,-0.010797042,0.019159177,-0.06224820017814636,0.01438404805958271,-1.4580637216567993,1000.58276,
2021.05.22 15:29:59,56.0,24.0,31.08,1.4399999,-24.06,-0.24421602,0.5770202,10.055954,-0.020817677,0.020357084,-0.015049276,-0.05730123817920685,0.024280942976474762,-1.4773120880126953,1000.58374,
2021.05.22 15:29:59,56.0,24.0,31.14,1.74,-23.64,-0.17957062,0.54828894,9.857229,-0.0024917193,-0.0010231993,2.2235495E-4,-0.05555657297372818,0.018215134739875793,-1.4707778692245483,1000.5857,
2021.05.22 15:29:59,56.0,24.0,31.14,2.34,-22.92,-0.1987248,0.5363176,9.888355,0.0042277984,1.9853121E-4,0.008774469,-0.05417328327894211,0.020094146952033043,-1.4536030292510986,1000.5857,
2021.05.22 15:29:59,56.0,24.0,31.439999,2.3999999,-22.38,-0.17238778,0.59378016,9.96976,-0.031813253,0.011804971,-0.0028319713,-0.05947897583246231,0.01728934235870838,-1.4503382444381714,1000.5874,
2021.05.22 15:29:59,56.0,24.0,31.5,2.6399999,-22.08,-0.09337672,0.60335726,10.082292,-0.02936979,-0.0010231993,0.017937446,-0.05976942181587219,0.009261192753911018,-1.4445600509643555,1000.5874,
2021.05.22 15:29:59,56.0,24.0,31.38,2.22,-22.26,-0.07901107,0.54350036,9.931452,0.014612508,0.0026419922,0.0063310075,-0.054668910801410675,0.00795547291636467,-1.4607808589935303,1000.57983,
2021.05.22 15:29:59,56.0,24.0,31.8,1.4399999,-22.68,-0.14844504,0.5027977,9.955395,0.023775486,-0.015683964,-0.0016102408,-0.05045657604932785,0.014909910038113594,-1.4881508350372314,1000.57983,
2021.05.22 15:29:59,56.0,24.0,31.679998,1.56,-22.619999,-0.2466103,0.5458947,9.914692,0.012779912,0.021578815,-0.024212256,-0.054986659437417984,0.024868091568350792,-1.479634404182434,1000.5735,
2021.05.22 15:29:59,56.0,24.0,31.92,1.62,-22.74,-0.23224466,0.56744313,10.039194,-6.591236E-4,0.019135352,-0.016881872,-0.05644763261079788,0.023129669949412346,-1.4773426055908203,1000.57764,
2021.05.22 15:29:59,56.0,24.0,32.399998,1.92,-22.68,-0.17717634,0.5985687,10.005674,-0.004324315,0.018524488,-0.005275432,-0.05974236875772476,0.017705734819173813,-1.4678661823272705,1000.57764,
2021.05.22 15:29:59,56.0,24.0,32.04,2.7,-22.26,-0.21548474,0.5913859,9.976943,0.008503855,0.010583241,-0.004664567,-0.05919221043586731,0.02159491553902626,-1.4430488348007202,1000.5786,
2021.05.22 15:29:59,56.0,24.0,32.16,2.6399999,-22.32,-0.23463893,0.5363176,9.945818,-4.8258353E-5,0.011804971,-0.020547064,-0.05385679751634598,0.023587344214320183,-1.4487742185592651,1000.5786,
2021.05.22 15:29:59,56.0,24.0,31.859999,2.58,-22.14,-0.2657645,0.52674043,9.869201,-0.0031025845,0.018524488,-0.018714469,-0.05330226942896843,0.02692217007279396,-1.4497634172439575,1000.57324,
2021.05.22 15:29:59,56.0,24.0,31.56,2.58,-22.02,-0.24900457,0.52674043,9.981731,-0.020206813,0.0056963186,-0.005275432,-0.052705176174640656,0.02494085766375065,-1.449541687965393,1000.5803,
2021.05.22 15:29:59,56.0,24.0,31.679998,2.3999999,-21.84,-0.20590763,0.52674043,9.876384,-0.033645846,0.005085453,-0.008329758,-0.05327129736542702,0.020845463499426842,-1.4561620950698853,1000.5803,
2021.05.22 15:29:59,56.0,24.0,31.38,2.28,-22.02,-0.2944958,0.5243462,10.1541195,-0.045252286,-0.018127427,-0.010773219,-0.05157129466533661,0.02899446338415146,-1.4587180614471436,1000.58276,
2021.05.22 15:29:59,56.0,24.0,31.38,2.34,-22.199999,-0.07901107,0.53871185,9.833286,-0.04097623,-0.009575313,-0.008329758,-0.05472804605960846,0.008034889586269855,-1.457041621208191,1000.5823,
2021.05.22 15:30:00,56.0,24.0,31.32,2.34,-22.199999,-0.38547826,0.39266106,9.962578,-0.019595945,-0.008353583,-0.0119949505,-0.039363786578178406,0.03867333009839058,-1.4641386270523071,1000.5823,
2021.05.22 15:30:00,56.0,24.0,31.619999,2.28,-22.5,-0.33519846,0.4166038,9.850046,-0.029980656,0.0038637226,-0.03642956,-0.042244989424943924,0.034017015248537064,-1.4650496244430542,1000.5835,
2021.05.22 15:30:00,56.0,24.0,31.98,2.34,-22.38,-0.22985038,0.4668836,10.130177,-0.041587092,-0.016905695,0.027100425,-0.04604397341609001,0.022685779258608818,-1.4631309509277344,1000.5835,
2021.05.22 15:30:00,56.0,24.0,31.8,2.1599998,-22.38,-0.06464542,0.531529,9.984126,-0.038532767,0.0014202617,0.030765617,-0.05318608507514,0.006474729161709547,-1.4651206731796265,1000.5852,
2021.05.22 15:30:00,56.0,24.0,31.8,2.1,-22.32,-0.16759923,0.43096948,10.101445,-0.010432967,0.0056963186,0.010607065,-0.04263241961598396,0.016590086743235588,-1.4733595848083496,1000.5852,
2021.05.22 15:30:00,56.0,24.0,31.8,2.04,-22.14,-0.15562786,0.3998439,9.895537,0.014001642,0.006918049,-0.011384085,-0.04037953168153763,0.01572577841579914,-1.4771956205368042,1000.5891,
2021.05.22 15:30:00,56.0,24.0,31.98,2.6399999,-22.199999,-0.22027329,0.37350687,10.060742,0.012169046,-0.014462234,-0.010162354,-0.03709925338625908,0.02189083956182003,-1.4604880809783936,1000.5969,
2021.05.22 15:30:00,56.0,24.0,32.28,3.06,-22.02,-0.2083019,0.43575802,9.842864,0.01705597,-4.1233405E-4,-0.013216681,-0.04423268511891365,0.021159574389457703,-1.4438166618347168,1000.5969,
2021.05.22 15:30:00,56.0,24.0,32.1,3.06,-22.38,-0.25139886,0.43575802,9.967366,0.01705597,-0.002855795,-0.02726658,-0.04367677867412567,0.025216849520802498,-1.4424269199371338,1000.5945,
2021.05.22 15:30:00,56.0,24.0,31.8,3.4199998,-22.92,-0.24182175,0.46209505,9.933846,0.00911472,-0.0034666602,-0.019325333,-0.046469978988170624,0.024338407441973686,-1.4271795749664307,1000.59644,
2021.05.22 15:30:00,56.0,24.0,31.439999,2.82,-22.8,-0.22266756,0.45012367,9.924269,0.0011734721,-0.012629638,-0.018103601,-0.04531340301036835,0.022432908415794373,-1.445915937423706,1000.59644,
2021.05.22 15:30:00,56.0,24.0,31.32,2.46,-22.74,-0.21069619,0.44294083,9.953,0.0060603945,0.014859296,-0.0058862977,-0.044463954865932465,0.02116595208644867,-1.4578380584716797,1000.5928,
2021.05.22 15:30:00,56.0,24.0,31.619999,2.46,-22.619999,-0.28970724,0.4166038,9.979338,0.003616933,0.006918049,-0.010162354,-0.04170486330986023,0.02902255579829216,-1.4601426124572754,1000.5928,
2021.05.22 15:30:00,56.0,24.0,31.8,2.3999999,-22.38,-0.23224466,0.48124924,9.917087,0.0042277984,-0.0016340646,0.0063310075,-0.0484759695827961,0.023414358496665955,-1.4587719440460205,1000.59937,
2021.05.22 15:30:00,56.0,24.0,31.74,2.82,-22.26,-0.29210153,0.44772938,10.1206,-0.007989507,-0.004077526,8.332202E-4,-0.04419220611453056,0.028854066506028175,-1.4478633403778076,1000.5935,
2021.05.22 15:30:00,56.0,24.0,31.679998,3.24,-22.26,-0.21548474,0.47167215,9.929058,0.005449529,0.015470162,0.01366139,-0.04745737090706825,0.021699029952287674,-1.4330157041549683,1000.5935,
2021.05.22 15:30:00,56.0,24.0,31.38,2.82,-21.96,-0.25139886,0.48124924,10.027223,0.0011734721,-0.0016340646,0.01366139,-0.047942426055669785,0.025066383183002472,-1.4447144269943237,1000.5908,
2021.05.22 15:30:01,56.0,24.0,31.32,2.6399999,-22.02,-0.30886146,0.43815228,10.017646,-6.591236E-4,1.9853121E-4,0.015493986,-0.043689459562301636,0.03082197718322277,-1.4524705410003662,1000.5908,
2021.05.22 15:30:01,56.0,24.0,31.08,2.52,-21.6,-0.2466103,0.4740664,9.941029,-0.0024917193,0.0056963186,0.017937446,-0.047637131065130234,0.024802235886454582,-1.4540178775787354,1000.5874,
2021.05.22 15:30:01,56.0,24.0,31.199999,2.04,-21.48,-0.25379312,0.45970076,9.912297,0.005449529,0.0032528574,0.024656964,-0.04632844403386116,0.025598272681236267,-1.4709579944610596,1000.5867,
2021.05.22 15:30:01,56.0,24.0,31.56,2.22,-21.3,-0.2466103,0.45491222,9.943423,-4.8258353E-5,0.0087506445,0.026489561,-0.04570414498448372,0.024796264246106148,-1.4671694040298462,1000.5867,
2021.05.22 15:30:01,56.0,24.0,31.26,2.34,-21.24,-0.27055305,0.4764607,10.144543,-0.022039408,-4.1233405E-4,0.025878694,-0.04691604897379875,0.026663493365049362,-1.4613269567489624,1000.58887,
2021.05.22 15:30:01,56.0,24.0,31.74,2.22,-21.6,-0.105348095,0.4956149,9.941029,-0.011654698,-0.0034666602,0.025878694,-0.049811456352472305,0.010596906766295433,-1.4661502838134766,1000.58887,
2021.05.22 15:30:01,56.0,24.0,31.859999,2.22,-21.359999,-0.14605077,0.51955765,9.859624,0.00911472,0.008139779,0.03443081,-0.05264103040099144,0.014811933040618896,-1.4644924402236938,1000.5913,
2021.05.22 15:30:01,56.0,24.0,31.38,2.3999999,-21.3,-0.31365,0.45251793,9.885961,-0.004324315,0.005085453,8.332202E-4,-0.04571889713406563,0.03171617537736893,-1.4599430561065674,1000.5913,
2021.05.22 15:30:01,56.0,24.0,31.56,2.1599998,-21.6,-0.25139886,0.4740664,10.10384,0.0023952026,0.0026419922,0.021602638,-0.04687055945396423,0.024876384064555168,-1.4677820205688477,1000.5867,
2021.05.22 15:30:01,56.0,24.0,31.92,2.3999999,-21.6,-0.15562786,0.505192,9.809344,0.009725586,-0.0010231993,0.023435233,-0.05144916847348213,0.01586393639445305,-1.4593448638916016,1000.5896,
2021.05.22 15:30:01,56.0,24.0,31.8,2.6399999,-21.96,-0.21069619,0.45970076,9.9889145,0.003616933,-0.0034666602,0.009385334,-0.04597843065857887,0.02108987420797348,-1.4539622068405151,1000.5896,
2021.05.22 15:30:01,56.0,24.0,32.04,2.76,-22.199999,-0.16759923,0.4644893,9.972155,0.0072821244,-0.007742717,0.0026658159,-0.04653842747211456,0.016805138438940048,-1.4508941173553467,1000.5867,
2021.05.22 15:30:01,56.0,24.0,32.28,3.24,-21.42,-0.19154198,0.48843205,9.976943,0.010947316,-0.014462234,0.0020549507,-0.04890803247690201,0.019196106120944023,-1.4362399578094482,1000.5867,
2021.05.22 15:30:01,56.0,24.0,31.74,2.6399999,-20.82,-0.15323359,0.4668836,9.90272,0.020110294,-0.0150731,-0.0028319713,-0.047106485813856125,0.015472653321921825,-1.4554243087768555,1000.5867,
2021.05.22 15:30:01,56.0,24.0,31.8,2.3999999,-20.64,-0.25379312,0.43815228,9.881172,0.0048386636,-0.01751656,-0.006497163,-0.04429851844906807,0.02567886933684349,-1.4641149044036865,1000.57446,
2021.05.22 15:30:01,56.0,24.0,32.34,2.58,-20.4,-0.18675344,0.45970076,9.895537,-0.0018808541,-0.015683964,-0.011384085,-0.046413734555244446,0.01887025125324726,-1.4600790739059448,1000.57446,
2021.05.22 15:30:02,56.0,24.0,31.98,2.76,-20.939999,-0.1987248,0.4860378,10.065532,-0.011654698,-0.012629638,-0.008329758,-0.048240482807159424,0.01974053494632244,-1.4510692358016968,1000.57715,
2021.05.22 15:30:02,56.0,24.0,31.859999,3.36,-21.48,-0.12450229,0.4764607,9.895537,0.0042277984,-0.012018774,0.0020549507,-0.048108089715242386,0.012580995447933674,-1.432133436203003,1000.57715,
2021.05.22 15:30:02,56.0,24.0,31.8,3.54,-21.96,-0.2561874,0.41420954,10.063137,-0.008600371,-0.007742717,-0.016271008,-0.04112454131245613,0.02545250952243805,-1.4285452365875244,1000.57275,
2021.05.22 15:30:02,56.0,24.0,31.14,3.1799998,-22.32,-0.11492519,0.5027977,9.876384,-0.0024917193,0.006918049,-0.0016102408,-0.05086173862218857,0.011635838076472282,-1.4315088987350464,1000.5757,
2021.05.22 15:30:02,56.0,24.0,31.08,2.8799999,-22.199999,-0.13168511,0.5123748,9.996098,-0.024482869,0.0026419922,-0.01566014,-0.05120822787284851,0.013172890059649944,-1.4405193328857422,1000.5757,
2021.05.22 15:30:02,56.0,24.0,31.14,2.58,-22.32,-0.20590763,0.4860378,9.960183,0.0011734721,0.021578815,-0.015049276,-0.04874899983406067,0.020670132711529732,-1.4508830308914185,1000.57764,
2021.05.22 15:30:02,56.0,24.0,30.96,2.58,-22.199999,-0.25858167,0.43575802,9.979338,0.0017843375,0.006918049,-0.03276437,-0.043623682111501694,0.02590591087937355,-1.4534649848937988,1000.58545,
2021.05.22 15:30:02,56.0,24.0,30.599998,2.6399999,-22.38,-0.24421602,0.4166038,10.058349,0.005449529,-0.007742717,-0.017492738,-0.041382864117622375,0.0242751631885767,-1.4517496824264526,1000.58545,
2021.05.22 15:30:02,56.0,24.0,30.72,2.7,-22.56,-0.18675344,0.45730647,9.885961,0.00911472,0.019135352,-0.007108028,-0.04621699079871178,0.018888525664806366,-1.4470925331115723,1000.59546,
2021.05.22 15:30:02,56.0,24.0,30.9,2.8799999,-22.68,-0.16759923,0.4740664,9.933846,-0.007378641,0.0044745877,-0.0077188932,-0.04767938703298569,0.016869934275746346,-1.4410158395767212,1000.59546,
2021.05.22 15:30:02,56.0,24.0,31.26,2.7,-22.32,-0.16520496,0.45970076,9.964972,-0.007989507,8.0939644E-4,-0.011384085,-0.04609266296029091,0.01657704822719097,-1.4499950408935547,1000.5989,
2021.05.22 15:30:02,56.0,24.0,31.38,2.7,-21.66,-0.24182175,0.4668836,10.089474,-0.022039408,-0.004077526,-0.016881872,-0.0462280809879303,0.023963140323758125,-1.4503999948501587,1000.5928,
2021.05.22 15:30:02,56.0,24.0,31.619999,2.76,-21.3,-0.17957062,0.47167215,9.924269,-0.0037134497,0.0032528574,-0.004664567,-0.047483645379543304,0.018092116340994835,-1.4498727321624756,1000.5928,
2021.05.22 15:30:02,56.0,24.0,31.56,2.46,-20.939999,-0.31125572,0.3974496,10.0439825,-0.011043833,8.0939644E-4,-0.017492738,-0.03953133150935173,0.03097935952246189,-1.4636263847351074,1000.58545,
2021.05.22 15:30:02,56.0,24.0,31.439999,2.22,-20.82,-0.16041641,0.4956149,9.974549,-0.025093732,0.0014202617,-0.006497163,-0.0496407076716423,0.0160811860114336,-1.4658713340759277,1000.58545,
2021.05.22 15:30:02,56.0,24.0,31.5,2.04,-21.0,-0.14365649,0.4836435,9.96976,-0.036700174,0.011194105,-0.0016102408,-0.048468027263879776,0.014408226124942303,-1.472476840019226,1000.58057,
2021.05.22 15:30:02,56.0,24.0,31.439999,1.9799999,-21.3,-0.35674694,0.4070267,9.950606,-0.061134785,0.014248433,-0.07124888,-0.04085570573806763,0.03583643212914467,-1.4766819477081299,1000.58057,
2021.05.22 15:30:03,56.0,24.0,31.199999,2.28,-21.359999,-0.32562137,0.23224466,10.067925,-0.07213035,0.031352658,-0.12072896,-0.023051638156175613,0.032331179827451706,-1.4794009923934937,1000.5796,
2021.05.22 15:30:03,56.0,24.0,30.9,2.8799999,-21.66,-0.18196489,0.2753416,10.0368,-0.081904195,-0.004077526,-0.03887302,-0.027421820908784866,0.01812778413295746,-1.4569369554519653,1000.572,
2021.05.22 15:30:03,56.0,24.0,30.84,3.3,-21.779999,-0.16520496,0.2849187,9.96976,-0.08373679,0.039904773,-0.046203405,-0.028566593304276466,0.016569089144468307,-1.442375898361206,1000.572,
2021.05.22 15:30:03,56.0,24.0,30.779999,3.8999999,-21.539999,-0.19393626,0.26337022,9.964972,-0.005546046,0.0044745877,-0.021157928,-0.026418449357151985,0.01945934072136879,-1.4241597652435303,1000.56934,
2021.05.22 15:30:03,56.0,24.0,31.019999,3.78,-21.72,-0.24900457,0.27294734,9.967366,0.005449529,0.016691893,-0.029710043,-0.02736872062087059,0.024976786226034164,-1.4275672435760498,1000.56934,
2021.05.22 15:30:03,56.0,24.0,31.019999,3.78,-21.779999,-0.12450229,0.33519846,10.13736,0.00789299,-0.002855795,-0.029099176,-0.03305112197995186,0.012280912138521671,-1.425162672996521,1000.5713,
2021.05.22 15:30:03,56.0,24.0,31.679998,4.08,-21.96,-0.28252444,0.33759275,9.541185,0.015223373,0.002031127,-0.018714469,-0.035352446138858795,0.02960239164531231,-1.4145359992980957,1000.573,
2021.05.22 15:30:03,56.0,24.0,31.679998,3.84,-22.26,0.18435916,0.51955765,10.860431,0.02316462,-0.32172745,-0.06086417,-0.047796186059713364,-0.016973678022623062,-1.4199138879776,1000.573,
2021.05.22 15:30:03,56.0,24.0,31.5,4.38,-22.439999,-0.73743665,0.3615355,9.816526,-0.010432967,-0.027290406,-0.08590964,-0.036709289997816086,0.07498111575841904,-1.3948733806610107,1000.5742,
