Time,X-cord,Y-cord,Mag_x,Mag_y,Mag_z,Acc_x,Acc_y,Acc_z,Gyro_x,Gyro_y,Gyro_z,Orn_x,Orn_y,Orn_z,Pressure,
2021.05.22 15:28:44,50.0,24.0,29.82,8.099999,-23.34,-1.089395,0.36392978,9.4095,0.015834238,0.17979291,-0.15310483,-0.03840131685137749,0.11526291072368622,-1.2444912195205688,1000.5996,
2021.05.22 15:28:44,50.0,24.0,29.58,8.46,-23.4,-0.5961744,0.31604427,10.216371,-0.08068247,-0.0731053,0.01243966,-0.030872736126184464,0.05828871205449104,-1.2541226148605347,1000.59644,
2021.05.22 15:28:44,50.0,24.0,30.48,8.4,-24.24,-0.65124273,0.43815228,10.345661,-0.04952834,-0.033399057,0.01610485,-0.04224250093102455,0.06286544352769852,-1.2533283233642578,1000.59644,
2021.05.22 15:28:44,50.0,24.0,30.9,8.04,-24.42,-0.5243462,0.5698374,10.180456,0.05065356,0.011804971,0.047869842,-0.05584144964814186,0.05145970359444618,-1.2609601020812988,1000.59985,
2021.05.22 15:28:44,50.0,24.0,31.5,7.56,-25.439999,-0.5027977,0.6081458,10.13736,0.09891191,0.0038637226,0.07658051,-0.059845343232154846,0.0495578795671463,-1.2763301134109497,1000.59985,
2021.05.22 15:28:45,50.0,24.0,32.219997,7.3199997,-25.859999,-0.49082634,0.5818088,9.778218,0.11112922,0.034406986,-0.027877446,-0.05935586988925934,0.05015379190444946,-1.2891675233840942,1000.5886,
2021.05.22 15:28:45,50.0,24.0,32.219997,6.7799997,-25.619999,-0.60335726,0.49082634,9.938635,0.12762257,0.023411412,-0.008940623,-0.049255065619945526,0.06063384562730789,-1.3112685680389404,1000.5886,
2021.05.22 15:28:45,50.0,24.0,32.76,6.54,-26.58,-0.57462597,0.39505535,9.852441,0.082418546,-0.07249443,-0.023601389,-0.0400078222155571,0.05825721472501755,-1.3293497562408447,1000.5886,
2021.05.22 15:28:45,50.0,24.0,33.239998,7.02,-26.519999,-0.49082634,0.36392978,9.646533,0.082418546,-0.08410087,0.016715717,-0.03765992820262909,0.05083727464079857,-1.3224672079086304,1000.59375,
2021.05.22 15:28:45,50.0,24.0,33.059998,6.72,-27.18,-0.50998056,0.44533512,9.687236,0.07692076,-0.09326386,0.024046099,-0.04587554931640625,0.052596040070056915,-1.3216198682785034,1000.59375,
2021.05.22 15:28:45,50.0,24.0,32.94,7.14,-27.539999,-0.5889916,0.62251145,9.8237095,0.037214525,-0.057833668,-0.008940623,-0.06317051500082016,0.059884440153837204,-1.2906618118286133,1000.6013,
2021.05.22 15:28:45,50.0,24.0,32.46,7.3799996,-27.119999,-0.5961744,0.679974,9.972155,0.0030060678,-0.052946746,-0.0620859,-0.06796091794967651,0.05971284210681915,-1.2764273881912231,1000.6011,
2021.05.22 15:28:45,50.0,24.0,31.859999,6.42,-27.119999,-0.36392978,0.7709565,9.883567,0.031716734,-0.019349158,-0.03276437,-0.07779373228549957,0.03680507838726044,-1.298913598060608,1000.6011,
2021.05.22 15:28:45,50.0,24.0,31.5,6.42,-26.64,-0.44533512,0.7326481,10.23313,0.057373073,-0.012629638,0.01610485,-0.07140638679265976,0.043491512537002563,-1.3004555702209473,1000.6028,
2021.05.22 15:28:45,50.0,24.0,31.32,6.7799997,-26.82,-0.25858167,0.65842557,9.646533,0.09280326,-0.029123,0.042372055,-0.06812506169080734,0.026799241080880165,-1.295327067375183,1000.5935,
2021.05.22 15:28:45,50.0,24.0,31.38,6.18,-27.0,-0.22985038,0.6464542,9.73991,0.08302941,0.016081028,0.051535033,-0.066256083548069,0.023594440892338753,-1.3160731792449951,1000.5935,
2021.05.22 15:28:45,50.0,24.0,31.38,6.42,-27.359999,-0.27294734,0.7685622,10.26665,-0.06357824,-0.021792619,0.03870687,-0.07469440996646881,0.026579560711979866,-1.3000390529632568,1000.5908,
2021.05.22 15:28:45,50.0,24.0,31.74,6.54,-27.72,-0.05985687,0.9577099,9.984126,-0.07457382,-0.0059101214,0.05092417,-0.09562895447015762,0.005995131563395262,-1.287989854812622,1000.5908,
2021.05.22 15:28:45,50.0,24.0,31.8,6.18,-27.779999,-0.05506832,0.9792584,10.077502,-0.005546046,-0.004077526,0.10284772,-0.0968671590089798,0.005464427173137665,-1.2979871034622192,1000.5989,
2021.05.22 15:28:45,50.0,24.0,31.74,6.8999996,-27.779999,-0.2681588,0.7685622,10.419884,-0.025093732,-0.029123,0.07352618,-0.07360158115625381,0.025729617103934288,-1.2888600826263428,1000.5989,
2021.05.22 15:28:45,50.0,24.0,31.5,6.48,-27.96,-0.29210153,0.6296943,9.672871,0.028051542,0.041126505,0.07352618,-0.0649777427315712,0.030188845470547676,-1.3049724102020264,1000.5864,
2021.05.22 15:28:45,50.0,24.0,31.8,6.42,-27.9,-0.4644893,0.28970724,9.993703,0.03904712,-0.03278819,0.08818695,-0.02894962951540947,0.04644477367401123,-1.3366832733154297,1000.5847,
2021.05.22 15:28:46,50.0,24.0,31.679998,6.42,-27.48,-0.44054657,0.40223816,10.032011,-0.0379219,-0.06394232,0.07169359,-0.04003546014428139,0.043885890394449234,-1.327106237411499,1000.5847,
2021.05.22 15:28:46,50.0,24.0,32.04,6.3599997,-27.66,-0.23463893,0.6440599,9.091062,-0.013487294,0.017302757,0.082689166,-0.07070376724004745,0.025804121047258377,-1.3100433349609375,1000.58057,
2021.05.22 15:28:46,50.0,24.0,32.82,6.54,-27.48,-0.28731298,0.6296943,10.307353,-0.0660217,-0.051725015,0.046648115,-0.0609922893345356,0.027867348864674568,-1.318558931350708,1000.58057,
2021.05.22 15:28:46,50.0,24.0,32.46,6.2999997,-27.42,-0.3328042,1.036721,10.072714,-0.097786695,-0.070661835,0.0032766813,-0.10250701755285263,0.03302815929055214,-1.2875088453292847,1000.5842,
2021.05.22 15:28:46,50.0,24.0,33.12,6.06,-27.9,-0.2466103,0.86912173,9.929058,0.008503855,0.026465736,0.0112179285,-0.08728381991386414,0.02483212575316429,-1.3132073879241943,1000.5764,
2021.05.22 15:28:46,50.0,24.0,32.76,6.06,-27.72,-0.43815228,0.37829542,10.290593,0.014612508,-0.0046883905,-0.044370808,-0.03671150654554367,0.04255224019289017,-1.3487414121627808,1000.5764,
2021.05.22 15:28:46,50.0,24.0,32.04,6.06,-27.72,-0.22745611,0.6201172,9.354432,0.041490577,0.051511213,-0.044981673,-0.06617491692304611,0.024310540407896042,-1.3230717182159424,1000.5869,
2021.05.22 15:28:46,50.0,24.0,32.28,6.42,-27.9,-0.33759275,0.81165916,9.648928,0.048210096,0.071669765,-0.0040537016,-0.08387046307325363,0.03497333079576492,-1.2957706451416016,1000.5908,
2021.05.22 15:28:46,50.0,24.0,31.5,6.6,-27.599998,-0.7110996,0.7805336,10.192428,-0.08618026,-0.018127427,-0.047425132,-0.07624595612287521,0.06965456902980804,-1.2795180082321167,1000.5908,
2021.05.22 15:28:46,50.0,24.0,31.26,6.3599997,-27.539999,-0.7446195,0.6703969,10.458193,-0.09717584,-0.02790127,-0.026044851,-0.06385377049446106,0.07107967883348465,-1.2959307432174683,1000.59033,
2021.05.22 15:28:46,50.0,24.0,31.5,6.66,-27.24,-0.33759275,0.6273,9.912297,-0.0024917193,0.03257439,0.08696522,-0.06316421926021576,0.034044813364744186,-1.3015068769454956,1000.59033,
2021.05.22 15:28:46,50.0,24.0,31.619999,6.42,-27.359999,-0.28970724,0.52674043,9.871595,0.008503855,0.068615444,0.10345858,-0.05328574404120445,0.02933913841843605,-1.3192312717437744,1000.58936,
2021.05.22 15:28:46,50.0,24.0,31.8,6.24,-27.18,-0.12689656,0.6392714,9.794978,-0.010432967,0.00936151,0.092463,-0.06516733765602112,0.01295454241335392,-1.3209712505340576,1000.58936,
2021.05.22 15:28:46,50.0,24.0,31.8,6.24,-27.359999,-0.4860378,0.51716334,10.099051,-0.0379219,-0.022403482,0.042372055,-0.05110536143183708,0.04808996990323067,-1.3229154348373413,1000.58936,
2021.05.22 15:28:46,50.0,24.0,32.04,6.48,-27.42,-0.22266756,0.57462597,9.897932,-0.03059152,-0.01751656,0.06314147,-0.05797543004155159,0.022492578253149986,-1.3184775114059448,1000.594,
2021.05.22 15:28:46,50.0,24.0,31.74,6.66,-27.3,-0.21309046,0.59378016,9.917087,-0.024482869,-0.015683964,0.07047185,-0.05978929623961449,0.021483898162841797,-1.3097717761993408,1000.594,
2021.05.22 15:28:47,50.0,24.0,31.8,6.72,-27.539999,-0.15083931,0.6296943,10.257073,-0.028758924,-0.018127427,0.038096,-0.06130765378475189,0.014704822562634945,-1.3086450099945068,1000.5967,
2021.05.22 15:28:47,50.0,24.0,31.92,6.6,-27.48,-0.24182175,0.4285752,10.343267,0.010947316,-0.046838094,0.041150324,-0.04140019044280052,0.0233753714710474,-1.3274732828140259,1000.5967,
2021.05.22 15:28:47,50.0,24.0,31.439999,6.54,-27.66,-0.23463893,0.44054657,9.696813,0.038436253,-0.07005097,0.010607065,-0.04538761451840401,0.02419281005859375,-1.3217840194702148,1000.5891,
2021.05.22 15:28:47,50.0,24.0,31.619999,6.2999997,-27.42,-0.17238778,0.5219519,9.804555,0.10074451,-0.0071318517,0.015493986,-0.05317724496126175,0.017580606043338776,-1.325981616973877,1000.58203,
2021.05.22 15:28:47,50.0,24.0,31.439999,6.2999997,-27.48,-0.0670397,0.75659084,9.754275,0.063481726,0.0014202617,0.0051092766,-0.07740823179483414,0.006872744299471378,-1.3075248003005981,1000.58203,
2021.05.22 15:28:47,50.0,24.0,32.1,6.24,-27.539999,0.0,0.8044763,10.07032,0.006671259,-0.038285982,0.0032766813,-0.07971658557653427,1.0E-6,-1.3144667148590088,1000.5769,
2021.05.22 15:28:47,50.0,24.0,32.46,5.7,-27.66,-0.105348095,0.6656084,10.058349,-0.041587092,-0.03034473,-0.053533785,-0.06607476621866226,0.010473313741385937,-1.340673804283142,1000.57275,
2021.05.22 15:28:47,50.0,24.0,32.64,5.52,-28.019999,-0.07422252,0.5913859,9.912297,-0.005546046,-0.0052992557,-0.057809845,-0.059589534997940063,0.007487783674150705,-1.352512001991272,1000.57275,
2021.05.22 15:28:47,50.0,24.0,32.7,5.52,-27.96,-0.3998439,0.6344828,10.039194,-0.0037134497,0.026465736,-0.10301387,-0.0630667582154274,0.03980724886059761,-1.341939926147461,1000.57153,
2021.05.22 15:28:47,50.0,24.0,31.859999,5.7599998,-27.96,-0.409421,0.6943397,10.288198,-0.03731104,-0.0052992557,-0.11278771,-0.06733362376689911,0.03977422043681145,-1.3248629570007324,1000.57153,
2021.05.22 15:28:47,50.0,24.0,32.219997,6.0,-27.72,-0.05506832,0.723071,10.211582,-0.02142854,0.017302757,-0.07430321,-0.07068989425897598,0.00539267947897315,-1.327648639678955,1000.572,
2021.05.22 15:28:47,50.0,24.0,31.859999,6.0,-27.42,0.047885496,0.69912827,9.799767,0.07692076,0.025244007,-0.06086417,-0.071219801902771,-0.004886352922767401,-1.3279814720153809,1000.572,
2021.05.22 15:28:47,50.0,24.0,31.679998,6.24,-27.42,-0.2681588,0.65363705,9.656111,0.08791634,0.016081028,-0.08041186,-0.06756246834993362,0.02776375412940979,-1.3134043216705322,1000.5735,
2021.05.22 15:28:47,50.0,24.0,31.74,6.2999997,-27.599998,-0.45012367,0.64166564,9.749487,0.048210096,-0.0010231993,-0.08468791,-0.0656508058309555,0.046136196702718735,-1.3078747987747192,1000.5774,
2021.05.22 15:28:47,50.0,24.0,31.199999,5.94,-27.72,-0.4166038,0.7039168,9.907509,0.017666833,-0.012629638,-0.07185974,-0.07086721062660217,0.04202454164624214,-1.3109138011932373,1000.5774,
2021.05.22 15:28:47,50.0,24.0,31.019999,6.24,-27.42,-0.3902668,0.72546524,9.948212,-0.038532767,-0.051725015,0.0026658159,-0.07273957133293152,0.03920973837375641,-1.3001092672348022,1000.574,
2021.05.22 15:28:47,50.0,24.0,30.9,6.18,-27.119999,-0.28970724,0.6895511,10.072714,-0.034867577,-0.020570887,0.033819944,-0.06832253187894821,0.02875366061925888,-1.3086981773376465,1000.574,
2021.05.22 15:28:48,50.0,24.0,30.599998,6.0,-26.4,-0.14844504,0.6895511,9.91948,-0.044641424,0.011804971,0.016715717,-0.06939544528722763,0.014963884837925434,-1.3165749311447144,1000.5752,
2021.05.22 15:28:48,50.0,24.0,30.359999,6.66,-25.74,-0.11253092,0.67757976,9.960183,-0.020817677,0.02096795,0.017326582,-0.06791987270116806,0.011297596618533134,-1.2979143857955933,1000.5725,
2021.05.22 15:28:48,50.0,24.0,30.06,7.02,-25.68,-0.24182175,0.6273,9.931452,-0.020206813,0.029520063,-0.011384085,-0.06306052953004837,0.024344274774193764,-1.284266471862793,1000.5725,
2021.05.22 15:28:48,50.0,24.0,30.0,7.02,-25.32,-0.55307746,0.5554718,10.060742,-0.028758924,-0.010797042,-0.007108028,-0.05507282540202141,0.05491854250431061,-1.2818413972854614,1000.5808,
2021.05.22 15:28:48,50.0,24.0,29.939999,7.3799996,-25.199999,-0.45012367,0.6296943,9.948212,-0.007989507,-0.0046883905,0.020380909,-0.06314846873283386,0.045215852558612823,-1.2663726806640625,1000.5808,
2021.05.22 15:28:48,50.0,24.0,29.34,7.44,-25.08,-0.21548474,0.7134939,10.084685,0.0023952026,-0.004077526,0.10162599,-0.0706164762377739,0.021364271640777588,-1.2604743242263794,1000.58325,
2021.05.22 15:28:48,50.0,24.0,29.519999,7.2599998,-25.08,-0.043096945,0.70631105,9.873989,0.0011734721,0.0014202617,0.09673907,-0.0714101791381836,0.004364666994661093,-1.2725828886032104,1000.5845,
2021.05.22 15:28:48,50.0,24.0,29.34,7.2599998,-25.199999,-0.026337024,0.6296943,9.850046,0.0072821244,0.033185255,0.06008715,-0.06384094804525375,0.002673790557309985,-1.2769545316696167,1000.5845,
2021.05.22 15:28:48,50.0,24.0,29.46,7.3199997,-25.56,-0.15323359,0.66800267,9.972155,-0.01776335,0.013637567,0.02526783,-0.06687899678945541,0.0153649365529418,-1.2691847085952759,1000.584,
2021.05.22 15:28:48,50.0,24.0,30.119999,7.62,-25.68,-0.20351335,0.6847626,9.972155,-0.012876429,0.011804971,0.009996199,-0.0685456171631813,0.020405329763889313,-1.2631185054779053,1000.584,
2021.05.22 15:28:48,50.0,24.0,30.179998,7.56,-25.5,-0.39505535,0.5889916,9.974549,-0.019595945,0.015470162,-0.019936197,-0.058934856206178665,0.039585646241903305,-1.2676138877868652,1000.5874,
2021.05.22 15:28:48,50.0,24.0,30.179998,7.68,-25.5,-0.36392978,0.54828894,9.964972,-0.01776335,0.02218968,-0.016881872,-0.05492965877056122,0.036504682153463364,-1.2681039571762085,1000.5801,
2021.05.22 15:28:48,50.0,24.0,30.359999,7.2599998,-25.14,-0.25858167,0.57223165,10.000886,-0.028758924,0.012415837,0.0057201423,-0.05713672190904617,0.025850117206573486,-1.2849677801132202,1000.5801,
2021.05.22 15:28:48,50.0,24.0,30.24,6.6,-25.08,-0.038308397,0.69912827,9.926663,-0.015930755,0.03379612,0.038096,-0.07031270116567612,0.0038591220509260893,-1.3004404306411743,1000.5786,
2021.05.22 15:28:48,50.0,24.0,29.88,6.6,-25.14,-0.24182175,0.57223165,10.199611,-0.023872003,0.0032528574,0.021602638,-0.0560288205742836,0.02370447851717472,-1.30287766456604,1000.5791,
2021.05.22 15:28:48,50.0,24.0,29.519999,6.54,-24.42,-0.25139886,0.6368771,10.032011,-0.027537195,-0.019349158,-0.029710043,-0.06337957084178925,0.02505442313849926,-1.2968828678131104,1000.5791,
2021.05.22 15:28:48,50.0,24.0,29.58,6.8999996,-24.6,-0.33519846,0.6081458,9.984126,-0.0018808541,-0.010186179,-9.993755E-4,-0.060801927000284195,0.033560533076524734,-1.2850909233093262,1000.57715,
2021.05.22 15:28:49,50.0,24.0,29.699999,7.14,-24.6,-0.3974496,0.5889916,10.118205,-0.007378641,-0.0034666602,-0.031542636,-0.05810074880719185,0.03926045820116997,-1.2790343761444092,1000.57715,
2021.05.22 15:28:49,50.0,24.0,29.939999,7.2,-23.939999,-0.25379312,0.6344828,9.917087,0.02438635,-0.0046883905,-0.005275432,-0.06387080997228622,0.02558591403067112,-1.2803908586502075,1000.57495,
2021.05.22 15:28:49,50.0,24.0,30.06,7.44,-24.119999,-0.38787252,0.56265455,9.9889145,0.05676221,0.015470162,-0.029099176,-0.056226152926683426,0.03881080076098442,-1.2756304740905762,1000.57495,
2021.05.22 15:28:49,50.0,24.0,29.279999,7.44,-23.46,-0.16520496,0.6847626,9.80695,0.04271231,-0.018127427,0.035041675,-0.06970121711492538,0.016844110563397408,-1.2658718824386597,1000.57886,
2021.05.22 15:28:49,50.0,24.0,28.98,7.2599998,-23.22,-0.3040729,0.6440599,10.048771,0.026829813,-0.016905695,0.021602638,-0.06397665292024612,0.03025047853589058,-1.269446611404419,1000.5703,
2021.05.22 15:28:49,50.0,24.0,28.74,7.02,-23.519999,-0.29689008,0.62251145,9.771035,0.022553755,-0.002855795,0.011828794,-0.06359461694955826,0.030375365167856216,-1.2743818759918213,1000.5703,
2021.05.22 15:28:49,50.0,24.0,28.74,6.7799997,-23.4,-0.32801566,0.6296943,9.955395,0.0011734721,-0.0010231993,0.014272256,-0.06313324719667435,0.032936617732048035,-1.2821121215820312,1000.5698,
2021.05.22 15:28:49,50.0,24.0,29.34,6.48,-23.519999,-0.28970724,0.66321415,9.941029,-0.022039408,0.0063071838,0.028322157,-0.06658793985843658,0.029134336858987808,-1.2956210374832153,1000.57275,
2021.05.22 15:28:49,50.0,24.0,28.98,6.6,-23.4,-0.18675344,0.67757976,9.943423,-0.024482869,0.014248433,0.03443081,-0.06802637130022049,0.018779397010803223,-1.2905848026275635,1000.57275,
2021.05.22 15:28:49,50.0,24.0,29.039999,6.72,-23.46,-0.2849187,0.65842557,10.065532,-0.034256715,-0.008964447,2.2235495E-4,-0.06529475003480911,0.028298815712332726,-1.2864692211151123,1000.5725,
2021.05.22 15:28:49,50.0,24.0,29.34,6.8399997,-23.519999,-0.22266756,0.6392714,9.955395,-0.011043833,-0.004077526,8.332202E-4,-0.06410952657461166,0.02236279286444187,-1.2878834009170532,1000.5725,
2021.05.22 15:28:49,50.0,24.0,29.039999,7.02,-23.58,-0.18435916,0.5818088,10.00328,0.0023952026,-0.010186179,0.016715717,-0.058086514472961426,0.018427785485982895,-1.284874439239502,1000.5796,
2021.05.22 15:28:49,50.0,24.0,29.039999,7.2,-23.64,-0.117319465,0.63208854,9.696813,0.0042277984,0.0014202617,-0.010773219,-0.06508833914995193,0.012098174542188644,-1.2755298614501953,1000.5796,
2021.05.22 15:28:49,50.0,24.0,28.92,7.62,-23.76,-0.22506183,0.5913859,10.077502,-0.013487294,-0.012018774,-0.032153502,-0.058601971715688705,0.022329384461045265,-1.262575626373291,1000.5747,
2021.05.22 15:28:49,50.0,24.0,28.74,7.56,-24.06,-0.38308397,0.5985687,9.859624,-0.028758924,-0.0059101214,-0.057809845,-0.060589056462049484,0.03883427754044533,-1.2552757263183594,1000.57935,
2021.05.22 15:28:49,50.0,24.0,28.68,7.68,-24.0,-0.22985038,0.66800267,10.1206,-0.019595945,-0.03034473,-9.993755E-4,-0.06589171290397644,0.022707238793373108,-1.251922845840454,1000.57935,
2021.05.22 15:28:49,50.0,24.0,28.68,7.56,-24.18,-0.4932206,0.5458947,9.859624,-0.02142854,-0.036453385,0.007552738,-0.05524127930402756,0.049982618540525436,-1.255106806755066,1000.5845,
2021.05.22 15:28:50,50.0,24.0,28.859999,7.3199997,-24.18,-0.2849187,0.54350036,10.0200405,-0.014098159,-0.015683964,0.014883121,-0.05416638031601906,0.02842722460627556,-1.272384762763977,1000.583,
2021.05.22 15:28:50,50.0,24.0,28.68,7.3199997,-23.939999,-0.13886794,0.58420306,9.8787775,-0.010432967,-0.019349158,0.035041675,-0.059062566608190536,0.014056273736059666,-1.2715297937393188,1000.583,
2021.05.22 15:28:50,50.0,24.0,28.38,7.3799996,-24.24,-0.10055954,0.5650489,9.962578,-0.020817677,0.016081028,0.026489561,-0.05665355548262596,0.010093383491039276,-1.2690447568893433,1000.5808,
2021.05.22 15:28:50,50.0,24.0,28.439999,7.2599998,-23.88,-0.08858817,0.5913859,9.957788,-0.038532767,0.0056963186,0.01243966,-0.059317268431186676,0.008896134793758392,-1.2725310325622559,1000.5808,
2021.05.22 15:28:50,50.0,24.0,28.199999,7.2,-23.699999,-0.20351335,0.5865973,10.008069,-0.038532767,-0.0022449298,-0.006497163,-0.05853338539600372,0.020332125946879387,-1.2696459293365479,1000.5808,
2021.05.22 15:28:50,50.0,24.0,28.199999,7.2,-23.58,-0.29210153,0.6057515,9.991309,-0.035478443,-0.009575313,-0.018714469,-0.060527924448251724,0.029227236285805702,-1.2656259536743164,1000.5808,
2021.05.22 15:28:50,50.0,24.0,28.68,7.2,-23.82,-0.25858167,0.5458947,9.972155,-0.011654698,0.014248433,-0.01566014,-0.05466897413134575,0.0259245615452528,-1.2755788564682007,1000.5884,
2021.05.22 15:28:50,50.0,24.0,29.22,7.3199997,-24.539999,-0.30886146,0.50998056,9.881172,-0.009211237,0.0087506445,-0.011384085,-0.05154046416282654,0.031247397884726524,-1.2764637470245361,1000.58765,
2021.05.22 15:28:50,50.0,24.0,29.76,7.14,-25.019999,-0.21309046,0.46209505,10.118205,0.0023952026,-0.009575313,0.0044984114,-0.04562784731388092,0.021056992933154106,-1.2940267324447632,1000.58765,
2021.05.22 15:28:50,50.0,24.0,30.06,7.02,-25.859999,-0.12210801,0.56265455,9.93624,0.00789299,-0.0065209866,0.020991774,-0.05656183511018753,0.012288537807762623,-1.292673110961914,1000.5879,
2021.05.22 15:28:50,50.0,24.0,30.42,7.02,-25.92,-0.19633053,0.51716334,9.960183,-0.0031025845,-0.0071318517,0.0112179285,-0.05186643451452255,0.019708985462784767,-1.297408103942871,1000.5879,
2021.05.22 15:28:50,50.0,24.0,30.179998,6.66,-25.8,-0.23942748,0.49800915,9.938635,-0.0061569107,-0.0052992557,-0.0138275465,-0.05005203187465668,0.02408592216670513,-1.3070850372314453,1000.5845,
2021.05.22 15:28:50,50.0,24.0,29.82,6.8999996,-25.08,-0.28013015,0.4764607,9.98652,-0.007378641,-0.002855795,-0.0119949505,-0.04765551537275314,0.02804347313940525,-1.2985248565673828,1000.58936,
2021.05.22 15:28:50,50.0,24.0,29.46,7.08,-24.96,-0.21787901,0.46927786,9.967366,-0.007989507,-0.008964447,0.010607065,-0.047035470604896545,0.021855756640434265,-1.2919706106185913,1000.58936,
2021.05.22 15:28:50,50.0,24.0,29.22,7.02,-24.96,-0.17717634,0.5219519,9.941029,-0.011043833,0.0063071838,0.014272256,-0.0524483397603035,0.017820851877331734,-1.288459300994873,1000.58765,
2021.05.22 15:28:50,50.0,24.0,29.34,7.14,-25.199999,-0.20351335,0.43815228,10.029617,-0.015319889,0.0014202617,0.0020549507,-0.043649107217788696,0.020288454368710518,-1.2917433977127075,1000.58765,
2021.05.22 15:28:51,50.0,24.0,29.34,7.14,-25.92,-0.20590763,0.47167215,9.974549,-0.031202385,-0.0022449298,-0.0040537016,-0.04724231734871864,0.02064037136733532,-1.2874891757965088,1000.5908,
2021.05.22 15:28:51,50.0,24.0,29.64,7.02,-25.5,-0.16041641,0.50040346,9.96976,0.0030060678,0.0087506445,0.01610485,-0.050143562257289886,0.016088910400867462,-1.2936745882034302,1000.5945,
2021.05.22 15:28:51,50.0,24.0,29.519999,6.8399997,-25.08,-0.30167863,0.4285752,10.034406,-0.014709025,0.0063071838,-0.008329758,-0.04266536980867386,0.030055370181798935,-1.3013383150100708,1000.5945,
2021.05.22 15:28:51,50.0,24.0,29.22,7.2599998,-24.779999,-0.22745611,0.4644893,9.948212,-0.0024917193,0.021578815,-3.885103E-4,-0.0466446727514267,0.022860035300254822,-1.2843239307403564,1000.5901,
2021.05.22 15:28:51,50.0,24.0,29.519999,7.5,-24.48,-0.19154198,0.45491222,10.027223,-6.591236E-4,-0.0052992557,-0.002221106,-0.045328374952077866,0.019099874421954155,-1.2820967435836792,1000.5901,
2021.05.22 15:28:51,50.0,24.0,30.06,8.04,-24.3,-0.15802214,0.44533512,9.929058,0.010947316,0.010583241,0.0069418726,-0.04481599107384682,0.01591377519071102,-1.271903157234192,1000.5825,
2021.05.22 15:28:51,50.0,24.0,30.42,8.099999,-24.06,-0.24421602,0.42618093,9.984126,0.0048386636,0.0063071838,-0.0058862977,-0.042647212743759155,0.02445555478334427,-1.2731046676635742,1000.58813,
2021.05.22 15:28:51,50.0,24.0,30.779999,7.8599997,-23.76,-0.22266756,0.43815228,9.885961,-4.8258353E-5,-0.0046883905,-0.014438411,-0.04428045451641083,0.022519808262586594,-1.2834917306900024,1000.58813,
2021.05.22 15:28:51,50.0,24.0,30.66,7.68,-23.699999,-0.2944958,0.4189981,10.055954,-0.0031025845,0.00936151,-0.006497163,-0.041624754667282104,0.029277347028255463,-1.288227915763855,1000.5879,
2021.05.22 15:28:51,50.0,24.0,29.88,7.14,-23.82,-0.1699935,0.47885495,10.012857,-0.009211237,0.0014202617,0.0032766813,-0.04778071865439415,0.01697589084506035,-1.2964779138565063,1000.5879,
2021.05.22 15:28:51,50.0,24.0,29.4,7.3199997,-24.18,-0.22027329,0.4740664,9.914692,0.005449529,0.010583241,-0.0028319713,-0.04776637628674507,0.022213201969861984,-1.284421682357788,1000.5818,
2021.05.22 15:28:51,50.0,24.0,29.039999,7.3199997,-24.6,-0.30167863,0.39266106,9.9889145,-6.591236E-4,0.0056963186,-0.009551489,-0.03927156701683998,0.030192164704203606,-1.2848979234695435,1000.57715,
2021.05.22 15:28:51,50.0,24.0,28.859999,7.2599998,-24.359999,-0.20590763,0.46927786,9.991309,-0.011043833,-0.009575313,0.0044984114,-0.0469241626560688,0.02060575596988201,-1.282036304473877,1000.57715,
2021.05.22 15:28:51,50.0,24.0,29.16,7.2,-24.6,-0.20590763,0.50758624,9.907509,0.0182777,-0.0059101214,0.020991774,-0.05117669701576233,0.020779995247721672,-1.2829651832580566,1000.57715,
2021.05.22 15:28:51,50.0,24.0,29.16,7.14,-24.539999,-0.28731298,0.46927786,10.048771,0.0060603945,-0.012629638,-0.019936197,-0.0466470867395401,0.028584064915776253,-1.286420226097107,1000.57715,
2021.05.22 15:28:51,50.0,24.0,29.4,7.02,-24.3,-0.3040729,0.4668836,9.941029,0.017666833,-0.021181753,-0.010773219,-0.04690892994403839,0.030578134581446648,-1.292188286781311,1000.572,
2021.05.22 15:28:51,50.0,24.0,29.519999,7.2599998,-24.66,-0.27294734,0.44054657,10.065532,0.011558182,-0.03278819,-0.008940623,-0.04372386634349823,0.0271103885024786,-1.2884836196899414,1000.5752,
2021.05.22 15:28:52,50.0,24.0,29.519999,7.56,-23.88,-0.23224466,0.4764607,9.945818,0.026829813,0.011804971,0.015493986,-0.047856010496616364,0.02334674261510372,-1.2780719995498657,1000.5752,
2021.05.22 15:28:52,50.0,24.0,29.82,8.16,-24.0,-0.18196489,0.57223165,10.046377,0.0023952026,0.030741792,0.035041675,-0.056888215243816376,0.01811050809919834,-1.256773591041565,1000.57153,
2021.05.22 15:28:52,50.0,24.0,30.0,8.16,-24.3,-0.13168511,0.61293435,9.943423,0.027440678,0.019135352,0.042372055,-0.061558905988931656,0.013242663815617561,-1.2559785842895508,1000.57153,
2021.05.22 15:28:52,50.0,24.0,29.76,7.98,-24.6,-0.21309046,0.5219519,9.857229,0.027440678,-0.0034666602,0.0051092766,-0.05288944020867348,0.02161431685090065,-1.2625787258148193,1000.5735,
2021.05.22 15:28:52,50.0,24.0,29.58,7.8599997,-25.14,-0.31365,0.45012367,9.914692,0.011558182,0.014859296,-0.015049276,-0.04534585401415825,0.03162432461977005,-1.2665621042251587,1000.5698,
2021.05.22 15:28:52,50.0,24.0,30.179998,6.96,-26.099998,-0.29928434,0.48843205,9.885961,-0.009822102,-0.0016340646,-0.006497163,-0.04934392124414444,0.03026442974805832,-1.29595947265625,1000.5698,
2021.05.22 15:28:52,50.0,24.0,30.48,6.7799997,-27.119999,-0.19633053,0.5458947,9.883567,-0.020206813,0.015470162,0.0032766813,-0.05516563728451729,0.019861727952957153,-1.3003854751586914,1000.58105,
2021.05.22 15:28:52,50.0,24.0,31.199999,6.6,-27.06,-0.29689008,0.5411061,10.118205,-0.0696869,0.0692263,-0.018714469,-0.05340462550520897,0.029333751648664474,-1.3108551502227783,1000.58374,
2021.05.22 15:28:52,50.0,24.0,32.28,6.12,-27.779999,-0.23942748,0.55786604,10.0200405,-0.0257046,-0.0065209866,-0.0058862977,-0.05560177192091942,0.023890314623713493,-1.3319318294525146,1000.58374,
2021.05.22 15:28:52,50.0,24.0,32.16,6.2999997,-27.539999,-0.34956414,0.56744313,10.24989,-0.020817677,0.015470162,-0.02237966,-0.05527237430214882,0.03409096971154213,-1.3236826658248901,1000.5808,
2021.05.22 15:28:52,50.0,24.0,32.34,6.24,-26.76,-0.5961744,0.3423813,9.615408,-0.01776335,0.053343806,-0.048646867,-0.03552437201142311,0.061922721564769745,-1.3381414413452148,1000.5808,
2021.05.22 15:28:52,50.0,24.0,32.46,6.06,-27.24,-0.5985687,0.54350036,10.046377,0.15450066,0.024633141,-0.0040537016,-0.053950969129800797,0.05951020121574402,-1.3280818462371826,1000.57324,
2021.05.22 15:28:52,50.0,24.0,32.219997,6.0,-27.0,-0.2466103,0.6656084,9.780613,0.04271231,0.072891496,0.035041675,-0.06792756170034409,0.025208855047822,-1.326085090637207,1000.57324,
2021.05.22 15:28:52,50.0,24.0,32.16,5.8799996,-26.88,-0.06464542,0.5865973,9.361614,0.055540476,0.09976957,0.077191375,-0.0625765398144722,0.0069052609615027905,-1.3385177850723267,1000.58203,
2021.05.22 15:28:52,50.0,24.0,32.16,5.8799996,-26.939999,0.098165266,0.5458947,10.582695,-0.16131668,-0.21482603,-0.012605815,-0.05153581500053406,-0.009275751188397408,-1.3508740663528442,1000.57935,
2021.05.22 15:28:52,50.0,24.0,31.98,6.0,-26.64,-0.6656084,0.53392327,10.324113,-0.17781004,-0.10853548,-0.021768793,-0.05156324803829193,0.0643821433186531,-1.3283649682998657,1000.57935,
