Time,X-cord,Y-cord,Mag_x,Mag_y,Mag_z,Acc_x,Acc_y,Acc_z,Gyro_x,Gyro_y,Gyro_z,Orn_x,Orn_y,Orn_z,Pressure,
2021.05.22 15:20:06,5.0,24.0,33.3,-3.84,-26.88,-0.8667275,0.38547826,9.454991,-0.008600371,0.12786937,-0.009551489,-0.04057730734348297,0.09141328930854797,-1.6561598777770996,1000.6638,
2021.05.22 15:20:06,5.0,24.0,33.719997,-3.8999999,-27.06,-0.6703969,0.22506183,10.029617,-0.06724344,-0.06944011,0.044204652,-0.02238602191209793,0.066742442548275,-1.6723395586013794,1000.6521,
2021.05.22 15:20:06,5.0,24.0,34.739998,-4.68,-27.96,-0.7134939,0.13886794,9.964972,-0.07029776,-0.08959866,0.017937446,-0.013899129815399647,0.0714782103896141,-1.7004438638687134,1000.6521,
2021.05.22 15:20:06,5.0,24.0,35.46,-5.3399997,-28.5,-0.7877164,0.16520496,9.852441,-0.01776335,-0.010797042,0.036874272,-0.016713030636310577,0.07978168874979019,-1.7154217958450317,1000.6616,
2021.05.22 15:20:06,5.0,24.0,36.42,-5.94,-29.279999,-0.7326481,0.18196489,9.9889145,-0.018985081,0.012415837,0.03931773,-0.01816588081419468,0.07321501523256302,-1.726348876953125,1000.65625,
2021.05.22 15:20:06,5.0,24.0,36.78,-6.42,-29.82,-0.6488485,0.16281068,9.96976,-0.033645846,-0.024846943,0.055200227,-0.016294535249471664,0.06498999893665314,-1.7387727499008179,1000.65625,
2021.05.22 15:20:06,5.0,24.0,36.66,-6.6,-29.939999,-0.69912827,0.11253092,9.98652,-0.01776335,-0.01629483,0.046037246,-0.011240296997129917,0.06989315897226334,-1.7496975660324097,1000.6621,
2021.05.22 15:20:07,5.0,24.0,36.6,-6.18,-30.179998,-0.69194543,0.05506832,10.034406,-0.010432967,-0.0059101214,0.03137648,-0.005474894307553768,0.06884830445051193,-1.7433316707611084,1000.6621,
2021.05.22 15:20:07,5.0,24.0,36.059998,-5.7,-29.699999,-0.7446195,0.16041641,9.907509,0.046988364,0.03379612,0.053978495,-0.016144460067152977,0.07501605153083801,-1.72309410572052,1000.667,
2021.05.22 15:20:07,5.0,24.0,36.18,-5.64,-30.119999,-0.6847626,0.21548474,10.206794,0.06409259,-0.008353583,0.07413705,-0.021061427891254425,0.06698852777481079,-1.7151622772216797,1000.66455,
2021.05.22 15:20:07,5.0,24.0,36.239998,-5.46,-29.939999,-0.3519584,0.31365,9.883567,0.10929662,-0.019960022,0.110788964,-0.03170377016067505,0.03559542074799538,-1.6972230672836304,1000.66455,
2021.05.22 15:20:07,5.0,24.0,36.12,-5.8199997,-30.06,-0.2370332,0.24182175,10.465375,0.086694606,-0.05111415,0.10590204,-0.023096805438399315,0.022645408287644386,-1.7139121294021606,1000.6643,
2021.05.22 15:20:07,5.0,24.0,36.0,-6.42,-30.359999,-0.22506183,0.5123748,9.727939,0.12578999,-0.048670687,0.07535878,-0.05260776728391647,0.023131487891077995,-1.705191731452942,1000.6643,
2021.05.22 15:20:07,5.0,24.0,36.42,-6.7799997,-30.779999,-0.53871185,0.55786604,9.821315,0.117237866,-0.018127427,0.044204652,-0.05665561184287071,0.05479638651013374,-1.7116092443466187,1000.6736,
2021.05.22 15:20:07,5.0,24.0,35.76,-7.3199997,-31.199999,-0.63208854,0.32801566,10.178062,0.01033645,0.0056963186,-0.07491407,-0.03215465694665909,0.06202337518334389,-1.753691554069519,1000.6743,
2021.05.22 15:20:07,5.0,24.0,35.76,-7.7999997,-30.96,-0.40463245,0.1987248,10.714379,-0.0257046,-0.04805982,-0.037040424,-0.018532151356339455,0.037747424095869064,-1.7761656045913696,1000.6743,
2021.05.22 15:20:07,5.0,24.0,35.52,-7.8599997,-31.5,-0.6153286,0.31125572,9.179649,0.0072821244,0.025854873,-0.08652051,-0.0338183268904686,0.06693169474601746,-1.7695112228393555,1000.67847,
2021.05.22 15:20:07,5.0,24.0,34.68,-7.74,-30.599998,-0.409421,0.42618093,9.964972,0.049431827,0.051511213,-0.022990525,-0.04270586743950844,0.04106292128562927,-1.7591907978057861,1000.67847,
2021.05.22 15:20:07,5.0,24.0,35.16,-7.08,-30.359999,-0.47885495,0.4956149,9.751882,-0.02814806,-0.03523165,-0.029710043,-0.050717793405056,0.04906444251537323,-1.7313531637191772,1000.6792,
2021.05.22 15:20:07,5.0,24.0,34.739998,-6.48,-30.599998,-0.6201172,0.6440599,9.75667,0.034160193,-0.034009922,-0.019325333,-0.0657842755317688,0.06347290426492691,-1.7018392086029053,1000.67773,
2021.05.22 15:20:07,5.0,24.0,35.04,-6.18,-29.939999,-0.84278476,0.5458947,10.197216,-0.01776335,-0.0731053,-0.038262155,-0.05330125615000725,0.08246110379695892,-1.7063885927200317,1000.67773,
2021.05.22 15:20:07,5.0,24.0,35.219997,-6.06,-29.76,-0.6703969,0.37590113,10.178062,-0.022650272,-0.03950771,-0.03765129,-0.03683595731854439,0.06577184796333313,-1.7167037725448608,1000.6736,
2021.05.22 15:20:07,5.0,24.0,34.8,-6.12,-29.699999,-0.56744313,0.5219519,9.653716,0.031105869,-0.0046883905,0.052145902,-0.05392197519540787,0.05871220678091049,-1.7034509181976318,1000.6736,
2021.05.22 15:20:08,5.0,24.0,35.28,-6.6,-29.82,-0.4764607,0.6344828,9.873989,0.05004269,1.9853121E-4,0.093073875,-0.0640954002737999,0.048216722905635834,-1.7051739692687988,1000.6758,
2021.05.22 15:20:08,5.0,24.0,34.44,-6.7799997,-30.24,-0.531529,0.6440599,10.180456,-0.011043833,-0.048670687,0.064363204,-0.06309443712234497,0.05216336250305176,-1.7145177125930786,1000.678,
2021.05.22 15:20:08,5.0,24.0,34.14,-6.7799997,-30.599998,-0.3519584,0.5889916,9.98652,0.02316462,0.0044745877,0.061919745,-0.05887395143508911,0.03522876650094986,-1.7179678678512573,1000.678,
2021.05.22 15:20:08,5.0,24.0,34.02,-6.96,-30.66,-0.38308397,0.4860378,10.28341,0.02316462,-0.025457809,0.06925013,-0.04719642549753189,0.03723540157079697,-1.735090732574463,1000.6741,
2021.05.22 15:20:08,5.0,24.0,33.3,-6.96,-30.3,-0.33759275,0.5147691,9.57231,0.06287086,-0.0046883905,0.08635435,-0.05369181931018829,0.035253025591373444,-1.7327219247817993,1000.6782,
2021.05.22 15:20:08,5.0,24.0,34.079998,-6.8999996,-30.24,-0.45730647,0.44533512,9.873989,0.028051542,-0.0065209866,0.06497407,-0.045023106038570404,0.04628118500113487,-1.7365922927856445,1000.6782,
2021.05.22 15:20:08,5.0,24.0,34.2,-7.3799996,-30.3,-0.53871185,0.56744313,9.840469,0.008503855,0.020357084,0.032598212,-0.05751451477408409,0.054689936339855194,-1.7391108274459839,1000.67847,
2021.05.22 15:20:08,5.0,24.0,34.44,-7.2,-30.84,-0.35914123,0.6153286,10.130177,-0.020817677,-0.012018774,0.044815518,-0.060629602521657944,0.03543777018785477,-1.7269116640090942,1000.67847,
2021.05.22 15:20:08,5.0,24.0,34.62,-7.02,-30.66,-0.21309046,0.67757976,9.876384,0.008503855,0.026465736,0.07047185,-0.06848283857107162,0.021572411060333252,-1.7128320932388306,1000.67017,
2021.05.22 15:20:08,5.0,24.0,34.62,-7.08,-30.48,-0.44533512,0.56744313,9.835681,0.00911472,0.011194105,0.03931773,-0.05756957828998566,0.04524660483002663,-1.7269037961959839,1000.67017,
2021.05.22 15:20:08,5.0,24.0,34.559998,-7.14,-30.359999,-0.41181526,0.4932206,9.838076,0.013390777,0.02096795,-0.004664567,-0.05004815384745598,0.04183490574359894,-1.7358840703964233,1000.6658,
2021.05.22 15:20:08,5.0,24.0,34.8,-7.2,-29.88,-0.3615355,0.48124924,9.917087,-0.0037134497,0.024633141,-0.0034428365,-0.04845710098743439,0.0364396795630455,-1.7379385232925415,1000.65967,
2021.05.22 15:20:08,5.0,24.0,34.739998,-7.68,-30.0,-0.30167863,0.5147691,9.943423,-0.019595945,0.017913625,-0.012605815,-0.05169988051056862,0.03033020906150341,-1.7482916116714478,1000.65967,
2021.05.22 15:20:08,5.0,24.0,34.2,-7.68,-30.06,-0.3519584,0.53392327,9.960183,-0.042808827,0.031963523,-0.030931773,-0.05352117121219635,0.03532183915376663,-1.7499489784240723,1000.66113,
2021.05.22 15:20:08,5.0,24.0,34.26,-7.5,-30.24,-0.53871185,0.48124924,10.015251,-0.044641424,0.005085453,-0.053533785,-0.047945503145456314,0.05373736098408699,-1.7515759468078613,1000.66504,
2021.05.22 15:20:08,5.0,24.0,34.32,-7.7999997,-30.359999,-0.47167215,0.46927786,9.98652,-0.01654162,0.013637567,-0.05047946,-0.04690437763929367,0.047195807099342346,-1.7600915431976318,1000.66504,
2021.05.22 15:20:08,5.0,24.0,34.739998,-7.3199997,-30.42,-0.60335726,0.42618093,10.0368,-0.019595945,-0.0022449298,-0.040705618,-0.042359959334135056,0.06004224345088005,-1.7496531009674072,1000.6633,
2021.05.22 15:20:09,5.0,24.0,35.16,-7.62,-30.66,-0.49082634,0.4285752,9.921875,-0.0037134497,0.013637567,-0.030320907,-0.043115485459566116,0.04942881688475609,-1.753778100013733,1000.6633,
2021.05.22 15:20:09,5.0,24.0,35.16,-7.3799996,-30.359999,-0.43336374,0.43336374,10.08708,0.0042277984,-4.1233405E-4,0.0038875462,-0.0428963340818882,0.04293585941195488,-1.7465789318084717,1000.6582,
2021.05.22 15:20:09,5.0,24.0,34.92,-7.44,-30.24,-0.38787252,0.46209505,9.895537,-0.011654698,-0.007742717,-0.009551489,-0.04662766680121422,0.03917665407061577,-1.74578857421875,1000.6582,
2021.05.22 15:20:09,5.0,24.0,34.5,-7.74,-30.48,-0.45970076,0.42618093,10.0200405,0.00789299,-0.012629638,-0.002221106,-0.04246262088418007,0.045845985412597656,-1.7612040042877197,1000.66113,
2021.05.22 15:20:09,5.0,24.0,34.32,-7.3199997,-30.119999,-0.50040346,0.38787252,9.976943,-0.009822102,-0.015683964,-0.023601389,-0.03880859166383743,0.05011399835348129,-1.754274845123291,1000.6636,
2021.05.22 15:20:09,5.0,24.0,34.26,-7.56,-30.3,-0.45730647,0.45491222,9.905115,-0.001269989,-0.0022449298,-0.007108028,-0.045845985412597656,0.04613595828413963,-1.7543065547943115,1000.6636,
2021.05.22 15:20:09,5.0,24.0,34.26,-7.56,-30.06,-0.40223816,0.4764607,9.948212,-0.010432967,-0.008964447,-0.0077188932,-0.04781851917505264,0.04041120037436485,-1.7520067691802979,1000.6614,
2021.05.22 15:20:09,5.0,24.0,34.26,-7.7999997,-29.76,-0.4740664,0.48124924,10.055954,-0.013487294,-0.012018774,-0.008329758,-0.04776769131422043,0.04710798338055611,-1.760284185409546,1000.6614,
2021.05.22 15:20:09,5.0,24.0,33.899998,-7.44,-29.34,-0.5770202,0.45251793,10.161303,-0.0061569107,-0.0065209866,-0.021157928,-0.044432561844587326,0.05672512948513031,-1.7565052509307861,1000.6648,
2021.05.22 15:20:09,5.0,24.0,32.94,-7.14,-28.74,-0.47885495,0.43815228,9.850046,0.006671259,-0.01873829,-0.0077188932,-0.04440058767795563,0.048576243221759796,-1.7524781227111816,1000.66406,
2021.05.22 15:20:09,5.0,24.0,32.579998,-6.42,-28.26,-0.53871185,0.37829542,9.962578,0.020721162,0.013637567,-0.0028319713,-0.037898093461990356,0.05402093008160591,-1.7394509315490723,1000.66406,
2021.05.22 15:20:09,5.0,24.0,32.04,-5.64,-27.779999,-0.44772938,0.44533512,9.778218,-0.0024917193,-0.010797042,-0.002221106,-0.045464564114809036,0.04575648531317711,-1.7099977731704712,1000.67065,
2021.05.22 15:20:09,5.0,24.0,31.92,-5.94,-27.84,-0.5243462,0.4285752,9.9889145,0.0023952026,-0.002855795,0.0044984114,-0.04281989857554436,0.05244467034935951,-1.7232314348220825,1000.67065,
2021.05.22 15:20:09,5.0,24.0,32.34,-5.8199997,-28.019999,-0.505192,0.47167215,10.029617,-0.018985081,-0.026068674,-0.008329758,-0.046933893114328384,0.05032748356461525,-1.713059425354004,1000.6714,
2021.05.22 15:20:09,5.0,24.0,32.219997,-6.0,-28.14,-0.43815228,0.46927786,9.912297,5.6260685E-4,0.010583241,0.011828794,-0.04726158827543259,0.04417414218187332,-1.718296766281128,1000.6665,
2021.05.22 15:20:09,5.0,24.0,32.399998,-6.12,-28.019999,-0.4166038,0.43815228,9.938635,0.0048386636,8.0939644E-4,0.009385334,-0.04401862993836403,0.04189308360219002,-1.724157452583313,1000.6665,
2021.05.22 15:20:10,5.0,24.0,31.98,-5.7599998,-28.38,-0.4668836,0.47167215,9.976943,-0.0061569107,-4.1233405E-4,0.0044984114,-0.04718948155641556,0.046762146055698395,-1.711788535118103,1000.6792,
2021.05.22 15:20:10,5.0,24.0,31.56,-6.06,-28.26,-0.42139238,0.49082634,9.943423,0.0017843375,0.0056963186,-3.885103E-4,-0.049277715384960175,0.042353659868240356,-1.7211617231369019,1000.6792,
2021.05.22 15:20:10,5.0,24.0,31.619999,-6.2999997,-28.08,-0.40463245,0.4764607,9.943423,-0.0031025845,0.0038637226,-0.010773219,-0.047841012477874756,0.04067103564739227,-1.730002760887146,1000.6792,
2021.05.22 15:20:10,5.0,24.0,31.5,-6.18,-28.32,-0.47885495,0.46927786,9.885961,-4.8258353E-5,-0.002855795,-0.002221106,-0.0473780483007431,0.04840004816651344,-1.7277125120162964,1000.6731,
2021.05.22 15:20:10,5.0,24.0,31.619999,-6.2999997,-28.199999,-0.3328042,0.5458947,9.976943,-0.001269989,-0.0022449298,-0.0058862977,-0.05463080108165741,0.033344969153404236,-1.7227064371109009,1000.6731,
2021.05.22 15:20:10,5.0,24.0,31.679998,-5.8799996,-28.14,-0.28970724,0.57462597,10.168485,-0.0061569107,-0.002855795,-0.017492738,-0.056427594274282455,0.028482995927333832,-1.70710027217865,1000.677,
2021.05.22 15:20:10,5.0,24.0,31.859999,-5.46,-28.74,-0.45251793,0.42378664,9.895537,0.040879715,0.019135352,-0.054755516,-0.04275525361299515,0.0456976592540741,-1.706475019454956,1000.67725,
2021.05.22 15:20:10,5.0,24.0,31.439999,-5.52,-28.68,-0.5458947,0.3519584,9.885961,0.037214525,0.002031127,-0.07552493,-0.03553272783756256,0.05516316369175911,-1.7185702323913574,1000.67725,
2021.05.22 15:20:10,5.0,24.0,31.439999,-5.52,-28.38,-0.6296943,0.35914123,9.814133,0.017666833,0.0087506445,-0.05047946,-0.03650297597050667,0.06407415866851807,-1.7188758850097656,1000.67285,
2021.05.22 15:20:10,5.0,24.0,31.679998,-5.58,-28.74,-0.53871185,0.49082634,10.060742,-4.8258353E-5,0.0044745877,-0.026044851,-0.048678021878004074,0.05349484831094742,-1.7060058116912842,1000.67285,
2021.05.22 15:20:10,5.0,24.0,31.14,-5.7,-28.74,-0.38068968,0.63208854,10.00328,-0.03242412,-4.1233405E-4,0.008163603,-0.06305870413780212,0.03803813084959984,-1.6968294382095337,1000.6758,
2021.05.22 15:20:10,5.0,24.0,31.679998,-5.7599998,-29.22,-0.4956149,0.53392327,10.0439825,0.0048386636,0.009972375,0.009996199,-0.053044117987155914,0.04930447041988373,-1.706434726715088,1000.6758,
2021.05.22 15:20:10,5.0,24.0,31.74,-5.58,-29.039999,-0.60335726,0.44054657,9.921875,0.014001642,8.0939644E-4,-3.885103E-4,-0.044290691614151,0.06073601543903351,-1.7104556560516357,1000.6714,
2021.05.22 15:20:10,5.0,24.0,31.679998,-5.58,-28.619999,-0.50998056,0.44533512,9.809344,0.0182777,0.017302757,0.024656964,-0.04530681297183037,0.05194249749183655,-1.709375023841858,1000.6704,
2021.05.22 15:20:10,5.0,24.0,32.04,-5.7,-28.38,-0.43815228,0.50998056,10.022434,0.010947316,0.005085453,0.039928596,-0.050791624933481216,0.04368933290243149,-1.7058848142623901,1000.6704,
2021.05.22 15:20:10,5.0,24.0,31.859999,-5.8199997,-27.84,-0.43815228,0.5770202,9.905115,-0.0024917193,0.0038637226,0.047869842,-0.058132290840148926,0.044206131249666214,-1.7043960094451904,1000.67114,
2021.05.22 15:20:10,5.0,24.0,31.98,-5.46,-28.26,-0.5123748,0.5123748,10.048771,-0.0037134497,-0.0034666602,0.030765617,-0.05087870731949806,0.05094468593597412,-1.699098825454712,1000.67114,
2021.05.22 15:20:11,5.0,24.0,32.16,-5.4,-28.019999,-0.40223816,0.50758624,9.893144,0.017666833,0.017302757,0.028322157,-0.051219671964645386,0.04063589498400688,-1.69573175907135,1000.6731,
2021.05.22 15:20:11,5.0,24.0,32.28,-5.2799997,-27.539999,-0.5219519,0.4644893,10.163696,0.016445102,-0.0034666602,0.033819944,-0.04560902714729309,0.05130946263670921,-1.698085904121399,1000.66797,
2021.05.22 15:20:11,5.0,24.0,32.52,-5.46,-27.359999,-0.33519846,0.51955765,9.885961,0.012779912,-0.007742717,0.035041675,-0.05247668921947479,0.03389352932572365,-1.6955763101577759,1000.66797,
2021.05.22 15:20:11,5.0,24.0,32.399998,-6.0,-27.42,-0.42618093,0.5411061,9.974549,0.026829813,0.0063071838,0.043593787,-0.05414625257253647,0.042700864374637604,-1.7119585275650024,1000.6692,
2021.05.22 15:20:11,5.0,24.0,31.98,-6.42,-27.539999,-0.48124924,0.5411061,10.00328,-0.0037134497,-0.012629638,8.332202E-4,-0.05397789180278778,0.04807208478450775,-1.727683186531067,1000.6692,
2021.05.22 15:20:11,5.0,24.0,31.98,-6.7799997,-27.84,-0.5147691,0.5363176,10.015251,0.01949943,0.0063071838,0.0063310075,-0.05342859774827957,0.0513533316552639,-1.7395490407943726,1000.67163,
2021.05.22 15:20:11,5.0,24.0,32.16,-6.72,-27.96,-0.45251793,0.52674043,9.917087,0.006671259,-0.0059101214,-3.885103E-4,-0.0530095137655735,0.04559849947690964,-1.736290693283081,1000.676,
2021.05.22 15:20:11,5.0,24.0,32.399998,-6.72,-27.359999,-0.3974496,0.5770202,9.912297,0.026829813,0.0032528574,0.023435233,-0.05810035392642021,0.0400751531124115,-1.7307411432266235,1000.676,
2021.05.22 15:20:11,5.0,24.0,32.7,-6.6,-27.84,-0.4836435,0.5698374,9.943423,-0.0031025845,-0.0071318517,-0.007108028,-0.05717790871858597,0.04860123619437218,-1.7263333797454834,1000.6731,
2021.05.22 15:20:11,5.0,24.0,32.52,-6.24,-27.9,-0.45970076,0.59378016,9.931452,-0.001269989,-0.0022449298,-0.005275432,-0.05965304747223854,0.04625435173511505,-1.7133607864379883,1000.6731,
2021.05.22 15:20:11,5.0,24.0,32.1,-5.94,-28.14,-0.44054657,0.5961744,10.008069,0.0030060678,0.005085453,0.0069418726,-0.059441640973091125,0.043990738689899445,-1.705409288406372,1000.6726,
2021.05.22 15:20:11,5.0,24.0,32.1,-5.94,-28.56,-0.44294083,0.57462597,9.943423,0.003616933,-0.0046883905,8.332202E-4,-0.057668287307024,0.044516682624816895,-1.7064422369003296,1000.67505,
2021.05.22 15:20:11,5.0,24.0,32.219997,-5.8799996,-28.26,-0.46209505,0.56744313,9.873989,0.00911472,0.0026419922,-0.007108028,-0.05734271556138992,0.046765103936195374,-1.704971432685852,1000.67505,
2021.05.22 15:20:11,5.0,24.0,32.16,-6.2999997,-27.96,-0.43096948,0.56265455,9.924269,0.0048386636,0.0014202617,-0.0028319713,-0.05658097192645073,0.043398551642894745,-1.7194914817810059,1000.6846,
2021.05.22 15:20:11,5.0,24.0,32.219997,-6.7799997,-27.96,-0.40223816,0.6201172,10.118205,-0.013487294,-0.0052992557,-0.004664567,-0.061162516474723816,0.039732981473207474,-1.7297016382217407,1000.67676,
2021.05.22 15:20:11,5.0,24.0,32.1,-6.72,-27.539999,-0.42139238,0.63208854,9.93624,0.012169046,0.008139779,-0.010162354,-0.0634719580411911,0.04238424077630043,-1.7272498607635498,1000.67676,
2021.05.22 15:20:11,5.0,24.0,32.04,-6.7799997,-27.539999,-0.46927786,0.59378016,10.005674,0.015834238,-0.0022449298,-0.0119949505,-0.05920989066362381,0.046866826713085175,-1.7337995767593384,1000.6743,
2021.05.22 15:20:12,5.0,24.0,32.16,-6.72,-27.599998,-0.5219519,0.5770202,9.720756,0.015223373,0.0014202617,-0.018714469,-0.05920495092868805,0.05364307016134262,-1.7318066358566284,1000.6743,
2021.05.22 15:20:12,5.0,24.0,32.28,-6.72,-27.599998,-0.52913475,0.54350036,10.099051,0.021332026,0.013026701,-0.005275432,-0.05369160696864128,0.05234663560986519,-1.7362161874771118,1000.6787,
2021.05.22 15:20:12,5.0,24.0,32.7,-7.02,-27.779999,-0.37111259,0.6273,9.816526,0.006671259,0.009972375,-0.0040537016,-0.06377024203538895,0.03778688609600067,-1.7324585914611816,1000.6787,
2021.05.22 15:20:12,5.0,24.0,32.579998,-7.02,-27.539999,-0.4285752,0.6081458,9.979338,0.010947316,0.011804971,0.009996199,-0.060809310525655746,0.04291988164186478,-1.7366241216659546,1000.6846,
2021.05.22 15:20:12,5.0,24.0,32.52,-6.8999996,-27.599998,-0.52913475,0.5650489,9.981731,-0.011043833,-0.0016340646,-0.019325333,-0.05646883696317673,0.05296074599027634,-1.738059401512146,1000.6843,
2021.05.22 15:20:12,5.0,24.0,32.7,-6.66,-27.66,-0.43336374,0.5889916,9.895537,-0.0049351803,0.0063071838,-0.010162354,-0.0593939907848835,0.04376589134335518,-1.7260301113128662,1000.6843,
2021.05.22 15:20:12,5.0,24.0,32.34,-6.24,-27.96,-0.46927786,0.56744313,9.957788,-0.010432967,-0.0059101214,-0.002221106,-0.05686032399535179,0.04709187150001526,-1.716781735420227,1000.6846,
2021.05.22 15:20:12,5.0,24.0,32.1,-6.18,-27.9,-0.4070267,0.5913859,9.972155,-0.007378641,-0.002855795,-9.993755E-4,-0.05918518081307411,0.040793683379888535,-1.7134366035461426,1000.6846,
2021.05.22 15:20:12,5.0,24.0,32.16,-5.8799996,-27.9,-0.409421,0.58420306,9.883567,-0.0061569107,-4.1233405E-4,2.2235495E-4,-0.05898935720324516,0.04140074551105499,-1.7039028406143188,1000.6821,
2021.05.22 15:20:12,5.0,24.0,31.679998,-6.06,-27.599998,-0.54350036,0.5650489,9.941029,-0.0018808541,-0.0022449298,-0.0058862977,-0.056694503873586655,0.054618071764707565,-1.7155206203460693,1000.6885,
2021.05.22 15:20:12,5.0,24.0,31.74,-6.24,-27.06,-0.42618093,0.59378016,9.993703,-0.013487294,-0.018127427,-3.885103E-4,-0.05929189920425415,0.042619120329618454,-1.7185057401657104,1000.6885,
2021.05.22 15:20:12,5.0,24.0,31.92,-6.24,-27.24,-0.41420954,0.59378016,9.869201,5.6260685E-4,-0.010797042,0.017937446,-0.06003980338573456,0.04194530099630356,-1.7165974378585815,1000.6846,
2021.05.22 15:20:12,5.0,24.0,31.679998,-6.24,-27.0,-0.4668836,0.53392327,10.024829,0.010947316,0.002031127,-0.011384085,-0.053152307868003845,0.04653909429907799,-1.724881649017334,1000.6843,
2021.05.22 15:20:12,5.0,24.0,31.859999,-6.0,-27.06,-0.47167215,0.5602603,9.799767,-0.004324315,-0.010186179,-0.012605815,-0.057042721658945084,0.04809384420514107,-1.7127461433410645,1000.6843,
2021.05.22 15:20:12,5.0,24.0,32.16,-6.06,-27.48,-0.4764607,0.5698374,10.024829,0.0023952026,-0.0059101214,0.0069418726,-0.05671761929988861,0.04749232530593872,-1.7128511667251587,1000.6809,
2021.05.22 15:20:12,5.0,24.0,32.1,-6.3599997,-27.599998,-0.32562137,0.59378016,9.950606,0.0023952026,-0.0071318517,0.0044984114,-0.059570278972387314,0.032712098211050034,-1.718648076057434,1000.6809,
2021.05.22 15:20:12,5.0,24.0,32.1,-6.48,-27.359999,-0.38547826,0.56265455,9.876384,0.01033645,0.0032528574,-0.008329758,-0.05686497688293457,0.03901049867272377,-1.72577702999115,1000.6753,
2021.05.22 15:20:13,5.0,24.0,31.859999,-6.6,-27.48,-0.4932206,0.5554718,9.976943,-0.0031025845,-0.0016340646,-0.023601389,-0.055550429970026016,0.049395833164453506,-1.732788324356079,1000.6753,
2021.05.22 15:20:13,5.0,24.0,31.5,-6.24,-27.359999,-0.37111259,0.6440599,9.967366,-0.004324315,-0.011407908,-0.002221106,-0.06448259204626083,0.03721557557582855,-1.7139238119125366,1000.6775,
2021.05.22 15:20:13,5.0,24.0,32.1,-6.12,-27.24,-0.40223816,0.62251145,9.931452,0.003616933,-4.1233405E-4,-0.0138275465,-0.06254776567220688,0.04047932103276253,-1.7095613479614258,1000.67944,
2021.05.22 15:20:13,5.0,24.0,32.16,-6.12,-27.539999,-0.47167215,0.56744313,9.914692,0.005449529,-4.1233405E-4,-0.012605815,-0.057105738669633865,0.04753720760345459,-1.7143021821975708,1000.67944,
2021.05.22 15:20:13,5.0,24.0,32.16,-5.8799996,-27.539999,-0.4764607,0.55307746,9.905115,-0.0024917193,-0.004077526,-0.0119949505,-0.055715352296829224,0.048065438866615295,-1.7080143690109253,1000.6802,
2021.05.22 15:20:13,5.0,24.0,32.64,-6.2999997,-27.72,-0.35674694,0.5913859,9.962578,-0.009211237,-0.0016340646,-0.0034428365,-0.0592532642185688,0.035793405026197433,-1.7145869731903076,1000.6802,
2021.05.22 15:20:13,5.0,24.0,31.98,-6.2999997,-27.72,-0.409421,0.67279124,9.938635,-0.029980656,8.0939644E-4,0.0044984114,-0.06753430515527725,0.041171614080667496,-1.7103408575057983,1000.6821,
2021.05.22 15:20:13,5.0,24.0,31.92,-6.24,-27.599998,-0.32562137,0.6153286,10.089474,-0.033645846,0.009972375,0.009385334,-0.06088011711835861,0.032262176275253296,-1.7144931554794312,1000.6765,
2021.05.22 15:20:13,5.0,24.0,31.92,-6.54,-27.24,-0.30167863,0.6249057,10.000886,-0.026315464,0.011804971,-0.0138275465,-0.06237560138106346,0.030156046152114868,-1.7230644226074219,1000.6765,
2021.05.22 15:20:13,5.0,24.0,31.14,-6.24,-27.0,-0.4189981,0.50040346,9.768641,0.009725586,0.01974622,-0.03887302,-0.05113382264971733,0.04286587983369827,-1.7291975021362305,1000.67944,
2021.05.22 15:20:13,5.0,24.0,31.32,-6.06,-26.58,-0.54350036,0.52674043,9.941029,-0.01776335,0.067393705,-0.07430321,-0.05285821482539177,0.054618071764707565,-1.7224935293197632,1000.67944,
2021.05.22 15:20:13,5.0,24.0,31.56,-6.0,-27.0,-0.48843205,0.56265455,10.079897,-0.08373679,0.066171974,-0.077968396,-0.05569639801979065,0.048418186604976654,-1.7155396938323975,1000.6765,
2021.05.22 15:20:13,5.0,24.0,31.8,-5.8799996,-27.119999,-0.4860378,0.62251145,9.924269,0.031105869,0.07228063,-0.021768793,-0.06256930530071259,0.04893556982278824,-1.7039754390716553,1000.6741,
2021.05.22 15:20:13,5.0,24.0,32.76,-6.0,-27.48,-0.7350424,0.42139238,9.323306,0.0323276,0.071669765,-0.03520783,-0.0450274720788002,0.0786764994263649,-1.7219327688217163,1000.6741,
2021.05.22 15:20:13,5.0,24.0,32.88,-5.7599998,-27.359999,-0.4740664,0.49800915,10.515655,0.027440678,-0.007742717,-0.08163359,-0.04727553203701973,0.045051462948322296,-1.708834171295166,1000.676,
2021.05.22 15:20:13,5.0,24.0,32.76,-5.8799996,-27.599998,-0.72546524,0.49082634,10.276228,-0.09473237,-0.060277127,-0.030320907,-0.047608695924282074,0.07047951966524124,-1.7146883010864258,1000.676,
