Time,X-cord,Y-cord,Mag_x,Mag_y,Mag_z,Acc_x,Acc_y,Acc_z,Gyro_x,Gyro_y,Gyro_z,Orn_x,Orn_y,Orn_z,Pressure,
2021.05.22 15:19:22,1.0,24.0,36.3,3.36,-34.559998,-0.4932206,0.5985687,9.933846,-0.045252286,-0.098150775,0.118119344,-0.06010885164141655,0.049609776586294174,-1.411887526512146,1000.645,
2021.05.22 15:19:22,1.0,24.0,36.78,2.6399999,-35.94,-0.54828894,0.5650489,10.113417,-0.068465166,-0.14885259,0.10529117,-0.05573151260614395,0.05416099354624748,-1.4351829290390015,1000.645,
2021.05.22 15:19:22,1.0,24.0,38.16,2.1,-36.899998,-0.53392327,0.46927786,10.022434,-0.0024917193,-0.0431729,0.088797815,-0.0467224158346653,0.05322250351309776,-1.4629379510879517,1000.65674,
2021.05.22 15:19:22,1.0,24.0,38.94,1.56,-37.079998,-0.6296943,0.42139238,10.005674,-0.0061569107,-0.041951172,0.071082726,-0.0420074537396431,0.06285082548856735,-1.4830106496810913,1000.65674,
2021.05.22 15:19:22,1.0,24.0,39.48,1.02,-37.92,-0.24421602,0.34477556,9.960183,0.0072821244,-0.05844453,0.1504952,-0.0345911830663681,0.024514317512512207,-1.5095345973968506,1000.6521,
2021.05.22 15:19:22,1.0,24.0,39.6,0.96,-37.739998,-0.46927786,0.56744313,10.051166,0.037214525,-0.095096454,0.17554069,-0.05633435398340225,0.046655017882585526,-1.4867262840270996,1000.6614,
2021.05.22 15:19:22,1.0,24.0,39.66,0.71999997,-38.219997,0.0071828244,0.59378016,9.684841,0.057373073,-0.15862644,0.20913827,-0.06123359873890877,-7.41656287573278E-4,-1.4939546585083008,1000.6614,
2021.05.22 15:19:22,1.0,24.0,39.66,0.48,-39.059998,-0.1699935,0.5219519,9.5244255,0.11357268,-0.17756325,0.24212499,-0.05473794788122177,0.01784626953303814,-1.5027575492858887,1000.66064,
2021.05.22 15:19:22,1.0,24.0,39.719997,0.17999999,-39.3,-0.35914123,0.50998056,10.111023,-0.012876429,-0.0871552,0.052756768,-0.05036366358399391,0.035504844039678574,-1.5126904249191284,1000.66064,
2021.05.22 15:19:22,1.0,24.0,39.54,-0.06,-40.02,-0.40463245,0.72785956,9.699207,-0.019595945,-0.038285982,0.07230445,-0.07483796030282974,0.04169391840696335,-1.4902833700180054,1000.66504,
2021.05.22 15:19:22,1.0,24.0,38.52,-0.48,-39.84,-0.17478207,0.70631105,10.0368,0.090970665,0.06433938,0.082689166,-0.07024569809436798,0.01741236262023449,-1.5083684921264648,1000.6592,
2021.05.22 15:19:22,1.0,24.0,38.34,-0.96,-39.66,-0.86912173,0.7637737,10.917893,0.05004269,0.058841594,-0.026044851,-0.06962282210588455,0.0794377401471138,-1.5137104988098145,1000.6592,
2021.05.22 15:19:22,1.0,24.0,38.34,-1.0799999,-39.84,-1.0079896,0.7589851,9.866806,-0.05930219,0.07472409,-0.12072896,-0.07637593150138855,0.10180647671222687,-1.5050532817840576,1000.6572,
2021.05.22 15:19:22,1.0,24.0,38.34,-1.1999999,-39.48,-0.6943397,0.92658436,9.239507,0.1465594,0.07716755,0.06130888,-0.09967168420553207,0.07500800490379333,-1.48568856716156,1000.6572,
2021.05.22 15:19:23,1.0,24.0,38.879997,-1.14,-39.36,-0.3232271,0.9337672,9.761458,0.15450066,-0.016905695,0.10651291,-0.09531646221876144,0.033100489526987076,-1.4981913566589355,1000.66016,
2021.05.22 15:19:23,1.0,24.0,38.64,-1.0799999,-39.239998,-0.5913859,0.69673395,10.865219,0.08302941,-0.06821837,-0.0028319713,-0.06394309550523758,0.05437560752034187,-1.5280213356018066,1000.65967,
2021.05.22 15:19:23,1.0,24.0,38.46,-1.26,-39.239998,-0.21069619,1.0750294,9.991309,0.026829813,-0.11769846,-0.21907826,-0.10716044902801514,0.021084822714328766,-1.490437626838684,1000.65967,
2021.05.22 15:19:23,1.0,24.0,37.8,-1.3199999,-39.48,-0.06943397,1.0534809,9.14613,0.09035979,0.025854873,-0.039483886,-0.11467459052801132,0.00759147759526968,-1.4846400022506714,1000.65967,
2021.05.22 15:19:23,1.0,24.0,37.38,-1.14,-39.36,-0.20111908,0.94573855,9.881172,0.026829813,-0.099372506,-0.029099176,-0.095400869846344,0.020350957289338112,-1.4974782466888428,1000.65967,
2021.05.22 15:19:23,1.0,24.0,36.96,-0.84,-39.3,-0.36632404,0.9601042,10.108628,-0.035478443,-0.07615962,-0.17326339,-0.09463287144899368,0.036222897469997406,-1.4864821434020996,1000.66406,
2021.05.22 15:19:23,1.0,24.0,36.78,-0.17999999,-39.36,0.15802214,0.7781393,9.811738,-4.8258353E-5,-0.08593347,-0.095683485,-0.079131118953228,-0.016104023903608322,-1.493836522102356,1000.66626,
2021.05.22 15:19:23,1.0,24.0,36.899998,0.24,-39.059998,-0.028731298,0.5961744,10.166091,-0.010432967,-0.04439463,-0.08652051,-0.058576103299856186,0.0028261819388717413,-1.5020709037780762,1000.66626,
2021.05.22 15:19:23,1.0,24.0,36.66,0.29999998,-39.42,0.13168511,0.7877164,10.225947,-0.025093732,-0.060277127,-0.088353105,-0.07687296718358994,-0.012876834720373154,-1.4825023412704468,1000.6604,
2021.05.22 15:19:23,1.0,24.0,36.719997,0.17999999,-39.3,0.035914123,0.9888355,9.976943,5.6260685E-4,-0.01873829,-0.027877446,-0.0987888053059578,-0.0035996967926621437,-1.4615741968154907,1000.66113,
2021.05.22 15:19:23,1.0,24.0,36.78,0.17999999,-39.42,0.03351985,1.1444633,9.749487,0.024997218,-0.022403482,-0.0138275465,-0.1168515682220459,-0.0034381006844341755,-1.4425649642944336,1000.66113,
2021.05.22 15:19:23,1.0,24.0,36.239998,-0.06,-39.54,0.0023942748,0.85954463,9.80695,0.011558182,0.016081028,-0.04681427,-0.08742307871580124,-2.44140625E-4,-1.4775011539459229,1000.6655,
2021.05.22 15:19:23,1.0,24.0,36.3,0.42,-39.6,-0.22027329,0.7110996,10.702409,-0.020817677,-0.054168478,-0.04314908,-0.0663314238190651,0.020578749477863312,-1.4838387966156006,1000.6655,
2021.05.22 15:19:23,1.0,24.0,36.42,0.59999996,-39.84,-0.15562786,0.9601042,9.624985,-0.011043833,-0.022403482,0.01610485,-0.09940944612026215,0.016167744994163513,-1.4426579475402832,1000.65405,
2021.05.22 15:19:23,1.0,24.0,36.42,0.29999998,-39.48,-0.026337024,1.0079896,9.311335,0.0763099,0.0710589,0.05764369,-0.10783369094133377,0.0028284830041229725,-1.4459035396575928,1000.65405,
2021.05.22 15:19:23,1.0,24.0,36.899998,0.71999997,-39.66,-0.1340794,0.8739103,9.941029,-0.042808827,-0.007742717,-0.015049276,-0.08767609298229218,0.013486659154295921,-1.4548970460891724,1000.64795,
2021.05.22 15:19:23,1.0,24.0,37.02,0.35999998,-39.719997,-0.31604427,0.68236834,10.190034,-0.10694968,-0.025457809,-0.039483886,-0.06683241575956345,0.031005097553133965,-1.4847056865692139,1000.655,
2021.05.22 15:19:24,1.0,24.0,36.66,0.65999997,-39.54,-0.021548472,0.8356019,9.828498,-0.068465166,-0.019960022,0.061919745,-0.08481410890817642,0.002192444633692503,-1.4614825248718262,1000.655,
2021.05.22 15:19:24,1.0,24.0,36.3,1.02,-39.66,0.021548472,0.9720756,9.80695,-0.03303498,-4.1233405E-4,0.099182524,-0.09879814088344574,-0.0021972618997097015,-1.4364224672317505,1000.64966,
2021.05.22 15:19:24,1.0,24.0,36.0,0.78,-39.54,-0.13886794,0.8930645,10.024829,-0.075795546,0.036239583,0.011828794,-0.0888422280550003,0.013851514086127281,-1.449277639389038,1000.64966,
2021.05.22 15:19:24,1.0,24.0,35.88,0.78,-39.36,-0.22266756,0.6177229,10.269045,-0.10450622,0.036850445,-0.021768793,-0.060067396610975266,0.02167997695505619,-1.4800208806991577,1000.6538,
2021.05.22 15:19:24,1.0,24.0,35.94,0.78,-39.42,-0.07422252,0.5913859,9.960183,0.012169046,0.025854873,0.03137648,-0.059303730726242065,0.007451785262674093,-1.4831883907318115,1000.6531,
2021.05.22 15:19:24,1.0,24.0,36.239998,0.71999997,-39.42,-0.19393626,0.5889916,9.818921,0.020110294,0.05212208,0.046648115,-0.059901922941207886,0.019748711958527565,-1.4829939603805542,1000.6531,
2021.05.22 15:19:24,1.0,24.0,36.6,0.78,-39.48,-0.23463893,0.65363705,9.814133,-0.068465166,0.0063071838,0.009385334,-0.06648445129394531,0.02390371635556221,-1.4740748405456543,1000.647,
2021.05.22 15:19:24,1.0,24.0,36.42,0.78,-39.0,-0.11013664,0.6464542,10.034406,-0.01654162,0.01974622,0.01366139,-0.06433098763227463,0.010975460521876812,-1.4790531396865845,1000.647,
2021.05.22 15:19:24,1.0,24.0,36.66,0.53999996,-39.42,-0.17717634,0.6440599,9.960183,-0.007989507,-0.024236077,-0.0058862977,-0.06456337124109268,0.01778658665716648,-1.4841269254684448,1000.6384,
2021.05.22 15:19:24,1.0,24.0,36.3,0.53999996,-39.719997,-0.17957062,0.70870537,10.010463,0.015834238,-0.004077526,-0.011384085,-0.07066720724105835,0.01793636940419674,-1.4758447408676147,1000.64307,
2021.05.22 15:19:24,1.0,24.0,36.48,0.71999997,-39.36,-0.2849187,0.71588814,9.905115,0.024997218,0.009972375,-0.015049276,-0.07211941480636597,0.028756873682141304,-1.4684557914733887,1000.64307,
2021.05.22 15:19:24,1.0,24.0,36.42,1.0799999,-39.84,-0.2777359,0.7589851,9.835681,0.04882096,-0.01629483,0.01243966,-0.07698331773281097,0.028230085968971252,-1.4517889022827148,1000.6389,
2021.05.22 15:19:24,1.0,24.0,36.48,1.1999999,-39.42,-0.3040729,0.7110996,9.962578,0.037214525,8.0939644E-4,-0.006497163,-0.0712231695652008,0.03051203303039074,-1.4555954933166504,1000.6389,
2021.05.22 15:19:24,1.0,24.0,36.899998,1.26,-39.12,-0.19633053,0.749408,9.816526,0.035381928,0.018524488,0.020991774,-0.07617849111557007,0.019997334107756615,-1.452571988105774,1000.63477,
2021.05.22 15:19:24,1.0,24.0,36.719997,1.26,-39.54,-0.15323359,0.74222517,9.885961,0.036603656,0.010583241,0.016715717,-0.0749291479587555,0.015498879365622997,-1.4533802270889282,1000.64014,
2021.05.22 15:19:24,1.0,24.0,36.719997,0.78,-39.3,-0.11253092,0.75180227,9.876384,-0.0049351803,-4.1233405E-4,0.008163603,-0.07596977800130844,0.01139344647526741,-1.4666237831115723,1000.64014,
2021.05.22 15:19:24,1.0,24.0,36.36,0.78,-38.82,-0.17957062,0.7901107,9.993703,-0.023872003,-0.01751656,0.014883121,-0.0788840651512146,0.017966443672776222,-1.4621950387954712,1000.6384,
2021.05.22 15:19:25,1.0,24.0,35.82,0.65999997,-37.86,-0.28013015,0.80208206,9.859624,-0.011654698,0.02096795,-0.0028319713,-0.08113882690668106,0.028404206037521362,-1.461599349975586,1000.6384,
2021.05.22 15:19:25,1.0,24.0,35.64,0.65999997,-37.5,-0.38308397,0.749408,10.099051,-0.01654162,0.027687468,-0.024212256,-0.0740169808268547,0.03791448846459389,-1.4679460525512695,1000.6406,
2021.05.22 15:19:25,1.0,24.0,35.46,1.26,-37.02,-0.25139886,0.7110996,9.869201,-0.022650272,-0.007742717,0.0057201423,-0.07190486043691635,0.025467565283179283,-1.4559500217437744,1000.6399,
2021.05.22 15:19:25,1.0,24.0,35.28,1.26,-37.26,-0.11971374,0.7853221,9.864412,-0.012265563,0.006918049,0.036263406,-0.07943826168775558,0.012135326862335205,-1.449456810951233,1000.6399,
2021.05.22 15:19:25,1.0,24.0,35.76,1.1999999,-37.739998,-0.18914771,0.74701375,9.864412,-0.031202385,-0.010797042,-0.014438411,-0.07557005435228348,0.019172407686710358,-1.4543650150299072,1000.64355,
2021.05.22 15:19:25,1.0,24.0,35.399998,1.5,-37.559998,-0.13168511,0.7685622,9.991309,-0.034867577,1.9853121E-4,-0.010162354,-0.07676523923873901,0.013179201632738113,-1.4450637102127075,1000.64355,
2021.05.22 15:19:25,1.0,24.0,35.579998,1.26,-37.8,-0.23942748,0.5794145,9.921875,-0.09106718,-0.040729437,-0.08346619,-0.0583144947886467,0.02412658929824829,-1.4698563814163208,1000.64307,
2021.05.22 15:19:25,1.0,24.0,35.52,1.26,-37.68,-0.20111908,0.50758624,9.98652,-0.07518469,-0.051725015,-0.05047946,-0.05077315866947174,0.020136334002017975,-1.47879159450531,1000.6531,
2021.05.22 15:19:25,1.0,24.0,34.92,1.56,-37.62,0.014365649,0.55307746,10.027223,-0.039143633,-0.15801556,-0.01566014,-0.055101700127124786,-0.0014326638774946332,-1.4674667119979858,1000.6531,
2021.05.22 15:19:25,1.0,24.0,34.739998,1.38,-37.92,-0.08140534,0.6153286,9.785401,0.10624229,-0.08898779,0.008163603,-0.06279745697975159,0.008318867534399033,-1.4615675210952759,1000.65234,
2021.05.22 15:19:25,1.0,24.0,33.96,1.5,-37.62,0.2466103,0.7039168,10.051166,0.082418546,-0.14885259,0.09124128,-0.06989821046590805,-0.024530570954084396,-1.4547582864761353,1000.657,
2021.05.22 15:19:25,1.0,24.0,34.02,1.74,-37.38,0.30646718,0.81165916,9.957788,-0.015930755,-0.062109724,0.082689166,-0.08129185438156128,-0.030766917392611504,-1.4383562803268433,1000.657,
2021.05.22 15:19:25,1.0,24.0,33.78,1.68,-37.8,0.13647367,0.72546524,9.814133,-6.591236E-4,0.057619866,0.0130505245,-0.0737791508436203,-0.013904934749007225,-1.4424514770507812,1000.6653,
2021.05.22 15:19:25,1.0,24.0,34.02,1.74,-38.219997,0.117319465,0.70631105,10.130177,-0.058080457,0.035628714,-0.059031576,-0.06960615515708923,-0.01158066838979721,-1.444759726524353,1000.6653,
2021.05.22 15:19:25,1.0,24.0,34.559998,2.1,-38.52,-0.102953814,0.6081458,9.838076,-0.005546046,-0.008964447,-0.03642956,-0.06173359230160713,0.010464450344443321,-1.4399526119232178,1000.667,
2021.05.22 15:19:25,1.0,24.0,34.38,1.86,-38.94,-0.14126222,0.58420306,10.228342,-0.01776335,-0.009575313,-0.049868595,-0.05704868584871292,0.013809983618557453,-1.45010244846344,1000.667,
2021.05.22 15:19:26,1.0,24.0,34.559998,2.1,-38.399998,-0.117319465,0.70631105,9.890749,0.054929614,-0.05600107,-0.009551489,-0.07128526270389557,0.011860978789627552,-1.4292736053466797,1000.667,
2021.05.22 15:19:26,1.0,24.0,34.5,1.62,-38.04,0.031125572,0.75659084,10.000886,0.041490577,-0.0034666602,0.03443081,-0.07550818473100662,-0.0031122714281082153,-1.4421888589859009,1000.6577,
2021.05.22 15:19:26,1.0,24.0,34.44,1.14,-37.86,0.12689656,0.7326481,9.972155,0.041490577,0.015470162,0.028322157,-0.07333169877529144,-0.012724402360618114,-1.4601794481277466,1000.6577,
2021.05.22 15:19:26,1.0,24.0,34.5,1.5,-37.26,0.043096945,0.80208206,9.960183,0.056151345,0.08144361,0.008163603,-0.080354705452919,-0.0043268958106637,-1.442428469657898,1000.64453,
2021.05.22 15:19:26,1.0,24.0,34.44,1.3199999,-37.559998,-0.11253092,0.7685622,9.948212,0.013390777,0.057619866,-0.032153502,-0.07709825038909912,0.011311190202832222,-1.446811318397522,1000.64453,
2021.05.22 15:19:26,1.0,24.0,34.14,1.62,-36.84,-0.2561874,0.6656084,9.976943,-0.03303498,0.033185255,-0.05719898,-0.06659406423568726,0.0256723053753376,-1.4471076726913452,1000.6492,
2021.05.22 15:19:26,1.0,24.0,34.079998,1.56,-36.719997,-0.23942748,0.7350424,9.993703,-0.007989507,0.030741792,-0.03887302,-0.07339737564325333,0.023953251540660858,-1.4417340755462646,1000.64526,
2021.05.22 15:19:26,1.0,24.0,33.96,1.38,-37.2,-0.17717634,0.7637737,9.814133,0.017666833,0.018524488,-0.026044851,-0.07765471190214157,0.01805122196674347,-1.4420535564422607,1000.64526,
2021.05.22 15:19:26,1.0,24.0,34.44,1.62,-36.84,-0.16759923,0.7446195,9.979338,0.008503855,0.024633141,-0.006497163,-0.07446764409542084,0.01679304614663124,-1.4414383172988892,1000.6433,
2021.05.22 15:19:26,1.0,24.0,35.1,1.9799999,-37.44,0.03351985,0.82602483,9.998491,0.0048386636,-0.015683964,0.0057201423,-0.08242730051279068,-0.0033524781465530396,-1.4285106658935547,1000.6433,
2021.05.22 15:19:26,1.0,24.0,35.16,2.46,-36.899998,-0.16041641,0.7972935,9.909904,0.026829813,-0.004077526,0.0063310075,-0.08027082681655884,0.016186071559786797,-1.4142061471939087,1000.6411,
2021.05.22 15:19:26,1.0,24.0,35.16,2.22,-36.36,-0.2681588,0.7541966,9.900327,0.031105869,0.025244007,-0.043759942,-0.07600434124469757,0.027079232037067413,-1.424159288406372,1000.645,
2021.05.22 15:19:26,1.0,24.0,34.98,2.3999999,-36.36,-0.31604427,0.7637737,9.950606,0.030495005,0.026465736,-0.026044851,-0.07656782865524292,0.0317506343126297,-1.416513442993164,1000.645,
2021.05.22 15:19:26,1.0,24.0,34.44,2.28,-35.94,-0.20351335,0.81644773,9.964972,0.01949943,0.014859296,8.332202E-4,-0.08173220604658127,0.020420033484697342,-1.4158600568771362,1000.6531,
2021.05.22 15:19:26,1.0,24.0,34.2,1.9799999,-36.36,-0.09337672,0.8834874,9.893144,0.016445102,0.025854873,0.015493986,-0.08906278759241104,0.009438247419893742,-1.4173895120620728,1000.6455,
2021.05.22 15:19:26,1.0,24.0,34.38,2.28,-36.54,-0.15083931,0.85236186,9.873989,0.0060603945,0.007528914,-0.0028319713,-0.0861004889011383,0.015275242738425732,-1.4107656478881836,1000.6455,
2021.05.22 15:19:26,1.0,24.0,34.5,2.3999999,-36.719997,-0.23942748,0.80687064,9.984126,-0.0024917193,-0.0016340646,-0.019936197,-0.0806170180439949,0.023976219817996025,-1.4110548496246338,1000.64795,
2021.05.22 15:19:27,1.0,24.0,34.44,2.22,-36.96,-0.2944958,0.7829279,9.931452,-4.8258353E-5,-0.0052992557,-0.012605815,-0.0786360427737236,0.029644157737493515,-1.41615891456604,1000.64795,
2021.05.22 15:19:27,1.0,24.0,34.68,2.1599998,-37.14,-0.27055305,0.7877164,9.953,-0.009822102,-0.0022449298,0.0069418726,-0.0789499431848526,0.027176372706890106,-1.418799638748169,1000.6526,
2021.05.22 15:19:27,1.0,24.0,34.68,1.9799999,-36.96,-0.24421602,0.7948992,9.835681,-0.0018808541,0.02218968,0.01243966,-0.08061790466308594,0.02482450008392334,-1.423193097114563,1000.6526,
2021.05.22 15:19:27,1.0,24.0,34.32,1.86,-36.42,-0.16041641,0.82123625,10.178062,-0.026315464,-0.010797042,0.015493986,-0.08050251752138138,0.01575969159603119,-1.4287370443344116,1000.64526,
2021.05.22 15:19:27,1.0,24.0,34.8,2.1,-36.78,-0.16520496,0.85954463,9.876384,-4.8258353E-5,0.010583241,0.03137648,-0.08679948002099991,0.016725711524486542,-1.4160863161087036,1000.65186,
2021.05.22 15:19:27,1.0,24.0,34.44,2.1599998,-36.54,-0.2370332,0.7996878,9.998491,0.00789299,0.0087506445,0.014883121,-0.07978863269090652,0.023702457547187805,-1.41913640499115,1000.65186,
2021.05.22 15:19:27,1.0,24.0,34.5,2.04,-37.02,-0.29928434,0.76137936,9.979338,-0.006767776,-0.0065209866,0.0032766813,-0.07611396163702011,0.02998141199350357,-1.4242433309555054,1000.65283,
2021.05.22 15:19:27,1.0,24.0,34.92,1.8,-37.92,-0.2466103,0.81644773,9.974549,0.014001642,-0.016905695,0.017326582,-0.08164618909358978,0.024718917906284332,-1.425932765007019,1000.65063,
2021.05.22 15:19:27,1.0,24.0,34.92,1.4399999,-37.32,-0.19154198,0.8332076,9.811738,0.01033645,0.011194105,0.026489561,-0.08470015972852707,0.01951923966407776,-1.4356262683868408,1000.65063,
2021.05.22 15:19:27,1.0,24.0,34.98,1.62,-37.14,-0.21787901,0.80208206,9.964972,-0.005546046,-0.010186179,0.030765617,-0.08029789477586746,0.021861005574464798,-1.4353747367858887,1000.65356,
2021.05.22 15:19:27,1.0,24.0,34.739998,1.56,-36.719997,-0.27055305,0.7853221,9.981731,-0.012876429,-0.0046883905,0.018548314,-0.07848551124334335,0.027098188176751137,-1.437973141670227,1000.65356,
2021.05.22 15:19:27,1.0,24.0,34.44,1.5,-35.88,-0.2083019,0.7948992,9.931452,-0.005546046,0.0032528574,0.036874272,-0.07985083013772964,0.020970886573195457,-1.4404762983322144,1000.65576,
2021.05.22 15:19:27,1.0,24.0,34.38,1.92,-35.88,-0.24900457,0.8092649,9.98652,-0.014709025,-0.002855795,0.033209078,-0.08083402365446091,0.024928905069828033,-1.4260590076446533,1000.65796,
2021.05.22 15:19:27,1.0,24.0,34.62,2.04,-36.12,-0.14605077,0.8332076,9.948212,-0.0061569107,-0.0022449298,0.030765617,-0.08355052769184113,0.014680053107440472,-1.4225835800170898,1000.65796,
2021.05.22 15:19:27,1.0,24.0,34.559998,1.86,-36.78,-0.19633053,0.8667275,10.13736,-0.009822102,-0.004077526,0.016715717,-0.08527500927448273,0.019364606589078903,-1.4228872060775757,1000.66187,
2021.05.22 15:19:27,1.0,24.0,34.739998,1.9799999,-37.079998,-0.18675344,0.8332076,9.840469,0.0042277984,0.0087506445,0.014272256,-0.08445491641759872,0.018975824117660522,-1.4204316139221191,1000.66187,
2021.05.22 15:19:28,1.0,24.0,34.26,2.1,-37.26,-0.28970724,0.7709565,10.058349,0.028051542,0.010583241,0.02526783,-0.07646724581718445,0.028794704005122185,-1.4207724332809448,1000.65137,
2021.05.22 15:19:28,1.0,24.0,34.14,1.86,-37.14,-0.2083019,0.81165916,9.816526,0.016445102,-0.0022449298,0.020991774,-0.08247680217027664,0.02121632918715477,-1.4227654933929443,1000.6443,
2021.05.22 15:19:28,1.0,24.0,34.44,2.1,-36.899998,-0.20111908,0.818842,10.015251,0.02438635,0.002031127,0.026489561,-0.08156168460845947,0.020078584551811218,-1.4189698696136475,1000.6443,
2021.05.22 15:19:28,1.0,24.0,34.5,2.1,-37.079998,-0.21787901,0.8140534,9.941029,0.011558182,0.0087506445,0.016715717,-0.08168641477823257,0.021913640201091766,-1.4182021617889404,1000.6428,
2021.05.22 15:19:28,1.0,24.0,34.8,1.5,-36.84,-0.21069619,0.7996878,9.93624,0.010947316,-0.0071318517,0.018548314,-0.08029086887836456,0.021201644092798233,-1.4390077590942383,1000.6428,
2021.05.22 15:19:28,1.0,24.0,35.04,1.14,-36.84,-0.16041641,0.845179,9.943423,0.0072821244,0.006918049,0.015493986,-0.08478400111198425,0.01613151654601097,-1.4465008974075317,1000.646,
2021.05.22 15:19:28,1.0,24.0,34.92,0.84,-36.66,-0.18675344,0.85236186,9.931452,0.012779912,0.0044745877,0.0038875462,-0.0855996310710907,0.01880202628672123,-1.453678011894226,1000.646,
2021.05.22 15:19:28,1.0,24.0,34.86,0.96,-36.719997,-0.17238778,0.84996754,9.885961,0.020721162,8.0939644E-4,0.0032766813,-0.08575335144996643,0.017435869202017784,-1.4500043392181396,1000.6416,
2021.05.22 15:19:28,1.0,24.0,34.8,0.59999996,-36.6,-0.2657645,0.7589851,9.864412,0.0060603945,0.00936151,-0.021768793,-0.07676269859075546,0.026935232803225517,-1.4683258533477783,1000.63794,
2021.05.22 15:19:28,1.0,24.0,34.739998,0.96,-36.42,-0.14844504,0.8044763,9.8787775,-0.012876429,-0.0071318517,-0.01566014,-0.08124637603759766,0.015025529079139233,-1.4556388854980469,1000.63794,
2021.05.22 15:19:28,1.0,24.0,34.739998,1.14,-36.36,-0.2083019,0.7948992,9.876384,0.0023952026,0.010583241,-0.0077188932,-0.08029395341873169,0.021087782457470894,-1.4503540992736816,1000.65015,
2021.05.22 15:19:28,1.0,24.0,34.559998,1.02,-35.88,-0.2681588,0.8044763,9.972155,-0.033645846,-0.016905695,-0.02726658,-0.08046896755695343,0.026884278282523155,-1.4529974460601807,1000.65015,
2021.05.22 15:19:28,1.0,24.0,34.38,1.62,-36.059998,-0.24900457,0.8643332,10.00328,-0.01654162,-0.008964447,-0.0058862977,-0.08616435527801514,0.02488715574145317,-1.4286597967147827,1000.6494,
2021.05.22 15:19:28,1.0,24.0,34.38,1.62,-36.18,-0.20351335,0.9194015,10.0439825,-0.031813253,-0.013240504,-0.018714469,-0.0912645235657692,0.020259445533156395,-1.424017071723938,1000.6509,
2021.05.22 15:19:28,1.0,24.0,34.5,1.62,-36.48,-0.19393626,0.8643332,9.917087,-0.009211237,0.017913625,-0.016881872,-0.08691973984241486,0.019553277641534805,-1.4285237789154053,1000.6509,
2021.05.22 15:19:28,1.0,24.0,34.68,1.3199999,-36.96,-0.26337022,0.7877164,9.912297,5.6260685E-4,0.0038637226,-0.022990525,-0.07927408069372177,0.026563797146081924,-1.4434053897857666,1000.64624,
2021.05.22 15:19:28,1.0,24.0,34.68,1.0799999,-37.26,-0.25379312,0.7877164,9.914692,-0.0037134497,0.0063071838,-0.025433986,-0.07925701886415482,0.02559209242463112,-1.4499025344848633,1000.64624,
2021.05.22 15:19:29,1.0,24.0,34.5,1.0799999,-37.44,-0.24182175,0.81165916,9.845258,-0.001269989,0.012415837,-0.023601389,-0.08223093301057816,0.024557320401072502,-1.4457380771636963,1000.6531,
2021.05.22 15:19:29,1.0,24.0,34.8,1.38,-37.32,-0.34956414,0.7781393,9.998491,-0.019595945,0.011194105,-0.021157928,-0.07762187719345093,0.03494745492935181,-1.441210389137268,1000.66064,
2021.05.22 15:19:29,1.0,24.0,34.62,1.5,-37.2,-0.25379312,0.82602483,10.058349,-0.031202385,-0.0059101214,-0.013216681,-0.08191347867250443,0.025226734578609467,-1.4347503185272217,1000.66064,
2021.05.22 15:19:29,1.0,24.0,35.04,1.56,-37.2,-0.24421602,0.7996878,9.821315,0.005449529,0.005085453,0.020991774,-0.08121947199106216,0.024860795587301254,-1.4354981184005737,1000.6594,
2021.05.22 15:19:29,1.0,24.0,35.64,1.5,-36.84,-0.17957062,0.7733508,10.00328,0.00911472,0.010583241,0.0069418726,-0.07714387774467468,0.017949245870113373,-1.44610595703125,1000.6594,
2021.05.22 15:19:29,1.0,24.0,35.579998,1.5,-36.84,-0.2681588,0.7781393,9.893144,0.008503855,0.007528914,-0.0058862977,-0.07846410572528839,0.02709888480603695,-1.4425567388534546,1000.656,
2021.05.22 15:19:29,1.0,24.0,35.82,1.56,-36.84,-0.2849187,0.8140534,9.974549,-0.0018808541,-0.0052992557,-0.01566014,-0.08139952272176743,0.028556805104017258,-1.4382894039154053,1000.6575,
2021.05.22 15:19:29,1.0,24.0,35.579998,2.1,-36.66,-0.17957062,0.82123625,9.912297,0.016445102,-0.0150731,-0.0034428365,-0.08264795690774918,0.018113961443305016,-1.423715353012085,1000.6575,
2021.05.22 15:19:29,1.0,24.0,34.92,2.1599998,-37.14,-0.22985038,0.76616794,9.948212,0.0182777,-0.0071318517,-0.025433986,-0.07684347778558731,0.023100582882761955,-1.423112154006958,1000.6565,
2021.05.22 15:19:29,1.0,24.0,34.68,1.9799999,-36.96,-0.3232271,0.7901107,9.873989,0.04515577,0.03257439,-0.019936197,-0.07980670034885406,0.032723523676395416,-1.4221614599227905,1000.6565,
2021.05.22 15:19:29,1.0,24.0,34.62,1.86,-36.78,-0.22745611,0.8356019,9.991309,0.0072821244,0.0063071838,0.0112179285,-0.08341719210147858,0.02276146411895752,-1.4243156909942627,1000.6538,
2021.05.22 15:19:29,1.0,24.0,34.26,1.4399999,-36.96,-0.2657645,0.88109314,9.75667,-0.0678543,0.061285056,-0.013216681,-0.09002923220396042,0.02723252959549427,-1.4262146949768066,1000.65356,
2021.05.22 15:19:29,1.0,24.0,34.5,1.68,-36.78,-0.22745611,0.74701375,10.134965,-0.114890926,0.03746131,-0.041316483,-0.0735551044344902,0.02243894524872303,-1.439827799797058,1000.65356,
2021.05.22 15:19:29,1.0,24.0,34.5,2.22,-36.12,-0.31604427,0.68236834,9.900327,-0.11428006,0.036850445,-0.015049276,-0.06878006458282471,0.03191177174448967,-1.4286025762557983,1000.6504,
2021.05.22 15:19:29,1.0,24.0,34.44,2.34,-35.76,-0.27294734,0.7853221,10.180456,0.0060603945,0.072891496,-0.0138275465,-0.07696016132831573,0.026804493740200996,-1.4180500507354736,1000.6504,
2021.05.22 15:19:29,1.0,24.0,35.399998,2.8799999,-35.7,-0.57462597,0.4956149,9.761458,-0.015930755,0.13031283,-0.03765129,-0.05064154788851738,0.058798957616090775,-1.4278110265731812,1000.6467,
2021.05.22 15:19:29,1.0,24.0,35.64,2.9399998,-35.46,-0.11253092,0.6440599,10.115811,-0.11122573,-0.16656768,0.028322157,-0.06357889622449875,0.01112380065023899,-1.4239717721939087,1000.6467,
2021.05.22 15:19:30,1.0,24.0,35.7,3.06,-36.18,-0.43096948,0.44294083,9.929058,-0.14176899,0.067393705,-0.022990525,-0.04453911632299423,0.04337764158844948,-1.4328044652938843,1000.6467,
