Time,X-cord,Y-cord,Mag_x,Mag_y,Mag_z,Acc_x,Acc_y,Acc_z,Gyro_x,Gyro_y,Gyro_z,Orn_x,Orn_y,Orn_z,Pressure,
2021.05.22 15:34:29,81.0,24.0,44.579998,21.539999,-26.76,-0.6488485,0.057462595,9.668081,-0.0397545,0.13581063,-0.07124888,-0.005930127110332251,0.06701195240020752,-1.1002084016799927,1000.584,
2021.05.22 15:34:29,81.0,24.0,44.94,21.539999,-26.88,-0.6153286,-0.052674048,10.149331,-0.020817677,0.061285056,-0.05047946,0.005180345382541418,0.06055338308215141,-1.1113924980163574,1000.5752,
2021.05.22 15:34:29,81.0,24.0,45.899998,21.359999,-28.199999,-0.5913859,-0.0047885496,9.998491,-0.022650272,0.002031127,-0.030320907,4.7809164971113205E-4,0.05907868221402168,-1.1205023527145386,1000.5752,
2021.05.22 15:34:29,81.0,24.0,46.739998,20.76,-28.859999,-0.38787252,0.038308397,10.2091875,-0.011654698,-0.0046883905,0.030154753,-0.003749622730538249,0.03797423094511032,-1.1415818929672241,1000.59106,
2021.05.22 15:34:29,81.0,24.0,47.7,20.76,-30.119999,-0.31604427,0.05506832,10.051166,-4.8258353E-5,0.0087506445,0.021602638,-0.005476038437336683,0.031433187425136566,-1.1496461629867554,1000.59106,
2021.05.22 15:34:29,81.0,24.0,48.42,20.039999,-31.08,-0.3902668,0.0071828244,10.089474,0.063481726,-0.0065209866,-0.021768793,-7.113806204870343E-4,0.03866131603717804,-1.1687309741973877,1000.5718,
2021.05.22 15:34:29,81.0,24.0,49.079998,19.619999,-31.439999,-0.27294734,0.0,9.711179,0.07325557,-0.012018774,-0.01566014,1.0E-6,0.02809911221265793,-1.1840592622756958,1000.55884,
2021.05.22 15:34:29,81.0,24.0,49.26,19.26,-31.619999,-0.44054657,-0.0670397,9.909904,0.07081211,-0.0052992557,-0.023601389,0.0067581417970359325,0.044425930827856064,-1.1919418573379517,1000.55884,
2021.05.22 15:34:29,81.0,24.0,48.96,19.199999,-31.26,-0.56265455,-0.052674048,9.945818,0.031716734,-0.021792619,-0.03520783,0.005287596490234137,0.056511737406253815,-1.1871178150177002,1000.56445,
2021.05.22 15:34:30,81.0,24.0,48.78,19.199999,-31.14,-0.38547826,0.052674048,9.967366,0.031716734,0.014248433,0.014272256,-0.0052806539461016655,0.038654766976833344,-1.1838161945343018,1000.56445,
2021.05.22 15:34:30,81.0,24.0,48.12,19.5,-31.14,-0.2944958,0.07901107,10.223554,-0.006767776,1.9853121E-4,0.020380909,-0.00772497896105051,0.028797654435038567,-1.1745171546936035,1000.5708,
2021.05.22 15:34:30,81.0,24.0,48.6,19.38,-30.539999,-0.16759923,0.2944958,9.98652,-0.004324315,-0.010797042,0.04970244,-0.02947663888335228,0.016780972480773926,-1.1713719367980957,1000.56836,
2021.05.22 15:34:30,81.0,24.0,49.02,18.84,-30.9,-0.38068968,0.2753416,9.914692,0.037825387,0.005085453,0.047869842,-0.027743501588702202,0.03837766870856285,-1.1791201829910278,1000.56836,
2021.05.22 15:34:30,81.0,24.0,49.44,18.72,-30.96,-0.40223816,0.021548472,10.245102,0.02194289,-0.040729437,-0.016881872,-0.0021016730461269617,0.039241354912519455,-1.1990123987197876,1000.5652,
2021.05.22 15:34:30,81.0,24.0,49.739998,18.84,-30.539999,-0.55307746,0.0071828244,10.08708,-0.014098159,-0.061498858,-0.021157928,-7.110135047696531E-4,0.054775435477495193,-1.1962990760803223,1000.5652,
2021.05.22 15:34:30,81.0,24.0,48.96,19.08,-30.84,-0.39505535,0.28252444,9.213169,0.06409259,0.022800544,0.047869842,-0.030627552419900894,0.04285316914319992,-1.1715726852416992,1000.57446,
2021.05.22 15:34:30,81.0,24.0,48.84,18.779999,-30.72,-0.42378664,0.057462595,10.032011,0.024997218,-0.013240504,0.033819944,-0.005722757428884506,0.04221833869814873,-1.1908860206604004,1000.5713,
2021.05.22 15:34:30,81.0,24.0,48.539997,18.9,-30.9,-0.20351335,0.13647367,10.084685,-0.06357824,-0.049892418,0.05336763,-0.013529184274375439,0.020177697762846947,-1.1872918605804443,1000.5713,
2021.05.22 15:34:30,81.0,24.0,48.3,18.359999,-31.439999,-0.31604427,0.19393626,9.814133,-0.05013921,-0.05233588,0.08635435,-0.019748110324144363,0.03219185397028923,-1.1884232759475708,1000.573,
2021.05.22 15:34:30,81.0,24.0,48.42,18.48,-32.1,-0.6943397,0.11492519,9.871595,-0.053193536,0.006918049,0.014272256,-0.011612794362008572,0.07022147625684738,-1.1815093755722046,1000.5696,
2021.05.22 15:34:30,81.0,24.0,48.18,19.199999,-31.8,-0.67279124,0.22506183,10.187639,-0.09228891,-0.0034666602,0.017937446,-0.022040070965886116,0.06594420224428177,-1.1611557006835938,1000.5696,
2021.05.22 15:34:30,81.0,24.0,47.64,19.38,-31.08,-0.3615355,0.35674694,10.278622,-0.048306614,0.011804971,0.12117367,-0.03467231243848801,0.035159043967723846,-1.1556557416915894,1000.56934,
2021.05.22 15:34:30,81.0,24.0,47.34,19.98,-30.24,-0.17238778,0.16281068,10.235525,0.0072821244,0.008139779,0.1083455,-0.015902835875749588,0.016840510070323944,-1.1586469411849976,1000.56934,
2021.05.22 15:34:30,81.0,24.0,47.039997,20.1,-29.88,-0.04070267,0.05506832,9.826104,0.05309702,0.02096795,0.11628675,-0.005604181904345751,0.004142276477068663,-1.1630009412765503,1000.56714,
2021.05.22 15:34:30,81.0,24.0,47.16,19.5,-29.76,-0.19154198,0.031125572,9.708784,0.043323174,-0.0010231993,0.05092417,-0.0032052837777882814,0.01972617208957672,-1.1724119186401367,1000.56714,
2021.05.22 15:34:30,81.0,24.0,47.579998,18.72,-30.3,-0.34956414,0.11013664,9.912297,0.014612508,0.00936151,0.008774469,-0.011103753000497818,0.03525109589099884,-1.1814072132110596,1000.5742,
2021.05.22 15:34:31,81.0,24.0,47.879997,18.06,-30.66,-0.5243462,0.10774237,10.285805,-0.0379219,-0.03584252,-0.020547064,-0.01046089455485344,0.050933562219142914,-1.1921169757843018,1000.5752,
2021.05.22 15:34:31,81.0,24.0,47.82,17.88,-30.3,-0.19393626,0.2466103,9.967366,0.0011734721,1.9853121E-4,0.026489561,-0.024732045829296112,0.01945466734468937,-1.1947139501571655,1000.5752,
2021.05.22 15:34:31,81.0,24.0,47.52,18.24,-30.06,-0.27294734,0.16759923,10.075109,0.02438635,-0.013240504,0.0130505245,-0.016627347096800804,0.027084629982709885,-1.1887568235397339,1000.57446,
2021.05.22 15:34:31,81.0,24.0,47.52,18.9,-29.279999,-0.34956414,0.15802214,9.852441,0.029273273,-0.0065209866,-0.0058862977,-0.0160274226218462,0.03546507656574249,-1.175297737121582,1000.57446,
2021.05.22 15:34:31,81.0,24.0,47.399998,19.26,-28.98,-0.4285752,0.13647367,9.972155,0.009725586,-0.025457809,-0.018103601,-0.013672000728547573,0.04295076057314873,-1.167378544807434,1000.57666,
2021.05.22 15:34:31,81.0,24.0,48.12,18.84,-29.64,-0.26097596,0.21548474,9.90272,0.01949943,-0.012018774,2.2235495E-4,-0.02174917608499527,0.026347868144512177,-1.1797958612442017,1000.57446,
2021.05.22 15:34:31,81.0,24.0,48.059998,18.539999,-30.42,-0.22745611,0.20351335,9.98652,0.01705597,-0.009575313,-0.004664567,-0.02037070505321026,0.022772375494241714,-1.1860015392303467,1000.57446,
2021.05.22 15:34:31,81.0,24.0,48.18,18.359999,-31.26,-0.25139886,0.2370332,9.957788,0.014001642,1.9853121E-4,-0.014438411,-0.023791726678609848,0.025241093710064888,-1.1870756149291992,1000.5679,
2021.05.22 15:34:31,81.0,24.0,48.12,18.119999,-31.74,-0.23224466,0.30646718,10.024829,0.008503855,0.0014202617,-0.02237966,-0.030553102493286133,0.023162802681326866,-1.1872700452804565,1000.5625,
2021.05.22 15:34:31,81.0,24.0,47.82,18.24,-31.439999,-0.42378664,0.25379312,10.063137,0.021332026,0.0014202617,-0.048035998,-0.025192417204380035,0.04208790883421898,-1.1811519861221313,1000.5625,
2021.05.22 15:34:31,81.0,24.0,47.7,18.3,-31.14,-0.4189981,0.20590763,9.957788,0.037214525,0.013026701,-0.043759942,-0.020656827837228775,0.04205261543393135,-1.1821205615997314,1000.56274,
2021.05.22 15:34:31,81.0,24.0,47.52,18.779999,-31.439999,-0.43096948,0.16520496,9.850046,0.017666833,-0.0034666602,-0.03520783,-0.016754401847720146,0.0437251552939415,-1.173606038093567,1000.56274,
2021.05.22 15:34:31,81.0,24.0,47.76,18.84,-31.08,-0.2681588,0.24421602,9.895537,0.02316462,0.0014202617,0.027100425,-0.0246653500944376,0.027092332020401955,-1.1743617057800293,1000.56006,
2021.05.22 15:34:31,81.0,24.0,47.52,18.84,-30.9,-0.31604427,0.22745611,9.895537,-0.0037134497,-0.002855795,0.020991774,-0.022969970479607582,0.0319272056221962,-1.172341227531433,1000.56006,
2021.05.22 15:34:31,81.0,24.0,48.0,18.66,-30.96,-0.29210153,0.24900457,10.046377,-0.014098159,-0.0016340646,0.009385334,-0.024769971147179604,0.02906711958348751,-1.1789287328720093,1000.56665,
2021.05.22 15:34:31,81.0,24.0,48.18,18.24,-30.66,-0.31125572,0.28013015,9.981731,-0.02142854,-0.011407908,0.0130505245,-0.028043296188116074,0.031172435730695724,-1.1856629848480225,1000.5669,
2021.05.22 15:34:31,81.0,24.0,47.82,18.6,-30.48,-0.32083282,0.2657645,9.943423,0.0011734721,0.0032528574,0.020380909,-0.026707414537668228,0.03225464001297951,-1.1770431995391846,1000.5669,
2021.05.22 15:34:32,81.0,24.0,48.18,18.9,-30.42,-0.30167863,0.2681588,10.166091,-0.015319889,-0.07249443,0.022213504,-0.026360053569078445,0.02966628223657608,-1.175242304801941,1000.56714,
2021.05.22 15:34:32,81.0,24.0,48.36,19.02,-30.42,-0.16041641,0.33519846,9.924269,0.0011734721,-0.04744896,0.024046099,-0.033758390694856644,0.01616264507174492,-1.173877477645874,1000.56665,
2021.05.22 15:34:32,81.0,24.0,48.12,19.199999,-30.72,-0.14126222,0.23463893,10.067925,0.023775486,-0.049892418,0.010607065,-0.0232990812510252,0.014029995538294315,-1.1749749183654785,1000.56665,
2021.05.22 15:34:32,81.0,24.0,48.42,18.84,-30.3,-0.07901107,0.22745611,9.873989,0.04759923,-0.05233588,-0.005275432,-0.023031076416373253,0.00800176989287138,-1.185444951057434,1000.56836,
2021.05.22 15:34:32,81.0,24.0,48.0,18.6,-30.72,-0.19393626,0.25858167,9.984126,0.05065356,-0.045616362,-0.026655717,-0.025888608768582344,0.0194220170378685,-1.182037353515625,1000.56836,
2021.05.22 15:34:32,81.0,24.0,47.52,18.06,-31.14,-0.021548472,0.42139238,10.012857,0.010947316,-0.05355761,-0.029099176,-0.042060211300849915,0.0021520769223570824,-1.1834681034088135,1000.56274,
2021.05.22 15:34:32,81.0,24.0,47.52,17.82,-31.26,-0.11013664,0.37829542,10.113417,0.034771062,-0.042562034,-0.010162354,-0.03738566115498543,0.010889721103012562,-1.1880167722702026,1000.56274,
2021.05.22 15:34:32,81.0,24.0,47.34,17.76,-32.1,-0.15323359,0.3040729,9.850046,0.029273273,-0.015683964,-0.029710043,-0.030856668949127197,0.015555381774902344,-1.1897286176681519,1000.5654,
2021.05.22 15:34:32,81.0,24.0,47.219997,17.94,-32.28,-0.06464542,0.31843856,9.912297,0.048210096,0.0038637226,-0.012605815,-0.032113879919052124,0.006521646399050951,-1.1871088743209839,1000.572,
2021.05.22 15:34:32,81.0,24.0,47.399998,18.3,-31.74,-0.08619389,0.37590113,9.838076,0.008503855,-0.0071318517,-0.02482312,-0.038188766688108444,0.008761030621826649,-1.1781607866287231,1000.572,
2021.05.22 15:34:32,81.0,24.0,47.16,18.6,-31.26,-0.12689656,0.41420954,9.996098,-0.015930755,0.0063071838,-0.016271008,-0.04141009971499443,0.012693927623331547,-1.168380618095398,1000.56665,
2021.05.22 15:34:32,81.0,24.0,47.46,18.66,-31.439999,-0.17478207,0.37590113,9.972155,-0.034256715,-0.0016340646,-0.04253821,-0.03767145797610283,0.017525216564536095,-1.170212745666504,1000.56665,
2021.05.22 15:34:32,81.0,24.0,47.82,18.6,-31.26,-0.14605077,0.35674694,10.029617,-0.035478443,8.0939644E-4,-0.019936197,-0.035550590604543686,0.01456091832369566,-1.1761722564697266,1000.56226,
2021.05.22 15:34:32,81.0,24.0,47.64,18.84,-31.14,-0.07901107,0.339987,9.90272,-0.008600371,0.014248433,-0.010162354,-0.034318119287490845,0.007978553883731365,-1.1730507612228394,1000.5637,
2021.05.22 15:34:32,81.0,24.0,47.579998,19.08,-31.38,-0.21548474,0.29210153,9.885961,-0.011043833,0.020357084,-0.021157928,-0.02953150123357773,0.02179359644651413,-1.1670740842819214,1000.5637,
2021.05.22 15:34:32,81.0,24.0,48.0,18.72,-32.04,-0.16759923,0.27294734,10.005674,-0.02142854,0.026465736,-0.019325333,-0.02726866863667965,0.016748853027820587,-1.1789748668670654,1000.56396,
2021.05.22 15:34:33,81.0,24.0,48.3,18.3,-32.399998,-0.045491222,0.40463245,9.962578,-0.044641424,-0.0034666602,0.01366139,-0.0405924990773201,0.0045661781914532185,-1.184073805809021,1000.56396,
2021.05.22 15:34:33,81.0,24.0,48.66,18.24,-33.0,-0.05506832,0.36632404,9.96976,-0.0061569107,-0.0010231993,0.024656964,-0.03672643378376961,0.005523479077965021,-1.1892508268356323,1000.5679,
2021.05.22 15:34:33,81.0,24.0,49.02,17.88,-33.12,-0.21069619,0.24900457,10.060742,-0.014709025,-0.008964447,-0.018714469,-0.024739645421504974,0.02093934826552868,-1.201172113418579,1000.57104,
2021.05.22 15:34:33,81.0,24.0,48.84,18.06,-32.82,-0.19154198,0.28252444,9.967366,5.6260685E-4,0.00936151,-9.993755E-4,-0.028332127258181572,0.01921454630792141,-1.1951509714126587,1000.57104,
2021.05.22 15:34:33,81.0,24.0,48.42,18.3,-33.239998,-0.1340794,0.30646718,10.051166,-0.011043833,-0.0071318517,0.008163603,-0.03047855570912361,0.01333889551460743,-1.1878643035888672,1000.56494,
2021.05.22 15:34:33,81.0,24.0,48.3,18.359999,-33.059998,-0.14126222,0.30167863,9.981731,-0.0024917193,-0.0010231993,0.016715717,-0.03021085634827614,0.014151131734251976,-1.1859742403030396,1000.56494,
2021.05.22 15:34:33,81.0,24.0,48.78,17.94,-33.42,-0.12929083,0.28252444,9.962578,-0.0061569107,0.0026419922,0.014883121,-0.028348583728075027,0.01297692023217678,-1.1981419324874878,1000.5576,
2021.05.22 15:34:33,81.0,24.0,48.42,17.94,-33.239998,-0.15083931,0.28252444,10.039194,-0.011043833,8.0939644E-4,0.0038875462,-0.028131544589996338,0.015023911371827126,-1.1952985525131226,1000.5657,
2021.05.22 15:34:33,81.0,24.0,48.3,17.64,-33.059998,-0.098165266,0.32083282,9.929058,0.0023952026,-0.002855795,0.007552738,-0.032299697399139404,0.009886342100799084,-1.1988462209701538,1000.5657,
2021.05.22 15:34:33,81.0,24.0,48.48,17.46,-33.18,-0.16041641,0.27055305,9.976943,-0.0061569107,-0.016905695,0.009996199,-0.027107683941721916,0.016077328473329544,-1.2047979831695557,1000.5664,
2021.05.22 15:34:33,81.0,24.0,48.36,17.52,-33.239998,-0.19393626,0.2657645,9.912297,-0.0031025845,1.9853121E-4,0.0130505245,-0.026800045743584633,0.019562721252441406,-1.2021028995513916,1000.5664,
2021.05.22 15:34:33,81.0,24.0,48.539997,17.52,-33.78,-0.17238778,0.23463893,9.974549,-4.8258353E-5,0.015470162,0.0112179285,-0.023515915498137474,0.01728104241192341,-1.2056748867034912,1000.5696,
2021.05.22 15:34:33,81.0,24.0,48.84,18.06,-33.899998,-0.15562786,0.2681588,9.900327,-0.0257046,-0.0065209866,0.0032766813,-0.027075886726379395,0.01571817323565483,-1.196169376373291,1000.5735,
2021.05.22 15:34:33,81.0,24.0,48.48,17.76,-34.14,-0.08140534,0.3328042,9.912297,-0.0024917193,0.012415837,0.035652537,-0.03356114402413368,0.0082123763859272,-1.1969308853149414,1000.5735,
2021.05.22 15:34:33,81.0,24.0,47.7,17.94,-34.26,-0.18675344,0.24182175,10.065532,-0.009822102,-0.012018774,0.0130505245,-0.024015985429286957,0.018551629036664963,-1.1910936832427979,1000.57275,
2021.05.22 15:34:33,81.0,24.0,47.579998,17.88,-33.42,-0.12929083,0.2657645,10.048771,0.0030060678,-0.014462234,0.0051092766,-0.026439115405082703,0.012865624390542507,-1.1918467283248901,1000.57275,
2021.05.22 15:34:33,81.0,24.0,47.579998,17.82,-32.94,-0.14126222,0.29210153,10.051166,-0.007989507,-0.009575313,0.011828794,-0.029050415381789207,0.014053386636078358,-1.1913217306137085,1000.57275,
2021.05.22 15:34:34,81.0,24.0,47.52,18.06,-32.46,-0.04070267,0.27055305,9.921875,0.024997218,-0.0010231993,0.02526783,-0.02726135402917862,0.004102293401956558,-1.1904934644699097,1000.5762,
2021.05.22 15:34:34,81.0,24.0,47.76,17.94,-31.92,-0.12929083,0.20351335,10.015251,0.02194289,-0.0034666602,0.017326582,-0.020315855741500854,0.012908677570521832,-1.1965032815933228,1000.5762,
2021.05.22 15:34:34,81.0,24.0,47.82,17.279999,-31.98,-0.028731298,0.28013015,9.8237095,0.020110294,0.007528914,0.008163603,-0.028507869690656662,0.002924680942669511,-1.2066876888275146,1000.5691,
2021.05.22 15:34:34,81.0,24.0,46.92,17.46,-31.08,-0.08858817,0.26337022,9.967366,0.023775486,0.0044745877,0.0069418726,-0.02641606330871582,0.008887587115168571,-1.1971651315689087,1000.5691,
2021.05.22 15:34:34,81.0,24.0,46.5,17.94,-30.66,-0.076616794,0.2849187,9.914692,-0.009211237,0.0014202617,-0.023601389,-0.02872825600206852,0.007727448362857103,-1.184361457824707,1000.56445,
2021.05.22 15:34:34,81.0,24.0,46.14,18.539999,-30.179998,-0.10055954,0.2944958,9.941029,-6.591236E-4,-4.1233405E-4,-0.024212256,-0.029614102095365524,0.010115262120962143,-1.169655680656433,1000.5652,
2021.05.22 15:34:34,81.0,24.0,45.0,19.619999,-29.279999,-0.17717634,0.25379312,10.079897,-0.01654162,8.0939644E-4,-0.044370808,-0.025168942287564278,0.01757538877427578,-1.1413224935531616,1000.5652,
2021.05.22 15:34:34,81.0,24.0,45.42,19.38,-29.16,-0.21309046,0.2753416,10.015251,-0.022039408,-0.0010231993,-0.031542636,-0.02747909165918827,0.021273385733366013,-1.1471073627471924,1000.57227,
2021.05.22 15:34:34,81.0,24.0,45.239998,19.08,-28.74,-0.09577099,0.3328042,9.957788,-0.0049351803,0.0056963186,-0.0040537016,-0.03340751677751541,0.009617400355637074,-1.1514414548873901,1000.57227,
2021.05.22 15:34:34,81.0,24.0,44.879997,19.02,-28.56,-0.27294734,0.24182175,9.943423,-0.018985081,-4.1233405E-4,-0.03276437,-0.02430582419037819,0.02744314633309841,-1.1497849225997925,1000.58325,
2021.05.22 15:34:34,81.0,24.0,45.0,18.779999,-28.56,-0.16281068,0.23942748,10.0200405,-0.009822102,0.019135352,-0.010773219,-0.023887163028120995,0.01624707691371441,-1.1585317850112915,1000.58154,
2021.05.22 15:34:34,81.0,24.0,44.76,19.08,-28.8,-0.117319465,0.28252444,9.960183,-0.014098159,0.0014202617,0.0014440855,-0.028355814516544342,0.011778301559388638,-1.149519920349121,1000.58154,
2021.05.22 15:34:34,81.0,24.0,45.12,19.38,-29.039999,-0.11013664,0.27294734,9.938635,-0.0037134497,0.013026701,0.017326582,-0.02745467610657215,0.011081213131546974,-1.147467017173767,1000.5769,
2021.05.22 15:34:34,81.0,24.0,45.48,19.619999,-29.16,-0.17238778,0.26097596,10.015251,-0.020206813,-0.0010231993,-0.016271008,-0.026048101484775543,0.01721082627773285,-1.1450623273849487,1000.5769,
2021.05.22 15:34:34,81.0,24.0,45.78,19.92,-29.22,-0.17238778,0.25379312,9.984126,-0.008600371,-0.0046883905,-0.012605815,-0.025410402566194534,0.0172644704580307,-1.1423531770706177,1000.5845,
2021.05.22 15:34:34,81.0,24.0,45.66,20.039999,-29.34,-0.14126222,0.23942748,9.964972,-0.0024917193,-0.0034666602,8.332202E-4,-0.0240198764950037,0.014174927957355976,-1.140676498413086,1000.5825,
2021.05.22 15:34:34,81.0,24.0,45.539997,19.859999,-29.34,-0.21548474,0.17717634,9.950606,-0.0031025845,-0.0016340646,-0.006497163,-0.017799530178308487,0.02165205404162407,-1.1443519592285156,1000.5825,
2021.05.22 15:34:35,81.0,24.0,45.18,19.68,-29.279999,-0.13647367,0.18435916,9.933846,-0.0049351803,0.0056963186,0.0032766813,-0.0185548085719347,0.013737386092543602,-1.146397352218628,1000.57983,
2021.05.22 15:34:35,81.0,24.0,44.76,19.68,-29.22,-0.15323359,0.22027329,10.099051,-0.01654162,-0.0034666602,-9.993755E-4,-0.02180531993508339,0.015171903185546398,-1.1407040357589722,1000.57983,
2021.05.22 15:34:35,81.0,24.0,45.3,19.14,-29.279999,-0.028731298,0.26337022,10.005674,-0.005546046,0.0014202617,0.017326582,-0.026315903291106224,0.00287149241194129,-1.1560614109039307,1000.5779,
2021.05.22 15:34:35,81.0,24.0,45.0,19.5,-29.34,-0.15323359,0.22745611,10.005674,0.00789299,-0.0016340646,-0.002221106,-0.022726131603121758,0.015313470736145973,-1.145484209060669,1000.5823,
2021.05.22 15:34:35,81.0,24.0,45.36,19.619999,-29.16,-0.1987248,0.22506183,9.967366,0.00911472,0.0063071838,-0.02726658,-0.02257155068218708,0.01993490383028984,-1.1452146768569946,1000.5823,
2021.05.22 15:34:35,81.0,24.0,45.42,19.56,-28.8,-0.22745611,0.2083019,9.984126,-0.0031025845,-4.1233405E-4,-0.01566014,-0.020854873582720757,0.02277783490717411,-1.1472138166427612,1000.5747,
2021.05.22 15:34:35,81.0,24.0,44.64,20.22,-28.439999,-0.105348095,0.23942748,9.933846,-6.591236E-4,8.0939644E-4,0.01243966,-0.0240961741656065,0.01060456782579422,-1.1300904750823975,1000.5747,
2021.05.22 15:34:35,81.0,24.0,44.52,19.92,-28.26,-0.16041641,0.19633053,9.960183,-0.0024917193,8.0939644E-4,0.010607065,-0.01970643177628517,0.016104377806186676,-1.1355470418930054,1000.5696,
2021.05.22 15:34:35,81.0,24.0,44.34,20.039999,-28.32,-0.102953814,0.23224466,10.012857,-6.591236E-4,0.0063071838,0.007552738,-0.023189259693026543,0.010281798429787159,-1.1314361095428467,1000.56665,
2021.05.22 15:34:35,81.0,24.0,44.46,20.1,-28.74,-0.19154198,0.19633053,9.9889145,-0.011043833,-4.1233405E-4,0.0032766813,-0.019648700952529907,0.01917310617864132,-1.1306140422821045,1000.56665,
2021.05.22 15:34:35,81.0,24.0,44.879997,20.1,-28.98,-0.12929083,0.20111908,9.924269,-4.8258353E-5,0.011804971,0.008163603,-0.0202608872205019,0.013027007691562176,-1.1354849338531494,1000.56445,
2021.05.22 15:34:35,81.0,24.0,44.879997,20.34,-29.16,-0.20351335,0.19633053,9.960183,-0.011654698,-0.0010231993,-0.0028319713,-0.019704876467585564,0.02042984776198864,-1.12923002243042,1000.5613,
2021.05.22 15:34:35,81.0,24.0,44.64,19.92,-29.16,-0.105348095,0.22985038,9.924269,0.0011734721,0.0044745877,0.008774469,-0.02315499074757099,0.010614801198244095,-1.1357569694519043,1000.5613,
2021.05.22 15:34:35,81.0,24.0,44.64,19.859999,-29.099998,-0.18914771,0.16520496,10.027223,-0.0031025845,-0.01629483,0.0069418726,-0.016471223905682564,0.018861182034015656,-1.1383087635040283,1000.5642,
2021.05.22 15:34:35,81.0,24.0,44.579998,19.56,-28.98,-0.05985687,0.20111908,9.931452,0.006671259,0.008139779,0.024656964,-0.02024758793413639,0.006026928313076496,-1.1448358297348022,1000.5642,
2021.05.22 15:34:35,81.0,24.0,44.76,19.5,-28.439999,-0.08140534,0.21787901,9.972155,0.012169046,-0.004077526,0.015493986,-0.021844537928700447,0.008163084276020527,-1.1463065147399902,1000.5737,
2021.05.22 15:34:36,81.0,24.0,44.82,19.92,-28.38,-0.076616794,0.22506183,9.950606,0.01033645,0.010583241,0.0112179285,-0.022613374516367912,0.007699558511376381,-1.1387635469436646,1000.5737,
2021.05.22 15:34:36,81.0,24.0,44.64,20.039999,-27.96,-0.090982445,0.25379312,9.945818,-0.005546046,-0.0071318517,-0.0119949505,-0.025510968640446663,0.009147553704679012,-1.133331298828125,1000.56396,
2021.05.22 15:34:36,81.0,24.0,44.46,20.1,-28.14,-0.19393626,0.38547826,9.976943,0.015223373,-0.0046883905,-0.0034428365,-0.038610417395830154,0.019435998052358627,-1.1208701133728027,1000.5664,
2021.05.22 15:34:36,81.0,24.0,44.64,20.22,-28.98,-0.23942748,0.25379312,10.048771,0.006671259,-0.054168478,-0.02726658,-0.02524360455572605,0.023822035640478134,-1.1254633665084839,1000.5664,
2021.05.22 15:34:36,81.0,24.0,44.64,20.46,-29.039999,-0.12450229,0.21069619,10.163696,-0.004324315,-0.009575313,-0.0119949505,-0.020725751295685768,0.012249092571437359,-1.1266981363296509,1000.57446,
2021.05.22 15:34:36,81.0,24.0,44.52,20.46,-29.519999,-0.21069619,0.40463245,9.897932,0.046988364,0.02096795,0.036874272,-0.0408485122025013,0.021283674985170364,-1.111789584159851,1000.57446,
2021.05.22 15:34:36,81.0,24.0,44.64,20.4,-28.98,-0.08858817,0.4668836,9.794978,0.1606093,0.06311765,0.044815518,-0.047627612948417664,0.009043997153639793,-1.114608883857727,1000.5664,
2021.05.22 15:34:36,81.0,24.0,44.64,20.279999,-28.32,-0.05506832,0.409421,9.775824,0.0030060678,0.043569967,0.038096,-0.04185584932565689,0.005633053835481405,-1.121314525604248,1000.57227,
2021.05.22 15:34:36,81.0,24.0,44.76,19.74,-28.38,-0.083799616,0.48124924,10.029617,0.008503855,0.036239583,0.023435233,-0.04794437065720558,0.008355021476745605,-1.1283068656921387,1000.57227,
2021.05.22 15:34:36,81.0,24.0,45.12,19.32,-28.08,0.0,0.28970724,9.725544,-0.023872003,0.050289482,0.007552738,-0.029779473319649696,1.0E-6,-1.1508302688598633,1000.56836,
2021.05.22 15:34:36,81.0,24.0,45.3,19.32,-28.26,0.11971374,0.47885495,10.757477,0.0048386636,-0.12380712,0.028322157,-0.04448156803846359,-0.011127961799502373,-1.1477640867233276,1000.56836,
2021.05.22 15:34:36,81.0,24.0,45.12,19.199999,-28.5,-0.6273,0.42378664,9.869201,-0.039143633,0.21033618,0.0057201423,-0.04282763972878456,0.06347598880529404,-1.1274880170822144,1000.57275,
