Time,X-cord,Y-cord,Mag_x,Mag_y,Mag_z,Acc_x,Acc_y,Acc_z,Gyro_x,Gyro_y,Gyro_z,Orn_x,Orn_y,Orn_z,Pressure,
2021.05.22 15:27:19,43.0,24.0,25.439999,9.84,-27.42,-0.7637737,0.6177229,9.270632,0.017666833,0.20361665,-0.056588113,-0.06630989164113998,0.08220072090625763,-1.0996906757354736,1000.563,
2021.05.22 15:27:19,43.0,24.0,26.099998,9.78,-27.66,-0.7110996,0.14844504,10.05356,-0.014709025,0.041126505,-0.018714469,-0.014727557078003883,0.07061352580785751,-1.1697368621826172,1000.5635,
2021.05.22 15:27:20,43.0,24.0,26.279999,9.3,-28.68,-0.7685622,0.14126222,9.98652,-0.06357824,-0.05233588,-0.048646867,-0.014102650806307793,0.07680855691432953,-1.185627818107605,1000.5635,
2021.05.22 15:27:20,43.0,24.0,27.18,8.5199995,-29.939999,-0.6895511,0.3040729,10.216371,-0.05013921,-0.015683964,0.03443081,-0.02968701161444187,0.0673925131559372,-1.2104908227920532,1000.5725,
2021.05.22 15:27:20,43.0,24.0,27.84,7.8599997,-30.779999,-0.30167863,0.5698374,10.051166,0.006671259,-0.016905695,0.112010695,-0.05660759657621384,0.030005285516381264,-1.226891040802002,1000.5552,
2021.05.22 15:27:20,43.0,24.0,28.32,7.3799996,-31.08,-0.45012367,0.40223816,10.091868,0.028051542,-0.026679538,0.05764369,-0.039797041565179825,0.044573064893484116,-1.2594268321990967,1000.5552,
2021.05.22 15:27:20,43.0,24.0,28.8,7.3199997,-31.019999,-0.5961744,0.2466103,9.943423,0.041490577,0.0056963186,0.0069418726,-0.024751832708716393,0.059884969145059586,-1.2773208618164062,1000.551,
2021.05.22 15:27:20,43.0,24.0,28.56,7.44,-30.48,-0.6656084,0.12689656,9.646533,0.05309702,0.035628714,0.0014440855,-0.013122673146426678,0.06889056414365768,-1.281219720840454,1000.551,
2021.05.22 15:27:20,43.0,24.0,29.16,7.68,-30.84,-0.6249057,0.076616794,9.938635,0.02866241,0.009972375,0.009385334,-0.007693640422075987,0.06279374659061432,-1.2867690324783325,1000.5437,
2021.05.22 15:27:20,43.0,24.0,29.099998,8.099999,-31.439999,-0.55307746,0.26337022,9.826104,-6.591236E-4,8.0939644E-4,0.055811092,-0.02675437554717064,0.056227218359708786,-1.2528482675552368,1000.55444,
2021.05.22 15:27:20,43.0,24.0,29.34,8.22,-31.859999,-0.5961744,0.3328042,10.067925,0.006671259,-0.0016340646,0.07658051,-0.032986119389534,0.059146154671907425,-1.2429335117340088,1000.55444,
2021.05.22 15:27:20,43.0,24.0,29.46,8.16,-32.1,-0.46209505,0.22506183,10.127783,-0.0061569107,-0.015683964,0.054589365,-0.0221954807639122,0.04559485614299774,-1.2627078294754028,1000.55615,
2021.05.22 15:27:20,43.0,24.0,29.22,7.98,-31.679998,-0.27294734,0.18435916,10.024829,0.012169046,-0.0059101214,0.06314147,-0.018381372094154358,0.027220407500863075,-1.2770347595214844,1000.55615,
2021.05.22 15:27:20,43.0,24.0,29.279999,7.68,-31.5,-0.17717634,0.3519584,9.811738,0.049431827,0.0014202617,0.024046099,-0.03584994375705719,0.0180556271225214,-1.2726128101348877,1000.5642,
2021.05.22 15:27:20,43.0,24.0,29.039999,7.5,-31.32,-0.43815228,0.4166038,9.73991,0.029884137,-0.0046883905,-0.039483886,-0.04270366579294205,0.04495494067668915,-1.2593989372253418,1000.55884,
2021.05.22 15:27:20,43.0,24.0,29.34,7.2599998,-31.14,-0.48124924,0.3328042,10.185245,-0.05136094,0.010583241,-0.12072896,-0.03262713551521301,0.047214534133672714,-1.280502438545227,1000.55884,
2021.05.22 15:27:20,43.0,24.0,28.859999,7.5,-31.199999,-0.4836435,0.55786604,10.321719,-0.07396295,-0.0046883905,-0.08774224,-0.0539361834526062,0.04682262986898422,-1.2451249361038208,1000.56055,
2021.05.22 15:27:20,43.0,24.0,28.8,7.8599997,-31.32,-0.37350687,0.61293435,10.175668,-0.013487294,-0.057833668,0.028933022,-0.060122210532426834,0.03668941184878349,-1.2302969694137573,1000.56055,
2021.05.22 15:27:20,43.0,24.0,28.8,8.099999,-31.199999,-0.48124924,0.29928434,9.967366,0.026829813,-0.041340306,0.017937446,-0.029982496052980423,0.04824502393603325,-1.2495428323745728,1000.5576,
2021.05.22 15:27:21,43.0,24.0,28.38,8.5199995,-31.92,-0.53871185,0.043096945,10.589877,0.026218947,-0.063331455,-0.07552493,-0.004064357839524746,0.05082663893699646,-1.2575525045394897,1000.56226,
2021.05.22 15:27:21,43.0,24.0,28.199999,8.28,-31.859999,-0.61293435,0.40463245,9.153313,0.0011734721,-0.05661194,-0.08163359,-0.0440787747502327,0.0668632984161377,-1.2119371891021729,1000.56226,
2021.05.22 15:27:21,43.0,24.0,28.38,7.9199996,-31.679998,-0.4836435,0.49800915,9.024022,0.117237866,0.04784602,0.019159177,-0.05505227670073509,0.05354388803243637,-1.2205816507339478,1000.56714,
2021.05.22 15:27:21,43.0,24.0,28.26,8.34,-31.26,-0.7302538,0.20111908,10.321719,0.015223373,-0.03584252,-0.022990525,-0.0194340068846941,0.07063155621290207,-1.2379344701766968,1000.56714,
2021.05.22 15:27:21,43.0,24.0,27.779999,7.98,-30.84,-0.38787252,0.17957062,10.424672,-0.113669194,-0.10059423,0.014272256,-0.017211930826306343,0.03719000890851021,-1.2607355117797852,1000.56445,
2021.05.22 15:27:21,43.0,24.0,27.599998,8.16,-30.779999,-0.21787901,0.6177229,9.404712,0.0023952026,0.009972375,0.10101512,-0.06557052582502365,0.02316286228597164,-1.2080936431884766,1000.5552,
2021.05.22 15:27:21,43.0,24.0,26.88,8.58,-30.84,-0.49800915,0.7685622,9.749487,-0.02692633,0.0038637226,0.055811092,-0.07856634259223938,0.05103619024157524,-1.1576515436172485,1000.5552,
2021.05.22 15:27:21,43.0,24.0,26.939999,8.4,-31.199999,-0.9337672,0.55307746,10.465375,-0.102062754,-0.034009922,-0.08590964,-0.052590664476156235,0.08898879587650299,-1.1716725826263428,1000.5547,
2021.05.22 15:27:21,43.0,24.0,27.06,9.179999,-30.9,-0.65842557,0.36632404,10.364816,-0.042808827,-0.018127427,-0.019325333,-0.03525732085108757,0.06343981623649597,-1.1798992156982422,1000.56274,
2021.05.22 15:27:21,43.0,24.0,27.42,9.48,-31.019999,-0.24900457,0.28252444,9.744699,0.06714692,0.025244007,0.10712377,-0.02897505834698677,0.025547266006469727,-1.1985026597976685,1000.56274,
2021.05.22 15:27:21,43.0,24.0,27.42,9.24,-31.32,-0.10774237,0.25858167,9.591465,0.072033845,1.9853121E-4,0.11323242,-0.02695132978260517,0.011232677847146988,-1.2140036821365356,1000.57007,
2021.05.22 15:27:21,43.0,24.0,27.359999,8.7,-31.199999,-0.42618093,0.34477556,10.041589,-0.027537195,-0.024236077,0.027100425,-0.034290432929992676,0.042416125535964966,-1.2103853225708008,1000.57007,
2021.05.22 15:27:21,43.0,24.0,27.48,8.46,-31.5,-0.4860378,0.45491222,10.089474,-0.03608931,-0.014462234,0.0026658159,-0.04500517249107361,0.04813554510474205,-1.20522141456604,1000.5742,
2021.05.22 15:27:21,43.0,24.0,27.24,8.099999,-31.26,-0.40463245,0.4166038,10.199611,5.6260685E-4,-0.029733866,0.028933022,-0.04079032689332962,0.0396505706012249,-1.2232505083084106,1000.5742,
2021.05.22 15:27:21,43.0,24.0,27.42,7.7999997,-31.26,-0.3040729,0.45012367,9.993703,0.018888565,-0.021181753,0.027100425,-0.04498951509594917,0.03041706420481205,-1.2349622249603271,1000.57544,
2021.05.22 15:27:21,43.0,24.0,27.18,7.56,-31.26,-0.28252444,0.42378664,10.010463,0.09158153,-0.022403482,0.028933022,-0.042292285710573196,0.028215425089001656,-1.244111180305481,1000.57275,
2021.05.22 15:27:22,43.0,24.0,27.24,7.3199997,-31.08,-0.34477556,0.42139238,9.845258,0.0604274,-0.023625214,-0.0034428365,-0.042749278247356415,0.035005152225494385,-1.2500920295715332,1000.57275,
2021.05.22 15:27:22,43.0,24.0,27.48,7.14,-31.32,-0.32083282,0.40223816,9.847652,0.037214525,-0.016905695,-0.008329758,-0.04080177843570709,0.03256810083985329,-1.2616130113601685,1000.5725,
2021.05.22 15:27:22,43.0,24.0,27.18,7.56,-31.439999,-0.38787252,0.43336374,10.017646,0.021332026,-0.011407908,-0.023601389,-0.04320075362920761,0.038699597120285034,-1.2384196519851685,1000.5725,
2021.05.22 15:27:22,43.0,24.0,27.18,8.04,-31.439999,-0.30646718,0.5554718,9.931452,0.006671259,-0.0052992557,-0.01566014,-0.05584583058953285,0.030848456546664238,-1.2118818759918213,1000.57324,
2021.05.22 15:27:22,43.0,24.0,27.359999,8.099999,-31.26,-0.3040729,0.51955765,9.979338,0.021332026,-0.0022449298,-0.0034428365,-0.05199228972196579,0.030460823327302933,-1.2167526483535767,1000.5713,
2021.05.22 15:27:22,43.0,24.0,27.24,8.099999,-31.32,-0.37590113,0.5123748,9.921875,0.0030060678,-0.007742717,-0.026655717,-0.051558174192905426,0.03786798566579819,-1.2122853994369507,1000.5713,
2021.05.22 15:27:22,43.0,24.0,27.3,7.68,-30.66,-0.38547826,0.5123748,10.029617,0.014612508,0.005085453,-0.017492738,-0.051004212349653244,0.0384150892496109,-1.2290246486663818,1000.56226,
2021.05.22 15:27:22,43.0,24.0,27.3,7.68,-30.779999,-0.37350687,0.57462597,9.8548355,0.0030060678,-0.0016340646,-0.0058862977,-0.058201394975185394,0.037882741540670395,-1.221347689628601,1000.56226,
2021.05.22 15:27:22,43.0,24.0,27.0,7.8599997,-30.72,-0.3304099,0.5698374,9.924269,0.015223373,0.0044745877,0.015493986,-0.05732390284538269,0.03328083083033562,-1.2146775722503662,1000.5681,
2021.05.22 15:27:22,43.0,24.0,26.939999,7.56,-30.84,-0.45251793,0.5027977,10.0368,0.0017843375,-0.0071318517,-0.0077188932,-0.05000286176800728,0.045055363327264786,-1.2265393733978271,1000.5759,
2021.05.22 15:27:22,43.0,24.0,27.359999,7.44,-31.8,-0.34956414,0.5650489,9.907509,0.014001642,0.017913625,0.024656964,-0.05693531781435013,0.03526811674237251,-1.2302641868591309,1000.5759,
2021.05.22 15:27:22,43.0,24.0,27.359999,7.2599998,-31.92,-0.33519846,0.53871185,10.005674,-0.014709025,0.0038637226,0.01243966,-0.05375859886407852,0.03348831087350845,-1.2403615713119507,1000.56885,
2021.05.22 15:27:22,43.0,24.0,27.42,7.2599998,-32.28,-0.23224466,0.5865973,9.945818,-0.0018808541,0.008139779,0.02771129,-0.05889503285288811,0.02334674447774887,-1.2390098571777344,1000.5613,
2021.05.22 15:27:22,43.0,24.0,26.939999,7.74,-31.439999,-0.31365,0.51716334,10.055954,-0.001269989,-0.0046883905,0.019770043,-0.05135837197303772,0.0311803687363863,-1.2236963510513306,1000.5613,
2021.05.22 15:27:22,43.0,24.0,26.22,8.22,-29.88,-0.2944958,0.5219519,9.964972,0.0023952026,-0.0059101214,0.0112179285,-0.05230804532766342,0.029544498771429062,-1.2012137174606323,1000.5647,
2021.05.22 15:27:22,43.0,24.0,25.32,8.82,-28.98,-0.2681588,0.55786604,9.912297,-0.009822102,-0.01385137,0.009385334,-0.05620036646723747,0.02704654633998871,-1.1672767400741577,1000.5647,
2021.05.22 15:27:22,43.0,24.0,24.84,8.88,-27.96,-0.28731298,0.54350036,10.010463,-0.009822102,-0.02301435,0.0038875462,-0.05421769246459007,0.028693392872810364,-1.16160249710083,1000.56934,
2021.05.22 15:27:23,43.0,24.0,24.9,9.059999,-28.019999,-0.2466103,0.5818088,10.027223,-0.006767776,-0.021181753,-0.0077188932,-0.05794046074151993,0.024589121341705322,-1.1544641256332397,1000.56934,
2021.05.22 15:27:23,43.0,24.0,25.019999,9.3,-28.56,-0.3304099,0.56265455,10.012857,0.011558182,-0.034620788,-0.0034428365,-0.056103698909282684,0.0329865925014019,-1.1443803310394287,1000.5762,
2021.05.22 15:27:23,43.0,24.0,24.72,9.3,-29.099998,-0.17478207,0.60335726,9.98652,0.016445102,-0.02790127,-0.014438411,-0.060334596782922745,0.01750001311302185,-1.1421033143997192,1000.57544,
2021.05.22 15:27:23,43.0,24.0,24.779999,9.36,-29.939999,-0.21069619,0.5602603,9.809344,0.034160193,-0.007742717,0.009385334,-0.05703984200954437,0.02147582918405533,-1.1403026580810547,1000.57544,
2021.05.22 15:27:23,43.0,24.0,25.019999,9.78,-30.06,-0.19633053,0.531529,9.981731,0.013390777,1.9853121E-4,-0.010162354,-0.05318966135382652,0.01966645009815693,-1.1344292163848877,1000.57324,
2021.05.22 15:27:23,43.0,24.0,24.84,9.3,-30.119999,-0.25139886,0.57462597,9.967366,0.0011734721,0.009972375,-0.026044851,-0.05756872147321701,0.025216849520802498,-1.1403547525405884,1000.58203,
2021.05.22 15:27:23,43.0,24.0,25.5,9.3,-29.76,-0.28252444,0.5961744,10.0439825,0.0017843375,-0.008964447,-0.02237966,-0.059263426810503006,0.028121311217546463,-1.1481387615203857,1000.58203,
2021.05.22 15:27:23,43.0,24.0,25.56,9.3,-29.279999,-0.32083282,0.62251145,10.010463,0.031716734,0.0056963186,-0.0138275465,-0.06207431107759476,0.03203878179192543,-1.1454347372055054,1000.573,
2021.05.22 15:27:23,43.0,24.0,24.84,8.58,-29.22,-0.29689008,0.600963,10.027223,0.036603656,0.0044745877,-0.012605815,-0.05983538180589676,0.029599759727716446,-1.1629204750061035,1000.573,
2021.05.22 15:27:23,43.0,24.0,24.779999,8.7,-29.16,-0.28013015,0.6273,9.842864,0.051875286,0.011194105,-0.0077188932,-0.06361968070268631,0.028452547267079353,-1.1546603441238403,1000.57886,
2021.05.22 15:27:23,43.0,24.0,24.72,8.22,-29.519999,-0.26097596,0.6273,9.883567,0.04393404,1.9853121E-4,0.0069418726,-0.06336194276809692,0.026398904621601105,-1.170973539352417,1000.57886,
2021.05.22 15:27:23,43.0,24.0,24.48,8.16,-29.699999,-0.29928434,0.6105401,9.885961,0.023775486,0.009972375,0.0038875462,-0.06165178865194321,0.03026442974805832,-1.1688567399978638,1000.57495,
2021.05.22 15:27:23,43.0,24.0,24.66,8.46,-30.06,-0.28252444,0.6703969,9.90272,-0.017152485,1.9853121E-4,0.0032766813,-0.06756771355867386,0.028522245585918427,-1.1545969247817993,1000.57837,
2021.05.22 15:27:23,43.0,24.0,24.3,8.639999,-30.06,-0.25139886,0.6560313,9.751882,-0.01776335,-0.0059101214,0.016715717,-0.06714882701635361,0.02577381581068039,-1.1445497274398804,1000.57837,
2021.05.22 15:27:23,43.0,24.0,25.32,8.04,-30.9,-0.35435268,0.6177229,9.955395,-0.04341969,-0.0022449298,-0.008329758,-0.06193049997091293,0.03557901456952095,-1.1793113946914673,1000.5698,
2021.05.22 15:27:23,43.0,24.0,26.22,7.9199996,-31.8,-0.2681588,0.6392714,10.072714,-0.061134785,-0.011407908,-0.010773219,-0.06335825473070145,0.026616010814905167,-1.1965848207473755,1000.5698,
2021.05.22 15:27:23,43.0,24.0,26.88,7.68,-32.399998,-0.15802214,0.6943397,9.869201,-0.0379219,-0.010797042,0.036263406,-0.07022949308156967,0.016010276973247528,-1.2093558311462402,1000.5698,
2021.05.22 15:27:24,43.0,24.0,28.019999,7.3199997,-33.12,-0.24421602,0.60335726,10.008069,-0.015319889,-0.0052992557,0.031987347,-0.060196325182914734,0.024397071450948715,-1.2400785684585571,1000.5659,
2021.05.22 15:27:24,43.0,24.0,28.199999,7.98,-33.36,-0.29928434,0.5554718,9.972155,-0.027537195,-0.008353583,-0.0016102408,-0.05561979115009308,0.030002998188138008,-1.2225987911224365,1000.5659,
2021.05.22 15:27:24,43.0,24.0,28.199999,7.56,-33.12,-0.26337022,0.5818088,10.010463,-0.027537195,0.0063071838,0.01366139,-0.05803472176194191,0.026303427293896675,-1.2357873916625977,1000.57275,
2021.05.22 15:27:24,43.0,24.0,28.32,7.5,-33.3,-0.26337022,0.54828894,9.931452,-0.015319889,0.012415837,0.02526783,-0.05513199791312218,0.026512589305639267,-1.2417831420898438,1000.57275,
2021.05.22 15:27:24,43.0,24.0,28.26,7.5,-33.36,-0.23942748,0.5243462,10.125388,-0.02142854,8.0939644E-4,0.030765617,-0.0517246387898922,0.02364184707403183,-1.2459588050842285,1000.57275,
2021.05.22 15:27:24,43.0,24.0,28.439999,7.14,-32.88,-0.13886794,0.6249057,9.98652,-6.591236E-4,0.011804971,0.033819944,-0.0624874122440815,0.01390464324504137,-1.2530035972595215,1000.5679,
2021.05.22 15:27:24,43.0,24.0,28.56,7.2,-32.94,-0.16041641,0.5889916,10.015251,0.00789299,0.011194105,0.021602638,-0.05873429402709007,0.01601584441959858,-1.2553250789642334,1000.5679,
2021.05.22 15:27:24,43.0,24.0,28.38,7.02,-33.0,-0.23942748,0.54828894,10.000886,0.009725586,-0.0065209866,-0.013216681,-0.05475354567170143,0.02393605373799801,-1.2602437734603882,1000.56836,
2021.05.22 15:27:24,43.0,24.0,28.56,6.7799997,-32.88,-0.30167863,0.4932206,9.826104,0.008503855,-0.01385137,-0.016881872,-0.05012925714254379,0.03069211356341839,-1.2726593017578125,1000.56836,
2021.05.22 15:27:24,43.0,24.0,27.96,7.14,-33.18,-0.2681588,0.4644893,9.79019,0.0060603945,-0.01873829,0.0044984114,-0.04739106446504593,0.0273837149143219,-1.2581984996795654,1000.5657,
2021.05.22 15:27:24,43.0,24.0,27.9,7.56,-33.48,-0.2944958,0.47167215,9.826104,5.6260685E-4,-0.016905695,0.0051092766,-0.047943636775016785,0.029961789026856422,-1.2412433624267578,1000.572,
2021.05.22 15:27:24,43.0,24.0,28.199999,8.04,-33.66,-0.2466103,0.4644893,9.950606,-0.036700174,-0.012629638,0.008774469,-0.0466313399374485,0.024778371676802635,-1.2322566509246826,1000.572,
2021.05.22 15:27:24,43.0,24.0,28.439999,8.22,-33.6,-0.14844504,0.50998056,9.79019,-0.02936979,0.0044745877,0.014883121,-0.05203796923160553,0.015161469578742981,-1.2276217937469482,1000.56934,
2021.05.22 15:27:24,43.0,24.0,29.099998,7.7999997,-33.3,-0.28013015,0.45970076,10.108628,-0.03731104,-0.002855795,0.014883121,-0.0454273521900177,0.027704894542694092,-1.2505995035171509,1000.5759,
2021.05.22 15:27:24,43.0,24.0,28.859999,7.56,-33.12,-0.05985687,0.6177229,9.972155,-0.015319889,0.027076604,0.017326582,-0.061864614486694336,0.00600232882425189,-1.2474671602249146,1000.5759,
2021.05.22 15:27:24,43.0,24.0,29.039999,7.08,-32.82,-0.24900457,0.49082634,9.998491,-0.020817677,0.0087506445,-0.006497163,-0.04903548210859299,0.024899067357182503,-1.271199107170105,1000.5676,
2021.05.22 15:27:25,43.0,24.0,29.039999,7.02,-32.82,-0.3519584,0.44054657,9.996098,-0.019595945,0.006918049,-0.03642956,-0.04401611536741257,0.035195041447877884,-1.2746952772140503,1000.5676,
2021.05.22 15:27:25,43.0,24.0,28.38,7.02,-32.94,-0.30886146,0.4668836,9.98652,-0.001269989,0.0014202617,-0.008329758,-0.04669507220387459,0.030917983502149582,-1.2664517164230347,1000.5652,
2021.05.22 15:27:25,43.0,24.0,28.56,7.2,-32.88,-0.32083282,0.4166038,9.962578,-0.005546046,0.0038637226,0.0020549507,-0.04177088662981987,0.032192669808864594,-1.2674219608306885,1000.5652,
2021.05.22 15:27:25,43.0,24.0,28.439999,7.44,-32.82,-0.26097596,0.43096948,9.96976,-0.009211237,0.017302757,-0.008329758,-0.043185994029045105,0.026170777156949043,-1.2591608762741089,1000.56226,
2021.05.22 15:27:25,43.0,24.0,28.32,7.5,-32.88,-0.102953814,0.50040346,9.9889145,-0.014709025,0.0038637226,0.01610485,-0.050051383674144745,0.01030644215643406,-1.2547310590744019,1000.562,
2021.05.22 15:27:25,43.0,24.0,28.619999,7.74,-32.76,-0.22985038,0.44533512,9.924269,-0.015930755,0.0014202617,0.007552738,-0.044831253588199615,0.023156294599175453,-1.2508203983306885,1000.562,
2021.05.22 15:27:25,43.0,24.0,28.74,7.44,-32.82,-0.22985038,0.41420954,9.962578,-0.005546046,-0.0071318517,-0.012605815,-0.04154156520962715,0.023067284375429153,-1.265261173248291,1000.5676,
2021.05.22 15:27:25,43.0,24.0,28.5,7.3199997,-32.52,-0.31125572,0.45251793,10.079897,-0.015930755,-0.013240504,-0.021768793,-0.044841647148132324,0.030869049951434135,-1.2606092691421509,1000.5676,
2021.05.22 15:27:25,43.0,24.0,28.439999,7.3799996,-32.76,-0.3040729,0.43815228,9.972155,-0.007378641,-0.022403482,-0.020547064,-0.04388896003365517,0.03048275224864483,-1.2587624788284302,1000.5742,
2021.05.22 15:27:25,43.0,24.0,28.26,6.96,-32.579998,-0.2777359,0.47885495,9.895537,0.00789299,-0.0016340646,8.332202E-4,-0.0483342744410038,0.02805941365659237,-1.2671935558319092,1000.572,
2021.05.22 15:27:25,43.0,24.0,28.199999,6.7799997,-32.46,-0.24900457,0.3902668,9.991309,-0.01776335,-0.009575313,-0.013216681,-0.039028674364089966,0.024916958063840866,-1.2842501401901245,1000.572,
2021.05.22 15:27:25,43.0,24.0,28.74,6.96,-32.64,-0.26337022,0.38068968,10.039194,-0.0049351803,-0.0046883905,-9.993755E-4,-0.037889160215854645,0.02622818388044834,-1.2840428352355957,1000.5676,
2021.05.22 15:27:25,43.0,24.0,29.099998,6.8999996,-32.16,-0.18675344,0.45491222,9.780613,0.0023952026,8.0939644E-4,0.0069418726,-0.04646966978907585,0.019091926515102386,-1.2836037874221802,1000.5676,
2021.05.22 15:27:25,43.0,24.0,29.279999,7.14,-32.28,-0.25379312,0.4189981,10.05356,0.01949943,0.002031127,0.021602638,-0.041639234870672226,0.02523874305188656,-1.2802730798721313,1000.57153,
2021.05.22 15:27:25,43.0,24.0,29.279999,7.2,-32.219997,-0.23942748,0.36632404,10.0368,-0.012876429,-0.0059101214,-0.019936197,-0.03647152706980705,0.023850437253713608,-1.2843616008758545,1000.57104,
2021.05.22 15:27:25,43.0,24.0,28.74,7.02,-32.399998,-0.12450229,0.51716334,10.012857,-0.0018808541,-0.016905695,0.0026658159,-0.05160008743405342,0.01243360061198473,-1.2728902101516724,1000.57104,
2021.05.22 15:27:25,43.0,24.0,28.32,7.44,-32.52,-0.3040729,0.45251793,9.972155,0.003616933,0.0014202617,8.332202E-4,-0.045326001942157745,0.03048275038599968,-1.254358172416687,1000.5713,
2021.05.22 15:27:26,43.0,24.0,28.199999,7.8599997,-32.52,-0.26337022,0.3974496,10.039194,0.010947316,-0.010186179,0.017937446,-0.03955553472042084,0.02622818388044834,-1.2471973896026611,1000.57153,
2021.05.22 15:27:26,43.0,24.0,28.08,8.22,-32.76,-0.24182175,0.36392978,9.852441,0.016445102,-0.01385137,0.020380909,-0.03691014274954796,0.024539422243833542,-1.2372395992279053,1000.57153,
2021.05.22 15:27:26,43.0,24.0,27.96,8.04,-32.52,-0.19154198,0.37111259,9.905115,0.015223373,0.008139779,0.033209078,-0.03744225203990936,0.019335271790623665,-1.2436858415603638,1000.5659,
2021.05.22 15:27:26,43.0,24.0,27.66,7.56,-32.52,-0.15802214,0.43815228,10.005674,-0.023261137,1.9853121E-4,0.019770043,-0.04375696927309036,0.015791937708854675,-1.2508193254470825,1000.5659,
2021.05.22 15:27:26,43.0,24.0,27.72,7.44,-32.52,-0.15562786,0.47167215,9.869201,-0.0061569107,0.002031127,0.04053946,-0.047750070691108704,0.015767738223075867,-1.2511482238769531,1000.5659,
2021.05.22 15:27:26,43.0,24.0,27.539999,7.3799996,-32.579998,-0.2370332,0.33759275,10.046377,-0.0024917193,-0.018127427,0.03137648,-0.0335814543068409,0.023589521646499634,-1.2635767459869385,1000.5659,
2021.05.22 15:27:26,43.0,24.0,27.779999,7.68,-32.579998,-0.31843856,0.28970724,9.960183,-0.0018808541,0.0087506445,0.009996199,-0.029063498601317406,0.03196026757359505,-1.2578073740005493,1000.5691,
2021.05.22 15:27:26,43.0,24.0,28.32,7.3199997,-32.399998,-0.16520496,0.3232271,9.960183,-0.009211237,0.0038637226,0.01243966,-0.032436080276966095,0.01658501848578453,-1.2777435779571533,1000.5652,
2021.05.22 15:27:26,43.0,24.0,28.08,6.72,-32.16,-0.102953814,0.41181526,9.964972,-0.014098159,-0.004077526,0.041761193,-0.04130058363080025,0.010331204161047935,-1.2882858514785767,1000.5652,
2021.05.22 15:27:26,43.0,24.0,28.5,6.48,-32.28,-0.15802214,0.37111259,10.005674,-0.01776335,0.0026419922,0.016715717,-0.037068597972393036,0.015791939571499825,-1.3026947975158691,1000.5613,
2021.05.22 15:27:26,43.0,24.0,28.5,6.0,-32.46,-0.18196489,0.38068968,10.108628,-0.013487294,-0.010797042,-3.885103E-4,-0.03763599321246147,0.01799900457262993,-1.317122220993042,1000.5613,
2021.05.22 15:27:26,43.0,24.0,27.96,6.42,-32.7,-0.19633053,0.36632404,9.953,-0.010432967,0.0038637226,-0.0034428365,-0.036781635135412216,0.019723206758499146,-1.2980766296386719,1000.5642,
2021.05.22 15:27:26,43.0,24.0,28.38,6.8399997,-33.12,-0.21069619,0.35674694,9.955395,-0.0024917193,-0.0022449298,-0.004664567,-0.03581119701266289,0.02116086333990097,-1.2879544496536255,1000.5615,
2021.05.22 15:27:26,43.0,24.0,27.779999,7.08,-32.88,-0.17717634,0.339987,9.938635,0.009725586,-0.004077526,-0.004664567,-0.0341898612678051,0.017825141549110413,-1.2773264646530151,1000.5615,
2021.05.22 15:27:26,43.0,24.0,28.019999,7.3799996,-33.36,-0.18196489,0.3040729,10.242707,-0.0037134497,-0.016905695,-0.0028319713,-0.029673371464014053,0.017763443291187286,-1.2741883993148804,1000.56396,
2021.05.22 15:27:26,43.0,24.0,27.42,7.8599997,-33.0,-0.057462595,0.36871833,9.917087,-0.007989507,-0.0052992557,-3.885103E-4,-0.03716236725449562,0.005794237367808819,-1.2487013339996338,1000.5608,
2021.05.22 15:27:26,43.0,24.0,26.64,8.34,-32.7,-0.2561874,0.3519584,9.838076,0.013390777,8.0939644E-4,-0.016271008,-0.035747770220041275,0.026034513488411903,-1.2167829275131226,1000.5608,
2021.05.22 15:27:27,43.0,24.0,26.64,8.58,-32.52,-0.35674694,0.3519584,9.953,5.6260685E-4,-0.0022449298,-0.035818696,-0.035324644297361374,0.035827819257974625,-1.204835057258606,1000.56226,
2021.05.22 15:27:27,43.0,24.0,26.16,8.639999,-31.32,-0.24900457,0.3974496,10.130177,-0.012876429,-0.01385137,8.332202E-4,-0.03920228034257889,0.024575529620051384,-1.1994012594223022,1000.56226,
2021.05.22 15:27:27,43.0,24.0,26.46,8.4,-31.32,-0.16520496,0.4740664,10.012857,0.008503855,-0.0010231993,0.01366139,-0.04730401188135147,0.016497785225510597,-1.2064720392227173,1000.5669,
2021.05.22 15:27:27,43.0,24.0,26.46,7.98,-31.199999,-0.105348095,0.4189981,9.955395,0.01949943,0.0044745877,0.017326582,-0.04206036403775215,0.010581616312265396,-1.2289618253707886,1000.56323,
2021.05.22 15:27:27,43.0,24.0,26.64,8.16,-30.96,-0.12210801,0.37829542,9.921875,0.022553755,-0.0065209866,-0.002221106,-0.03810606896877289,0.012306327931582928,-1.2288382053375244,1000.56323,
2021.05.22 15:27:27,43.0,24.0,26.82,8.46,-31.08,-0.2083019,0.42139238,9.955395,0.015223373,-0.01385137,-0.0016102408,-0.04229354485869408,0.020920468494296074,-1.2127472162246704,1000.5679,
2021.05.22 15:27:27,43.0,24.0,26.76,8.46,-31.08,-0.16759923,0.38308397,9.929058,0.015223373,-0.002855795,0.0032766813,-0.038557492196559906,0.016878066584467888,-1.2176470756530762,1000.5679,
2021.05.22 15:27:27,43.0,24.0,26.34,8.5199995,-30.9,-0.36392978,0.47167215,9.991309,-0.009822102,-0.010186179,-0.002221106,-0.04714200273156166,0.03640853613615036,-1.192625641822815,1000.5654,
2021.05.22 15:27:27,43.0,24.0,26.16,7.98,-30.9,-0.19633053,0.44772938,10.065532,0.0023952026,-0.019349158,0.031987347,-0.04444370046257973,0.019502758979797363,-1.2194149494171143,1000.5696,
2021.05.22 15:27:27,43.0,24.0,25.38,7.8599997,-30.84,-0.105348095,0.45730647,9.91948,0.04026885,-0.013240504,0.042372055,-0.046066638082265854,0.010619924403727055,-1.2158795595169067,1000.5696,
2021.05.22 15:27:27,43.0,24.0,25.5,7.7999997,-30.42,-0.011971374,0.49082634,10.149331,0.0011734721,0.038072176,0.009385334,-0.048322781920433044,0.0011795229511335492,-1.2219531536102295,1000.5679,
2021.05.22 15:27:27,43.0,24.0,26.16,7.9199996,-30.599998,-0.20111908,0.39266106,9.799767,0.040879715,0.040515635,0.0057201423,-0.040038563311100006,0.020519964396953583,-1.2262763977050781,1000.5679,
2021.05.22 15:27:27,43.0,24.0,25.92,8.22,-30.599998,-0.057462595,0.50758624,9.811738,0.05065356,0.066171974,-9.993755E-4,-0.05168559029698372,0.005856448318809271,-1.207093358039856,1000.5686,
2021.05.22 15:27:27,43.0,24.0,26.46,8.099999,-30.84,-0.14365649,0.61293435,9.835681,0.0463775,0.017913625,0.010607065,-0.062230322510004044,0.014604609459638596,-1.2028361558914185,1000.5686,
2021.05.22 15:27:27,43.0,24.0,26.099998,8.099999,-31.08,-0.13886794,0.679974,10.115811,-0.009211237,0.019135352,-0.019325333,-0.06711165606975555,0.013726948760449886,-1.1929292678833008,1000.56177,
2021.05.22 15:27:27,43.0,24.0,25.859999,8.4,-30.9,-0.047885496,0.52674043,10.1206,0.003616933,0.035628714,-0.044370808,-0.051998864859342575,0.0047314525581896305,-1.1998600959777832,1000.56274,
2021.05.22 15:27:27,43.0,24.0,25.92,8.099999,-30.9,-0.11971374,0.44294083,10.326508,-0.055637,-0.093874715,-0.028488312,-0.042864423245191574,0.011592339724302292,-1.2173724174499512,1000.56274,
2021.05.22 15:27:28,43.0,24.0,26.039999,8.099999,-30.48,-0.16041641,0.5411061,9.797373,-0.020817677,0.06556111,-0.041316483,-0.05516628548502922,0.016371946781873703,-1.204664945602417,1000.56885,
