Time,X-cord,Y-cord,Mag_x,Mag_y,Mag_z,Acc_x,Acc_y,Acc_z,Gyro_x,Gyro_y,Gyro_z,Orn_x,Orn_y,Orn_z,Pressure,
2021.05.22 15:33:05,73.0,24.0,36.12,12.059999,-30.84,-0.5698374,-0.019154198,10.302565,-0.064189106,0.08816312,-0.07919013,0.0018563285702839494,0.055253949016332626,-1.2348343133926392,1000.56885,
2021.05.22 15:33:06,73.0,24.0,36.66,11.94,-31.619999,-0.600963,0.047885496,10.000886,-0.1313843,-0.07127271,0.0069418726,-0.004779467824846506,0.06001880392432213,-1.2352218627929688,1000.57764,
2021.05.22 15:33:06,73.0,24.0,37.62,11.7,-32.28,-0.33519846,0.045491222,10.139753,-0.007989507,0.04662429,-0.008940623,-0.004483943339437246,0.03304581716656685,-1.2571361064910889,1000.5803,
2021.05.22 15:33:06,73.0,24.0,38.399998,11.46,-32.82,-0.39505535,0.20590763,9.974549,0.0042277984,0.03257439,2.2235495E-4,-0.020624205470085144,0.039585646241903305,-1.2537095546722412,1000.5803,
2021.05.22 15:33:06,73.0,24.0,39.36,11.04,-33.719997,-0.5650489,0.18196489,10.106234,0.0744773,-0.03523165,-0.028488312,-0.017975199967622757,0.055852774530649185,-1.2681481838226318,1000.5762,
2021.05.22 15:33:06,73.0,24.0,39.36,10.98,-33.899998,-0.3974496,0.3615355,9.897932,0.08425114,-0.059666265,-0.028488312,-0.03648076578974724,0.04013325273990631,-1.258326530456543,1000.5762,
2021.05.22 15:33:06,73.0,24.0,38.879997,10.98,-33.96,-0.71588814,0.15323359,10.024829,0.11357268,-0.045616362,-0.049868595,-0.015245399437844753,0.07129049301147461,-1.263554573059082,1000.57227,
2021.05.22 15:33:06,73.0,24.0,38.94,10.679999,-34.5,-0.749408,0.047885496,9.914692,0.086694606,-0.021181753,-0.095683485,-0.00481597613543272,0.07544215023517609,-1.2795673608779907,1000.57324,
2021.05.22 15:33:06,73.0,24.0,38.52,10.8,-34.86,-0.57223165,0.102953814,9.737515,0.089748934,-0.019349158,-0.045592535,-0.010554302483797073,0.05869816243648529,-1.27260160446167,1000.57324,
2021.05.22 15:33:06,73.0,24.0,38.94,10.139999,-34.86,-0.31125572,0.24900457,9.792584,0.04882096,-0.060887992,0.03931773,-0.02540956623852253,0.031774140894412994,-1.2864018678665161,1000.5842,
2021.05.22 15:33:06,73.0,24.0,38.82,10.08,-34.68,-0.17957062,0.37829542,9.931452,0.032938465,-0.050503284,0.054589365,-0.03806602582335472,0.018079033121466637,-1.2802289724349976,1000.5842,
2021.05.22 15:33:06,73.0,24.0,38.82,10.139999,-34.5,-0.15802214,0.35674694,10.149331,-0.025093732,-0.06882924,0.030154753,-0.03513108193874359,0.015568451024591923,-1.2821428775787354,1000.5698,
2021.05.22 15:33:06,73.0,24.0,38.579998,9.719999,-34.38,-0.038308397,0.38308397,9.857229,0.0072821244,-0.041340306,0.04053946,-0.03884340822696686,0.003886305494233966,-1.290838599205017,1000.5659,
2021.05.22 15:33:06,73.0,24.0,38.1,10.2,-34.8,-0.24421602,0.3423813,9.917087,-0.055637,-0.04744896,0.019770043,-0.03450022637844086,0.02462080679833889,-1.273024559020996,1000.5659,
2021.05.22 15:33:06,73.0,24.0,38.399998,10.08,-35.64,0.14844504,0.5411061,9.768641,-0.02936979,-0.032177325,0.038096,-0.05532923340797424,-0.01519490871578455,-1.2717727422714233,1000.5664,
2021.05.22 15:33:06,73.0,24.0,38.219997,10.08,-35.46,-0.3423813,0.3232271,10.0368,-0.072741225,-0.03523165,-0.017492738,-0.03217436745762825,0.03409937396645546,-1.2753735780715942,1000.5664,
2021.05.22 15:33:06,73.0,24.0,38.399998,10.26,-36.059998,-0.12450229,0.22506183,10.59706,-0.06907603,-0.020570887,-0.021157928,-0.021233482286334038,0.011748216114938259,-1.2880420684814453,1000.56177,
2021.05.22 15:33:07,73.0,24.0,38.16,10.26,-35.7,-0.17717634,0.4932206,9.569917,-0.035478443,-0.04378377,0.015493986,-0.05148428678512573,0.01851177215576172,-1.2581450939178467,1000.5679,
2021.05.22 15:33:07,73.0,24.0,38.1,10.38,-35.64,-0.25379312,0.2681588,9.440625,0.059816536,0.039293908,0.026489561,-0.028386883437633514,0.02687661163508892,-1.2724956274032593,1000.5679,
2021.05.22 15:33:07,73.0,24.0,38.46,10.38,-35.82,-0.39266106,-0.05506832,10.506078,-0.071519494,-0.0731053,-0.07185974,0.005237862467765808,0.03735727071762085,-1.3028404712677002,1000.57153,
2021.05.22 15:33:07,73.0,24.0,38.46,10.26,-35.64,-0.011971374,0.39505535,9.699207,-0.04341969,-0.05111415,-0.014438411,-0.04070815071463585,0.0012342624831944704,-1.2750685214996338,1000.5735,
2021.05.22 15:33:07,73.0,24.0,38.46,10.32,-35.04,-0.10774237,0.45491222,9.804555,-0.009822102,-0.045005497,0.03870687,-0.046362001448869705,0.010988568887114525,-1.2666045427322388,1000.5735,
2021.05.22 15:33:07,73.0,24.0,38.04,10.86,-34.98,-0.4189981,0.28252444,10.218765,-0.017152485,-0.030955598,-0.0077188932,-0.027617374435067177,0.04097985103726387,-1.2571297883987427,1000.5691,
2021.05.22 15:33:07,73.0,24.0,37.38,11.04,-34.86,-0.37111259,0.21548474,10.041589,0.003616933,0.0087506445,-0.077968396,-0.021441299468278885,0.036940742284059525,-1.2542552947998047,1000.5691,
2021.05.22 15:33:07,73.0,24.0,37.079998,11.4,-34.5,-0.30167863,0.22266756,9.924269,0.037214525,0.053343806,-0.055366382,-0.022422553971409798,0.030388714745640755,-1.244288444519043,1000.57935,
2021.05.22 15:33:07,73.0,24.0,37.079998,11.4,-34.5,-0.25379312,0.31365,9.979338,0.038436253,0.028909197,-0.0028319713,-0.03140944987535477,0.025426380336284637,-1.2380589246749878,1000.57935,
2021.05.22 15:33:07,73.0,24.0,36.96,11.099999,-34.32,-0.4070267,0.40223816,9.893144,0.04393404,0.02218968,0.0112179285,-0.04060158133506775,0.041119109839200974,-1.231286883354187,1000.5801,
2021.05.22 15:33:07,73.0,24.0,37.079998,10.98,-33.899998,-0.42139238,0.40463245,9.93624,0.026218947,0.0014202617,0.03137648,-0.04066389426589012,0.04238424450159073,-1.235421061515808,1000.5886,
2021.05.22 15:33:07,73.0,24.0,37.02,10.98,-33.96,-0.33519846,0.3423813,9.945818,0.024997218,8.0939644E-4,0.050313305,-0.034391552209854126,0.033689700067043304,-1.2432405948638916,1000.5886,
2021.05.22 15:33:07,73.0,24.0,36.66,10.98,-34.2,-0.2561874,0.37111259,10.010463,0.018888565,0.013026701,0.04970244,-0.03704338148236275,0.025586379691958427,-1.2402904033660889,1000.58936,
2021.05.22 15:33:07,73.0,24.0,36.78,10.8,-34.14,-0.12689656,0.50758624,9.976943,0.023775486,0.012415837,0.06497407,-0.0508279949426651,0.012718296609818935,-1.2384371757507324,1000.58936,
2021.05.22 15:33:07,73.0,24.0,36.6,10.559999,-34.68,-0.19154198,0.531529,10.084685,0.006671259,-0.012629638,0.045426384,-0.05264835059642792,0.01899106800556183,-1.2383564710617065,1000.58594,
2021.05.22 15:33:07,73.0,24.0,36.78,10.0199995,-34.92,-0.15323359,0.5961744,10.07032,0.054929614,0.005085453,0.020380909,-0.05912529677152634,0.015215182676911354,-1.2486165761947632,1000.5862,
2021.05.22 15:33:07,73.0,24.0,37.2,9.9,-35.04,-0.24900457,0.6249057,10.058349,0.06470346,-0.022403482,-0.006497163,-0.06202935427427292,0.024750955402851105,-1.2489877939224243,1000.5862,
2021.05.22 15:33:08,73.0,24.0,37.14,9.84,-34.8,-0.39266106,0.41420954,10.1541195,0.06287086,0.0063071838,-0.07247061,-0.04073924943804741,0.038650866597890854,-1.2646238803863525,1000.594,
2021.05.22 15:33:08,73.0,24.0,37.62,9.96,-34.44,-0.34477556,0.37590113,9.526819,0.08608374,0.036850445,-0.07491407,-0.03941091522574425,0.03617421165108681,-1.267845630645752,1000.594,
2021.05.22 15:33:08,73.0,24.0,37.32,9.96,-34.14,-0.39266106,0.38787252,9.672871,0.026218947,0.028909197,-0.048646867,-0.04004459083080292,0.040571779012680054,-1.2639055252075195,1000.5879,
2021.05.22 15:33:08,73.0,24.0,37.14,10.0199995,-34.38,-0.2657645,0.57462597,9.720756,-0.023872003,-0.004077526,-0.013216681,-0.05902258679270744,0.0273330919444561,-1.2483617067337036,1000.5847,
2021.05.22 15:33:08,73.0,24.0,37.14,10.32,-34.559998,-0.2753416,0.56744313,10.096657,-0.062356513,-0.03523165,0.009996199,-0.056121211498975754,0.027263814583420753,-1.2431626319885254,1000.5847,
2021.05.22 15:33:08,73.0,24.0,36.84,10.32,-35.16,-0.21309046,0.5602603,10.055954,-0.0660217,-0.031566463,-0.024212256,-0.05564428120851517,0.021187307313084602,-1.24224054813385,1000.5869,
2021.05.22 15:33:08,73.0,24.0,36.96,10.679999,-35.34,-0.28970724,0.5411061,9.962578,-0.023261137,0.0087506445,-0.028488312,-0.05423766374588013,0.029071351513266563,-1.2324719429016113,1000.5869,
2021.05.22 15:33:08,73.0,24.0,36.899998,10.92,-35.46,-0.37829542,0.48843205,10.08708,-0.01654162,-0.012018774,-0.030931773,-0.04834982007741928,0.03748540207743645,-1.2279722690582275,1000.5869,
2021.05.22 15:33:08,73.0,24.0,37.26,10.5,-35.04,-0.38308397,0.50758624,9.993703,-0.019595945,-0.023625214,-0.02726658,-0.05070982128381729,0.03831377625465393,-1.2397923469543457,1000.58984,
2021.05.22 15:33:08,73.0,24.0,37.68,10.38,-34.68,-0.32801566,0.47885495,9.900327,0.0023952026,0.0063071838,0.0026658159,-0.04830346256494522,0.03311968594789505,-1.2507373094558716,1000.58984,
2021.05.22 15:33:08,73.0,24.0,37.62,10.26,-34.32,-0.35674694,0.43336374,9.972155,-0.006767776,0.002031127,-9.993755E-4,-0.043402329087257385,0.035759057849645615,-1.2571382522583008,1000.584,
2021.05.22 15:33:08,73.0,24.0,37.62,10.08,-34.14,-0.20111908,0.49082634,10.046377,5.6260685E-4,0.005085453,0.017326582,-0.04880747199058533,0.020016390830278397,-1.2622557878494263,1000.57666,
2021.05.22 15:33:08,73.0,24.0,37.44,10.559999,-34.559998,-0.14365649,0.51716334,9.960183,-0.013487294,-0.011407908,0.030765617,-0.051871102303266525,0.014422076754271984,-1.2477573156356812,1000.57666,
2021.05.22 15:33:08,73.0,24.0,36.719997,10.86,-34.68,-0.1699935,0.51955765,9.912297,-0.0024917193,0.0026419922,0.01366139,-0.05235985666513443,0.017148077487945557,-1.2328681945800781,1000.5747,
2021.05.22 15:33:08,73.0,24.0,36.84,10.98,-34.86,-0.4285752,0.43575802,10.0439825,-0.001269989,0.014248433,-0.0077188932,-0.043318428099155426,0.04264397919178009,-1.2294929027557373,1000.5747,
2021.05.22 15:33:08,73.0,24.0,37.32,10.86,-34.92,-0.32083282,0.44054657,9.96976,5.6260685E-4,0.0044745877,0.0038875462,-0.044136740267276764,0.03216949477791786,-1.2395440340042114,1000.5781,
2021.05.22 15:33:09,73.0,24.0,36.84,10.86,-34.68,-0.24421602,0.46927786,9.926663,0.026829813,0.025854873,0.03443081,-0.04722503945231438,0.024597063660621643,-1.235713243484497,1000.5781,
2021.05.22 15:33:09,73.0,24.0,37.38,10.86,-34.8,-0.21787901,0.5554718,9.768641,0.0042277984,0.025854873,0.008774469,-0.056787487119436264,0.022300224751234055,-1.2327516078948975,1000.57495,
2021.05.22 15:33:09,73.0,24.0,37.14,10.74,-34.739998,-0.26097596,0.50998056,10.242707,-0.018374216,-0.004077526,0.01610485,-0.049732428044080734,0.025473685935139656,-1.2386736869812012,1000.5762,
2021.05.22 15:33:09,73.0,24.0,36.6,11.099999,-35.04,-0.2777359,0.50040346,10.027223,0.0017843375,-0.023625214,0.0057201423,-0.04984404146671295,0.027691109105944633,-1.2237461805343628,1000.5762,
2021.05.22 15:33:09,73.0,24.0,36.78,10.74,-35.399998,-0.30886146,0.46209505,10.0200405,0.01705597,-0.020570887,0.027100425,-0.04606258496642113,0.03081461600959301,-1.2359983921051025,1000.5774,
2021.05.22 15:33:09,73.0,24.0,36.6,10.559999,-34.739998,-0.29689008,0.4956149,9.826104,0.015223373,-0.0059101214,0.007552738,-0.05037293583154678,0.03020523488521576,-1.236285924911499,1000.5774,
2021.05.22 15:33:09,73.0,24.0,36.78,10.44,-35.16,-0.22506183,0.51716334,10.166091,0.015834238,-0.0034666602,0.019770043,-0.0508151650428772,0.022134866565465927,-1.2426649332046509,1000.5796,
2021.05.22 15:33:09,73.0,24.0,37.14,10.5,-35.1,-0.18914771,0.5506832,9.953,0.0048386636,-0.019349158,0.01610485,-0.05526205152273178,0.019001804292201996,-1.241516351699829,1000.5786,
2021.05.22 15:33:09,73.0,24.0,37.38,10.38,-34.92,-0.24182175,0.46927786,9.830893,0.006671259,0.012415837,0.0051092766,-0.047684408724308014,0.024593189358711243,-1.2513641119003296,1000.5786,
2021.05.22 15:33:09,73.0,24.0,37.02,10.2,-34.92,-0.35674694,0.4070267,9.914692,-0.01654162,0.00936151,-0.017492738,-0.04100334271788597,0.03596612811088562,-1.2550246715545654,1000.5786,
2021.05.22 15:33:09,73.0,24.0,36.66,10.5,-33.78,-0.22745611,0.46927786,9.964972,-0.013487294,-0.0046883905,-0.015049276,-0.047045741230249405,0.02282160148024559,-1.2451362609863281,1000.5786,
2021.05.22 15:33:09,73.0,24.0,36.059998,10.139999,-33.12,-0.31125572,0.5027977,10.017646,-0.022650272,-0.0010231993,0.0044984114,-0.05012497678399086,0.031060751527547836,-1.244665265083313,1000.5791,
2021.05.22 15:33:09,73.0,24.0,35.579998,10.679999,-32.52,-0.33759275,0.49800915,9.950606,-0.025093732,0.011194105,-0.0016102408,-0.04997768998146057,0.03391384705901146,-1.2266255617141724,1000.5762,
2021.05.22 15:33:09,73.0,24.0,35.219997,11.16,-32.34,-0.32801566,0.43575802,9.9889145,-0.014098159,0.008139779,-3.885103E-4,-0.04357306659221649,0.032826174050569534,-1.2170336246490479,1000.5762,
2021.05.22 15:33:09,73.0,24.0,35.219997,11.28,-32.34,-0.21548474,0.38308397,9.984126,-0.011043833,-4.1233405E-4,-0.0034428365,-0.038341570645570755,0.021579384803771973,-1.2222894430160522,1000.5774,
2021.05.22 15:33:09,73.0,24.0,35.04,11.94,-32.46,-0.13647367,0.45491222,9.881172,0.014612508,8.0939644E-4,0.028933022,-0.04600141942501068,0.01381060853600502,-1.2001279592514038,1000.5774,
2021.05.22 15:33:09,73.0,24.0,35.16,11.88,-32.28,-0.25139886,0.45970076,10.106234,0.011558182,-0.0022449298,0.008774469,-0.045441485941410065,0.0248704943805933,-1.199489951133728,1000.58105,
2021.05.22 15:33:10,73.0,24.0,35.1,11.639999,-32.52,-0.3328042,0.51955765,9.895537,-4.8258353E-5,-0.007742717,-0.02237966,-0.05242648720741272,0.033619076013565063,-1.1955217123031616,1000.5842,
2021.05.22 15:33:10,73.0,24.0,35.219997,11.5199995,-33.0,-0.3998439,0.37350687,10.139753,0.0017843375,-0.024236077,-0.012605815,-0.03679068014025688,0.03941287845373154,-1.2103068828582764,1000.5842,
2021.05.22 15:33:10,73.0,24.0,35.1,11.099999,-32.52,-0.26097596,0.42139238,9.761458,0.015223373,-0.0010231993,0.0057201423,-0.04312681779265404,0.026728976517915726,-1.219739317893982,1000.57324,
2021.05.22 15:33:10,73.0,24.0,34.8,10.92,-32.64,-0.2657645,0.36632404,9.859624,-0.015319889,0.0026419922,0.009996199,-0.03712340444326401,0.02694830484688282,-1.2265093326568604,1000.57324,
2021.05.22 15:33:10,73.0,24.0,34.98,11.58,-32.28,-0.20111908,0.43336374,9.962578,-0.019595945,-0.0071318517,0.011828794,-0.043462906032800674,0.02018471248447895,-1.2086710929870605,1000.5796,
2021.05.22 15:33:10,73.0,24.0,34.8,12.059999,-32.04,-0.2370332,0.44533512,10.012857,-0.02936979,-0.010797042,0.0130505245,-0.04443460330367088,0.02366846241056919,-1.1929600238800049,1000.5796,
2021.05.22 15:33:10,73.0,24.0,35.16,12.12,-32.7,-0.27055305,0.43096948,9.993703,-0.026315464,-0.0016340646,0.010607065,-0.04308163747191429,0.027065740898251534,-1.1940021514892578,1000.5796,
2021.05.22 15:33:10,73.0,24.0,35.04,12.0,-32.46,-0.28252444,0.36871833,9.912297,-0.010432967,-0.0034666602,-3.885103E-4,-0.037165846675634384,0.02849470265209675,-1.2005940675735474,1000.5779,
2021.05.22 15:33:10,73.0,24.0,35.28,11.82,-32.82,-0.22266756,0.3328042,10.00328,-0.008600371,0.0032528574,-9.993755E-4,-0.033249013125896454,0.022255780175328255,-1.2125970125198364,1000.5779,
2021.05.22 15:33:10,73.0,24.0,35.579998,11.4,-32.82,-0.20111908,0.4285752,9.924269,-0.017152485,-0.010797042,-0.002221106,-0.04314889758825302,0.02026260644197464,-1.2184325456619263,1000.5813,
2021.05.22 15:33:10,73.0,24.0,35.76,11.16,-32.52,-0.25379312,0.42139238,9.955395,0.003616933,0.013637567,0.010607065,-0.042289067059755325,0.0254875048995018,-1.2254468202590942,1000.57935,
2021.05.22 15:33:10,73.0,24.0,36.0,11.219999,-32.76,-0.36392978,0.36392978,10.089474,-0.011043833,0.0014202617,-0.029099176,-0.03603120148181915,0.03605461120605469,-1.2274720668792725,1000.57935,
2021.05.22 15:33:10,73.0,24.0,35.64,11.219999,-32.82,-0.34477556,0.38547826,9.926663,-6.591236E-4,0.0014202617,-0.016881872,-0.038789741694927216,0.034718312323093414,-1.22218918800354,1000.57886,
2021.05.22 15:33:10,73.0,24.0,35.16,11.46,-33.239998,-0.2849187,0.36871833,10.041589,-0.008600371,0.0014202617,-0.009551489,-0.03668787702918053,0.02836625464260578,-1.2150678634643555,1000.58496,
2021.05.22 15:33:10,73.0,24.0,34.98,12.12,-33.12,-0.19393626,0.4285752,9.912297,0.0030060678,0.009972375,0.0057201423,-0.043201547116041183,0.019562723115086555,-1.194360375404358,1000.58496,
2021.05.22 15:33:10,73.0,24.0,35.52,12.179999,-32.94,-0.28252444,0.35435268,10.024829,-0.0049351803,8.0939644E-4,-0.005275432,-0.035318780690431595,0.02817501127719879,-1.2018293142318726,1000.5842,
2021.05.22 15:33:10,73.0,24.0,35.82,11.82,-32.579998,-0.33519846,0.38787252,9.926663,-0.0018808541,-4.1233405E-4,-0.008940623,-0.03903171420097351,0.033754657953977585,-1.2090919017791748,1000.5842,
2021.05.22 15:33:11,73.0,24.0,36.059998,11.82,-31.619999,-0.30167863,0.37111259,9.933846,0.0011734721,0.0032528574,0.0063310075,-0.03732383996248245,0.030359432101249695,-1.215137004852295,1000.5906,
2021.05.22 15:33:11,73.0,24.0,35.579998,11.639999,-31.8,-0.31604427,0.3902668,10.017646,0.003616933,0.002031127,0.0038875462,-0.03891890123486519,0.03153829649090767,-1.2132514715194702,1000.5906,
2021.05.22 15:33:11,73.0,24.0,35.34,11.46,-31.92,-0.26337022,0.40223816,9.962578,-6.591236E-4,0.0014202617,0.0044984114,-0.0403389111161232,0.0264297965914011,-1.2160074710845947,1000.58984,
2021.05.22 15:33:11,73.0,24.0,35.16,11.7,-31.92,-0.30167863,0.37829542,9.90272,0.0017843375,0.005085453,0.0026658159,-0.038164906203746796,0.03045479767024517,-1.2085590362548828,1000.5901,
2021.05.22 15:33:11,73.0,24.0,35.04,11.639999,-32.46,-0.3328042,0.37111259,10.101445,-0.007378641,0.0038637226,0.0032766813,-0.03670215234160423,0.0329342857003212,-1.2085987329483032,1000.5901,
2021.05.22 15:33:11,73.0,24.0,35.76,11.28,-32.34,-0.18435916,0.43575802,9.881172,0.0042277984,0.0032528574,0.020380909,-0.044063616544008255,0.018655456602573395,-1.2235149145126343,1000.5901,
2021.05.22 15:33:11,73.0,24.0,35.82,11.639999,-32.64,-0.3328042,0.37111259,10.094262,5.6260685E-4,0.005085453,0.009996199,-0.03672821819782257,0.03295770287513733,-1.2157800197601318,1000.5786,
2021.05.22 15:33:11,73.0,24.0,36.42,11.46,-32.82,-0.3304099,0.43096948,9.866806,-0.001269989,0.0038637226,-0.0034428365,-0.04362655431032181,0.03347450867295265,-1.219624638557434,1000.5786,
2021.05.22 15:33:11,73.0,24.0,36.6,11.4,-33.059998,-0.31365,0.39505535,10.079897,-6.591236E-4,-0.0034666602,0.0051092766,-0.03915341943502426,0.031106354668736458,-1.2269896268844604,1000.5757,
2021.05.22 15:33:11,73.0,24.0,36.48,11.58,-32.88,-0.27055305,0.43096948,9.876384,0.003616933,0.011804971,0.0130505245,-0.04359236732125282,0.027387090027332306,-1.219252109527588,1000.5757,
2021.05.22 15:33:11,73.0,24.0,36.0,11.4,-32.7,-0.2849187,0.3423813,10.015251,0.0030060678,8.0939644E-4,0.01610485,-0.03415887430310249,0.02844081073999405,-1.2271451950073242,1000.57275,
2021.05.22 15:33:11,73.0,24.0,35.219997,11.88,-32.7,-0.26097596,0.4166038,9.895537,-0.0049351803,1.9853121E-4,0.008774469,-0.04206071421504021,0.026366984471678734,-1.201767921447754,1000.57275,
2021.05.22 15:33:11,73.0,24.0,34.739998,11.82,-32.7,-0.27294734,0.42139238,10.0439825,0.0011734721,0.009972375,0.01366139,-0.04191466420888901,0.027168525382876396,-1.1983836889266968,1000.5703,
2021.05.22 15:33:11,73.0,24.0,34.559998,11.759999,-32.88,-0.31604427,0.40223816,9.964972,-0.0049351803,8.0939644E-4,0.0032766813,-0.04032305255532265,0.031704895198345184,-1.1975350379943848,1000.56616,
2021.05.22 15:33:11,73.0,24.0,35.1,12.12,-32.399998,-0.3040729,0.35914123,10.048771,0.005449529,-0.0059101214,0.0038875462,-0.03570828214287758,0.03025047853589058,-1.1987926959991455,1000.56616,
2021.05.22 15:33:11,73.0,24.0,35.219997,11.5199995,-32.579998,-0.26097596,0.4070267,9.838076,0.0048386636,-4.1233405E-4,0.010607065,-0.04133448749780655,0.02652091532945633,-1.2116249799728394,1000.5657,
2021.05.22 15:33:12,73.0,24.0,35.16,11.7,-32.219997,-0.2753416,0.39266106,9.938635,0.0048386636,0.010583241,0.014883121,-0.03947288170456886,0.027697082608938217,-1.208065152168274,1000.5657,
2021.05.22 15:33:12,73.0,24.0,34.92,11.94,-32.1,-0.24421602,0.39266106,10.096657,-0.015930755,-0.014462234,2.2235495E-4,-0.03885926306247711,0.02418309450149536,-1.2015265226364136,1000.5654,
2021.05.22 15:33:12,73.0,24.0,34.5,11.16,-32.94,-0.1987248,0.44294083,9.926663,-0.001269989,-0.009575313,0.0112179285,-0.044582825154066086,0.0200166217982769,-1.213067889213562,1000.56494,
2021.05.22 15:33:12,73.0,24.0,34.26,11.5199995,-32.7,-0.4166038,0.33759275,9.960183,-0.005546046,-0.0052992557,-0.007108028,-0.033851683139801025,0.041802555322647095,-1.2028855085372925,1000.56494,
2021.05.22 15:33:12,73.0,24.0,34.739998,11.4,-32.94,-0.23463893,0.3615355,10.000886,0.014612508,-0.002855795,-0.0040537016,-0.03612467646598816,0.023457512259483337,-1.215200662612915,1000.5576,
2021.05.22 15:33:12,73.0,24.0,34.8,11.16,-32.88,-0.1987248,0.41420954,9.890749,-0.007989507,-0.0046883905,0.008163603,-0.04184558987617493,0.0200892835855484,-1.2183336019515991,1000.5576,
2021.05.22 15:33:12,73.0,24.0,34.92,11.34,-32.34,-0.15323359,0.45012367,9.907509,0.01033645,0.006918049,0.024046099,-0.04539593681693077,0.015465176664292812,-1.214208960533142,1000.5637,
2021.05.22 15:33:12,73.0,24.0,35.28,11.099999,-32.1,-0.29210153,0.3615355,10.012857,-0.0037134497,-0.0065209866,-0.008329758,-0.03607610613107681,0.029164373874664307,-1.2270790338516235,1000.56396,
2021.05.22 15:33:12,73.0,24.0,35.219997,11.219999,-32.1,-0.3519584,0.3423813,9.931452,5.6260685E-4,0.0038637226,-0.01566014,-0.034439194947481155,0.035423941910266876,-1.2226723432540894,1000.56396,
2021.05.22 15:33:12,73.0,24.0,35.46,10.98,-31.679998,-0.1699935,0.409421,9.933846,-0.0018808541,1.9853121E-4,-0.007108028,-0.041185412555933,0.017110886052250862,-1.2320713996887207,1000.56396,
2021.05.22 15:33:12,73.0,24.0,35.52,11.04,-31.74,-0.25379312,0.4166038,9.890749,-0.0061569107,-0.0010231993,-0.028488312,-0.042081836611032486,0.025654016062617302,-1.2274494171142578,1000.56274,
2021.05.22 15:33:12,73.0,24.0,35.219997,10.679999,-32.1,-0.28013015,0.50758624,9.924269,-0.011654698,0.0014202617,-0.039483886,-0.05108112096786499,0.02821928821504116,-1.225058674812317,1000.56274,
2021.05.22 15:33:12,73.0,24.0,34.98,10.38,-32.34,-0.2657645,0.37829542,10.07032,-0.015930755,-0.040729437,-0.057809845,-0.037534672766923904,0.02638474479317665,-1.242492914199829,1000.5654,
2021.05.22 15:33:12,73.0,24.0,34.86,10.92,-32.52,-0.2681588,0.31125572,10.101445,-0.044641424,8.0939644E-4,-0.043759942,-0.03079240210354328,0.026540344581007957,-1.2328243255615234,1000.5654,
2021.05.22 15:33:12,73.0,24.0,34.68,11.34,-32.219997,-0.17957062,0.4189981,9.926663,-0.010432967,0.038683042,-0.0138275465,-0.04217743128538132,0.018087754026055336,-1.213817834854126,1000.57007,
2021.05.22 15:33:12,73.0,24.0,34.68,11.7,-32.219997,-0.31604427,0.40463245,10.072714,-0.009822102,0.035017848,-0.019325333,-0.040129829198122025,0.03136598691344261,-1.20147705078125,1000.57007,
2021.05.22 15:33:12,73.0,24.0,34.86,11.94,-31.619999,-0.5506832,0.33759275,10.048771,-0.0024917193,0.07044803,-0.010162354,-0.0335325226187706,0.05474628880620003,-1.1948662996292114,1000.5747,
2021.05.22 15:33:13,73.0,24.0,34.98,11.639999,-31.679998,-0.32562137,0.38308397,9.996098,-0.038532767,0.14619532,-0.01566014,-0.03828432038426399,0.032563336193561554,-1.2078152894973755,1000.5796,
2021.05.22 15:33:13,73.0,24.0,34.98,11.88,-31.8,-0.29210153,0.4764607,9.897932,0.05004269,0.03257439,0.030154753,-0.04807937145233154,0.029502807185053825,-1.194532036781311,1000.5796,
2021.05.22 15:33:13,73.0,24.0,35.34,12.24,-31.56,-0.27055305,0.4764607,9.917087,0.049431827,0.036850445,0.020991774,-0.04798967391252518,0.027274740859866142,-1.1903129816055298,1000.57764,
2021.05.22 15:33:13,73.0,24.0,35.34,12.3,-31.859999,-0.35435268,0.44533512,9.945818,0.0042277984,0.0056963186,0.007552738,-0.04471789300441742,0.03561324626207352,-1.1879212856292725,1000.5803,
2021.05.22 15:33:13,73.0,24.0,35.16,12.66,-32.04,-0.45730647,0.43575802,9.914692,0.0048386636,0.0038637226,-0.004664567,-0.043875884264707565,0.04609145224094391,-1.1733901500701904,1000.5803,
2021.05.22 15:33:13,73.0,24.0,34.92,12.42,-31.8,-0.18196489,0.42139238,10.273833,0.02866241,-0.021792619,0.014272256,-0.04098668321967125,0.01770963706076145,-1.1903611421585083,1000.5803,
2021.05.22 15:33:13,73.0,24.0,34.98,11.94,-31.859999,-0.31604427,0.5219519,10.23313,-0.08801286,-0.12808317,0.055811092,-0.050937678664922714,0.030874602496623993,-1.1900625228881836,1000.5803,
