Time,X-cord,Y-cord,Mag_x,Mag_y,Mag_z,Acc_x,Acc_y,Acc_z,Gyro_x,Gyro_y,Gyro_z,Orn_x,Orn_y,Orn_z,Pressure,
2021.05.22 15:00:14,19.0,24.0,30.72,8.22,-29.88,-0.7110996,0.54828894,10.077502,0.09585758,0.12664764,-0.05719898,-0.054219089448451996,0.07044631242752075,-1.2356473207473755,1000.9148,
2021.05.22 15:00:14,19.0,24.0,31.679998,8.04,-30.779999,-0.5913859,0.5889916,10.015251,-0.009822102,0.030741792,0.007552738,-0.05863990634679794,0.05898004770278931,-1.249059796333313,1000.89966,
2021.05.22 15:00:14,19.0,24.0,33.0,7.8599997,-31.439999,-0.74701375,0.5147691,9.565128,0.11112922,-0.046227228,-0.043759942,-0.05360249802470207,0.07793942093849182,-1.2634451389312744,1000.8992,
2021.05.22 15:00:14,19.0,24.0,33.78,7.56,-32.52,-0.47885495,0.5219519,9.955395,0.085472874,-0.09448558,-0.030320907,-0.05232071503996849,0.0480630062520504,-1.288496732711792,1000.8992,
2021.05.22 15:00:14,19.0,24.0,34.38,7.02,-33.96,-0.65842557,0.3998439,10.05356,-0.0037134497,-0.14763086,-0.076746665,-0.03966553881764412,0.06539838761091232,-1.3133736848831177,1000.9055,
2021.05.22 15:00:14,19.0,24.0,34.32,6.6,-33.899998,-0.5219519,0.53392327,9.991309,0.021332026,-0.09082039,-0.09140743,-0.0533154271543026,0.05219314992427826,-1.3153080940246582,1000.9055,
2021.05.22 15:00:14,19.0,24.0,33.66,6.3599997,-34.02,-0.5913859,0.5123748,9.941029,0.04759923,-0.04439463,-0.10057041,-0.05140513926744461,0.05941937863826752,-1.3167734146118164,1000.9053,
2021.05.22 15:00:14,19.0,24.0,33.899998,6.3599997,-34.68,-0.5554718,0.45730647,9.941029,0.038436253,-0.025457809,-0.10973339,-0.04589802026748657,0.05581864342093468,-1.3243235349655151,1000.9121,
2021.05.22 15:00:15,19.0,24.0,33.78,6.2999997,-34.5,-0.5147691,0.7015225,9.435837,0.061649133,0.016691893,-0.06880542,-0.0741003006696701,0.05450065806508064,-1.296299695968628,1000.9121,
2021.05.22 15:00:15,19.0,24.0,33.66,6.6,-34.8,-0.75180227,0.6703969,9.962578,0.015223373,0.026465736,-0.07308147,-0.06700029224157333,0.07531987130641937,-1.2854502201080322,1000.90674,
2021.05.22 15:00:15,19.0,24.0,33.6,6.8999996,-34.8,-0.6895511,0.55307746,10.331296,-0.031202385,-0.024846943,-0.043759942,-0.05336461961269379,0.0666450709104538,-1.2941244840621948,1000.90674,
2021.05.22 15:00:15,19.0,24.0,33.3,6.8999996,-34.26,-0.52674043,0.5913859,10.060742,-0.022039408,-0.04805982,-0.008329758,-0.05863385275006294,0.05230826139450073,-1.2923325300216675,1000.9043,
2021.05.22 15:00:15,19.0,24.0,33.12,7.08,-34.8,-0.39266106,0.7039168,9.692024,0.036603656,-0.01629483,0.045426384,-0.0724419355392456,0.04049168899655342,-1.2744261026382446,1000.9004,
2021.05.22 15:00:15,19.0,24.0,33.18,7.08,-34.86,-0.43336374,0.53871185,9.964972,-0.004324315,-0.031566463,0.01366139,-0.053957074880599976,0.04346132650971413,-1.29286527633667,1000.9004,
2021.05.22 15:00:15,19.0,24.0,33.66,6.42,-35.28,-0.40463245,0.6273,9.883567,-0.011043833,-0.029123,0.014272256,-0.06333106011152267,0.04091707244515419,-1.3060920238494873,1000.90063,
2021.05.22 15:00:15,19.0,24.0,34.14,6.42,-35.82,-0.4764607,0.600963,10.101445,-0.023872003,-0.026679538,0.0112179285,-0.05935690179467201,0.047132641077041626,-1.3106886148452759,1000.90063,
2021.05.22 15:00:15,19.0,24.0,34.26,6.48,-35.219997,-0.37111259,0.68236834,9.972155,-0.03608931,-0.010797042,-3.885103E-4,-0.06827376037836075,0.037197716534137726,-1.3053092956542969,1000.9033,
2021.05.22 15:00:15,19.0,24.0,34.02,6.42,-35.28,-0.45012367,0.62251145,9.907509,-4.8258353E-5,-0.0150731,0.0057201423,-0.06268530339002609,0.04540136083960533,-1.3079965114593506,1000.9077,
2021.05.22 15:00:15,19.0,24.0,34.14,7.02,-35.46,-0.50040346,0.5794145,9.938635,0.021332026,-0.007742717,0.0032766813,-0.058159779757261276,0.050306834280490875,-1.294385552406311,1000.9077,
2021.05.22 15:00:15,19.0,24.0,33.42,7.14,-34.68,-0.531529,0.54350036,10.029617,-0.007378641,-0.01629483,0.007552738,-0.05406087636947632,0.05294640734791756,-1.28998863697052,1000.90845,
2021.05.22 15:00:15,19.0,24.0,33.3,7.2,-34.5,-0.31365,0.59378016,9.962578,-0.008600371,-0.013240504,0.03443081,-0.05950121954083443,0.03147242218255997,-1.2896064519882202,1000.90845,
2021.05.22 15:00:15,19.0,24.0,33.12,7.2599998,-34.32,-0.34477556,0.6392714,9.93624,0.0042277984,-0.004077526,0.051535033,-0.06421026587486267,0.03468487784266472,-1.2808750867843628,1000.90234,
2021.05.22 15:00:15,19.0,24.0,32.28,7.2599998,-34.02,-0.3615355,0.66321415,9.914692,0.0048386636,-0.014462234,0.043593787,-0.06674832105636597,0.03644847124814987,-1.2709546089172363,1000.8987,
2021.05.22 15:00:15,19.0,24.0,32.52,7.08,-34.32,-0.46209505,0.600963,10.156514,-4.8258353E-5,-0.018127427,0.0112179285,-0.059040360152721405,0.04546605423092842,-1.2823113203048706,1000.8987,
2021.05.22 15:00:16,19.0,24.0,32.46,7.14,-34.32,-0.32562137,0.7350424,9.943423,0.020110294,-0.022403482,0.022213504,-0.0737488642334938,0.032735712826251984,-1.2696869373321533,1000.89404,
2021.05.22 15:00:16,19.0,24.0,32.28,7.2,-34.68,-0.38787252,0.69194543,9.895537,0.051875286,-0.01751656,0.014883121,-0.06975797563791275,0.03917665779590607,-1.2670061588287354,1000.89404,
2021.05.22 15:00:16,19.0,24.0,32.16,6.96,-34.2,-0.54350036,0.58420306,9.833286,0.04026885,-4.1233405E-4,-0.009551489,-0.05925079435110092,0.05521530658006668,-1.2790993452072144,1000.8967,
2021.05.22 15:00:16,19.0,24.0,32.1,6.96,-34.38,-0.37111259,0.66321415,9.785401,0.02866241,0.0032528574,0.0044984114,-0.06762391328811646,0.037906959652900696,-1.2758979797363281,1000.8967,
2021.05.22 15:00:16,19.0,24.0,32.28,6.66,-34.68,-0.3902668,0.6943397,9.840469,0.008503855,0.009972375,0.018548314,-0.07038770616054535,0.039638593792915344,-1.2821199893951416,1000.8967,
2021.05.22 15:00:16,19.0,24.0,32.04,6.66,-34.14,-0.4166038,0.7134939,10.027223,-0.0379219,0.013026701,-3.885103E-4,-0.0709749311208725,0.041523393243551254,-1.2800005674362183,1000.9033,
2021.05.22 15:00:16,19.0,24.0,32.28,6.7799997,-34.8,-0.38068968,0.68715686,10.099051,-0.04219796,-0.010797042,-0.0016102408,-0.06788893789052963,0.03767774626612663,-1.2816520929336548,1000.90283,
2021.05.22 15:00:16,19.0,24.0,32.28,7.02,-34.44,-0.339987,0.71828246,9.93624,-0.009822102,-0.002855795,0.0038875462,-0.07212157547473907,0.03420352190732956,-1.2723726034164429,1000.90283,
2021.05.22 15:00:16,19.0,24.0,31.56,7.2599998,-34.26,-0.4285752,0.6273,10.048771,-0.008600371,-0.008353583,-0.0119949505,-0.06228817254304886,0.04262368008494377,-1.2660049200057983,1000.9021,
2021.05.22 15:00:16,19.0,24.0,32.16,7.74,-34.62,-0.3974496,0.6703969,9.818921,-0.006767776,-0.0034666602,-0.020547064,-0.06811463087797165,0.04045584797859192,-1.251376748085022,1000.9021,
2021.05.22 15:00:16,19.0,24.0,32.219997,8.099999,-34.38,-0.43815228,0.6057515,10.015251,-0.020817677,-0.0065209866,-0.008940623,-0.06035172939300537,0.04372062906622887,-1.2486649751663208,1000.9099,
2021.05.22 15:00:16,19.0,24.0,32.04,7.68,-34.32,-0.2849187,0.6847626,9.931452,0.0023952026,-0.010186179,0.008163603,-0.06881171464920044,0.02868065796792507,-1.2567123174667358,1000.9099,
2021.05.22 15:00:16,19.0,24.0,32.34,7.5,-34.26,-0.40223816,0.57223165,9.998491,-0.010432967,-0.0052992557,0.0032766813,-0.0571233294904232,0.040208205580711365,-1.272374153137207,1000.9153,
2021.05.22 15:00:16,19.0,24.0,32.34,6.8999996,-34.079998,-0.3519584,0.6344828,9.90272,-0.008600371,0.005085453,-9.993755E-4,-0.06394384056329727,0.03552663326263428,-1.2851617336273193,1000.9126,
2021.05.22 15:00:16,19.0,24.0,32.16,6.7799997,-33.96,-0.3328042,0.63208854,9.873989,0.006671259,0.013026701,0.009385334,-0.06389210373163223,0.033692389726638794,-1.2881505489349365,1000.9126,
2021.05.22 15:00:16,19.0,24.0,32.16,6.96,-34.32,-0.38787252,0.600963,9.964972,-0.007378641,0.024633141,-0.0040537016,-0.06018912419676781,0.03890395909547806,-1.2839546203613281,1000.91284,
2021.05.22 15:00:16,19.0,24.0,32.399998,7.08,-34.559998,-0.3974496,0.6249057,10.099051,-0.013487294,-0.0046883905,0.009996199,-0.061751194298267365,0.039334844797849655,-1.28018319606781,1000.91284,
2021.05.22 15:00:17,19.0,24.0,32.52,7.14,-34.98,-0.31843856,0.65842557,9.945818,-6.591236E-4,-0.0065209866,0.009996199,-0.0660710334777832,0.0320064015686512,-1.2768203020095825,1000.91504,
2021.05.22 15:00:17,19.0,24.0,32.28,6.96,-34.98,-0.3040729,0.6703969,9.9889145,0.014001642,-0.0034666602,0.01243966,-0.06698265671730042,0.030431635677814484,-1.2796295881271362,1000.9143,
2021.05.22 15:00:17,19.0,24.0,32.399998,6.8999996,-35.1,-0.34716985,0.6847626,9.871595,0.0042277984,-0.008964447,-9.993755E-4,-0.0692133679986,0.035154078155756,-1.2780355215072632,1000.9143,
2021.05.22 15:00:17,19.0,24.0,32.52,6.96,-35.1,-0.49800915,0.6081458,10.060742,0.00789299,-0.020570887,-0.010773219,-0.06030029058456421,0.04945986717939377,-1.2813267707824707,1000.9136,
2021.05.22 15:00:17,19.0,24.0,32.219997,6.96,-34.86,-0.35674694,0.67757976,9.948212,5.6260685E-4,-0.03034473,0.0038875462,-0.06796212494373322,0.03584504872560501,-1.2762844562530518,1000.9136,
2021.05.22 15:00:17,19.0,24.0,32.399998,6.72,-35.219997,-0.28731298,0.7134939,9.862018,0.031716734,-0.024846943,0.046037246,-0.07219130545854568,0.029125047847628593,-1.2822189331054688,1000.9143,
2021.05.22 15:00:17,19.0,24.0,32.28,7.2,-34.68,-0.2777359,0.6368771,9.96976,0.012779912,-0.024236077,0.015493986,-0.06376953423023224,0.027850627899169922,-1.2775439023971558,1000.9143,
2021.05.22 15:00:17,19.0,24.0,31.38,7.3199997,-33.84,-0.29689008,0.6703969,9.818921,0.006671259,0.005085453,-0.0028319713,-0.06813918799161911,0.030227316543459892,-1.2622644901275635,1000.9143,
2021.05.22 15:00:17,19.0,24.0,31.019999,7.68,-33.36,-0.29210153,0.69194543,9.93624,0.006671259,0.0056963186,-0.004664567,-0.06949638575315475,0.02938912808895111,-1.2481013536453247,1000.91113,
2021.05.22 15:00:17,19.0,24.0,30.359999,7.98,-32.28,-0.33759275,0.7134939,9.991309,-0.006767776,-0.0052992557,0.0038875462,-0.07124990969896317,0.03377579152584076,-1.2313523292541504,1000.91113,
2021.05.22 15:00:17,19.0,24.0,30.779999,7.74,-32.219997,-0.40223816,0.66321415,10.075109,-0.026315464,-0.0071318517,0.0038875462,-0.06567999720573425,0.039902761578559875,-1.2461925745010376,1000.9126,
2021.05.22 15:00:17,19.0,24.0,31.08,7.5,-32.52,-0.35674694,0.69912827,9.931452,-0.014098159,-0.0065209866,0.0112179285,-0.07023429125547409,0.03590548783540726,-1.2527751922607422,1000.91016,
2021.05.22 15:00:17,19.0,24.0,31.08,7.62,-32.16,-0.32562137,0.6440599,9.933846,0.00911472,0.006918049,0.01243966,-0.0647096186876297,0.032767247408628464,-1.2567081451416016,1000.91016,
2021.05.22 15:00:17,19.0,24.0,31.5,7.74,-32.34,-0.37590113,0.6057515,9.976943,-0.004324315,-4.1233405E-4,0.0014440855,-0.06059781089425087,0.0376591756939888,-1.258950114250183,1000.9038,
2021.05.22 15:00:17,19.0,24.0,30.66,8.28,-32.34,-0.2753416,0.6249057,9.96976,0.005449529,-4.1233405E-4,0.023435233,-0.06257442384958267,0.0276106595993042,-1.2364027500152588,1000.9038,
2021.05.22 15:00:17,19.0,24.0,30.66,8.34,-32.04,-0.3423813,0.6344828,10.0368,-0.019595945,-0.012629638,0.01243966,-0.06309504061937332,0.03409937024116516,-1.2321356534957886,1000.9038,
2021.05.22 15:00:18,19.0,24.0,30.359999,7.7999997,-32.219997,-0.22266756,0.7110996,9.876384,0.01705597,0.008139779,0.020380909,-0.07185777276754379,0.02254163660109043,-1.2409770488739014,1000.90454,
2021.05.22 15:00:18,19.0,24.0,30.179998,7.7999997,-32.219997,-0.34956414,0.64166564,10.101445,0.013390777,-0.012629638,0.0044984114,-0.06339907646179199,0.03459155559539795,-1.242613673210144,1000.90454,
2021.05.22 15:00:18,19.0,24.0,30.179998,7.2,-32.04,-0.28252444,0.70870537,9.897932,0.026829813,-4.1233405E-4,-3.885103E-4,-0.0714503675699234,0.028536036610603333,-1.2558815479278564,1000.9026,
2021.05.22 15:00:18,19.0,24.0,30.0,7.5,-31.8,-0.40463245,0.67757976,9.93624,0.034160193,-0.0016340646,0.0038875462,-0.06803114712238312,0.04070040583610535,-1.2438725233078003,1000.9026,
2021.05.22 15:00:18,19.0,24.0,30.0,7.5,-31.8,-0.35914123,0.6296943,9.921875,0.01949943,-0.008964447,0.0069418726,-0.06333887577056885,0.03618111461400986,-1.2504467964172363,1000.9048,
2021.05.22 15:00:18,19.0,24.0,29.46,7.68,-31.92,-0.25379312,0.74222517,9.799767,0.02316462,8.0939644E-4,0.007552738,-0.07556949555873871,0.025892088189721107,-1.230812907218933,1000.9155,
2021.05.22 15:00:18,19.0,24.0,29.519999,7.56,-31.92,-0.3615355,0.69194543,10.027223,-0.009211237,-0.0059101214,0.0032766813,-0.06885287165641785,0.03603978455066681,-1.2376720905303955,1000.9155,
2021.05.22 15:00:18,19.0,24.0,29.039999,7.56,-32.1,-0.29210153,0.73743665,9.9889145,-0.018374216,-0.008353583,2.2235495E-4,-0.07366044819355011,0.02923423983156681,-1.2299391031265259,1000.9087,
2021.05.22 15:00:18,19.0,24.0,29.16,7.8599997,-32.219997,-0.27055305,0.7541966,9.955395,0.014001642,-0.004077526,0.018548314,-0.07558534294366837,0.027169840410351753,-1.2205239534378052,1000.9087,
2021.05.22 15:00:18,19.0,24.0,29.699999,7.5,-32.34,-0.3998439,0.6847626,9.926663,0.0017843375,0.0026419922,0.0026658159,-0.06881741434335709,0.040258027613162994,-1.2386680841445923,1000.90137,
2021.05.22 15:00:18,19.0,24.0,29.4,7.9199996,-32.1,-0.33519846,0.6943397,10.008069,0.015834238,0.006918049,0.0063310075,-0.06922829896211624,0.03348030894994736,-1.2253323793411255,1000.905,
2021.05.22 15:00:18,19.0,24.0,30.0,7.56,-32.7,-0.28252444,0.749408,9.914692,-0.017152485,-0.0046883905,0.0032766813,-0.07541166245937347,0.028487825766205788,-1.2373205423355103,1000.905,
2021.05.22 15:00:18,19.0,24.0,30.24,7.62,-32.52,-0.18435916,0.75180227,9.955395,0.010947316,0.007528914,0.023435233,-0.07536113262176514,0.018516402691602707,-1.2426520586013794,1000.9031,
2021.05.22 15:00:18,19.0,24.0,29.88,7.74,-32.399998,-0.29928434,0.6560313,9.955395,-0.0018808541,-0.008353583,0.0026658159,-0.06577229499816895,0.030053477734327316,-1.2403547763824463,1000.9031,
2021.05.22 15:00:18,19.0,24.0,30.06,7.5,-32.579998,-0.31365,0.6608198,9.938635,-0.009211237,-0.01385137,-0.016881872,-0.06635933369398117,0.031548190861940384,-1.248015284538269,1000.88916,
2021.05.22 15:00:18,19.0,24.0,29.82,7.68,-31.98,-0.27055305,0.7015225,9.931452,-0.009822102,1.9853121E-4,-0.0077188932,-0.07049325108528137,0.027235306799411774,-1.239010214805603,1000.9009,
2021.05.22 15:00:18,19.0,24.0,29.699999,7.44,-31.8,-0.30646718,0.68236834,10.005674,-0.022650272,-0.0046883905,-0.01566014,-0.06806088238954544,0.03061976283788681,-1.2466834783554077,1000.9009,
2021.05.22 15:00:19,19.0,24.0,29.939999,7.68,-31.679998,-0.30167863,0.71828246,9.909904,-0.01654162,0.013637567,-0.02237966,-0.07232137024402618,0.03043273650109768,-1.2379076480865479,1000.89526,
2021.05.22 15:00:19,19.0,24.0,29.82,7.74,-31.8,-0.35435268,0.68236834,10.008069,-0.005546046,0.0014202617,-0.018103601,-0.06803395599126816,0.0353919118642807,-1.2366821765899658,1000.89526,
2021.05.22 15:00:19,19.0,24.0,30.06,7.8599997,-31.8,-0.36392978,0.6560313,10.0439825,-0.012876429,-4.1233405E-4,-0.02237966,-0.06518055498600006,0.03621777147054672,-1.2380421161651611,1000.90405,
2021.05.22 15:00:19,19.0,24.0,30.359999,7.98,-31.679998,-0.29689008,0.7398309,9.859624,0.0023952026,0.015470162,-0.0034428365,-0.0748622715473175,0.03010260872542858,-1.230885624885559,1000.90356,
2021.05.22 15:00:19,19.0,24.0,30.42,7.8599997,-32.1,-0.36871833,0.61293435,10.046377,-0.0061569107,8.0939644E-4,-0.012605815,-0.06089405715465546,0.03668515756726265,-1.2452079057693481,1000.90356,
2021.05.22 15:00:19,19.0,24.0,30.66,7.62,-32.04,-0.30886146,0.7015225,9.924269,0.0011734721,0.024022276,-0.0034428365,-0.07053615152835846,0.031111793592572212,-1.2477577924728394,1000.906,
2021.05.22 15:00:19,19.0,24.0,30.3,7.56,-32.04,-0.29689008,0.6943397,9.972155,-0.009211237,0.0014202617,0.0014440855,-0.06948497146368027,0.0297631174325943,-1.2475069761276245,1000.906,
2021.05.22 15:00:19,19.0,24.0,29.82,7.5,-32.16,-0.22266756,0.69673395,9.926663,0.008503855,0.016081028,0.01610485,-0.07005564868450165,0.022427499294281006,-1.2465142011642456,1000.905,
2021.05.22 15:00:19,19.0,24.0,29.46,7.5,-31.56,-0.409421,0.65124273,9.924269,-0.005546046,0.0087506445,-0.0138275465,-0.06547176092863083,0.04123114421963692,-1.2411203384399414,1000.8999,
2021.05.22 15:00:19,19.0,24.0,29.46,7.9199996,-31.56,-0.36392978,0.6440599,9.993703,0.0048386636,0.006918049,-0.014438411,-0.0643150582909584,0.036399826407432556,-1.2310583591461182,1000.8999,
2021.05.22 15:00:19,19.0,24.0,29.46,7.9199996,-31.38,-0.3615355,0.6608198,9.881172,0.00789299,0.0014202617,-0.005275432,-0.06673270463943481,0.03657200559973717,-1.2290047407150269,1000.90234,
2021.05.22 15:00:19,19.0,24.0,29.34,8.099999,-31.5,-0.31604427,0.67279124,9.948212,0.0042277984,0.0087506445,0.008774469,-0.06749259680509567,0.03175827115774155,-1.2230321168899536,1000.90234,
2021.05.22 15:00:19,19.0,24.0,29.46,7.8599997,-31.679998,-0.33759275,0.70631105,9.8787775,-0.0031025845,-0.0034666602,-0.0040537016,-0.07133486121892929,0.03416024148464203,-1.2265373468399048,1000.90137,
2021.05.22 15:00:19,19.0,24.0,29.58,8.04,-31.92,-0.44533512,0.6368771,9.974549,-0.007989507,0.0044745877,-0.0016102408,-0.063700370490551,0.044617511332035065,-1.224865198135376,1000.9004,
2021.05.22 15:00:19,19.0,24.0,29.699999,7.9199996,-32.219997,-0.3519584,0.6440599,9.967366,-0.02142854,-0.004077526,-0.005275432,-0.06448706984519958,0.03529640659689903,-1.2323888540267944,1000.9004,
2021.05.22 15:00:19,19.0,24.0,29.76,8.099999,-32.219997,-0.30167863,0.6344828,9.9889145,0.0030060678,1.9853121E-4,0.024656964,-0.06340464949607849,0.030192166566848755,-1.2307069301605225,1000.89746,
2021.05.22 15:00:19,19.0,24.0,29.939999,8.34,-32.399998,-0.34716985,0.6751855,9.873989,-4.8258353E-5,-0.0022449298,0.015493986,-0.06823191046714783,0.035145558416843414,-1.2179380655288696,1000.89746,
2021.05.22 15:00:20,19.0,24.0,29.58,8.099999,-32.04,-0.45012367,0.6464542,9.957788,0.0017843375,0.012415837,0.007552738,-0.06476254016160965,0.045172423124313354,-1.2213460206985474,1000.8943,
2021.05.22 15:00:20,19.0,24.0,29.76,8.099999,-31.98,-0.37829542,0.6656084,10.07032,-0.022039408,-0.01751656,0.009385334,-0.06595366448163986,0.03754772990942001,-1.2256028652191162,1000.89844,
2021.05.22 15:00:20,19.0,24.0,30.179998,7.56,-32.28,-0.3040729,0.6847626,9.998491,0.00911472,0.0026419922,0.030765617,-0.06834831088781357,0.03040250577032566,-1.2465722560882568,1000.89844,
2021.05.22 15:00:20,19.0,24.0,30.24,7.68,-32.399998,-0.30886146,0.6440599,9.90272,0.0017843375,-0.0022449298,0.02282437,-0.064915731549263,0.03117944858968258,-1.246357798576355,1000.8977,
2021.05.22 15:00:20,19.0,24.0,30.42,7.5,-32.579998,-0.37350687,0.6177229,9.864412,0.015223373,0.008139779,-0.0028319713,-0.06249502673745155,0.037845999002456665,-1.2531023025512695,1000.8977,
2021.05.22 15:00:20,19.0,24.0,30.539999,7.3199997,-32.52,-0.3519584,0.6296943,9.876384,-0.0061569107,-0.0071318517,-0.0040537016,-0.06363110989332199,0.0356212854385376,-1.259705901145935,1000.8911,
2021.05.22 15:00:20,19.0,24.0,30.539999,7.74,-32.1,-0.36392978,0.68236834,9.964972,-0.008600371,0.0026419922,0.0069418726,-0.06832455843687057,0.036504682153463364,-1.2427606582641602,1000.88916,
2021.05.22 15:00:20,19.0,24.0,30.119999,7.62,-31.98,-0.339987,0.6751855,9.996098,-0.006767776,-0.0034666602,8.332202E-4,-0.06740361452102661,0.03399886563420296,-1.2443228960037231,1000.88916,
2021.05.22 15:00:20,19.0,24.0,29.82,7.8599997,-32.16,-0.4166038,0.65124273,9.957788,0.0017843375,0.013026701,-0.0034428365,-0.06525041162967682,0.04181259870529175,-1.2321717739105225,1000.8994,
2021.05.22 15:00:20,19.0,24.0,30.0,7.98,-32.219997,-0.4166038,0.6081458,10.194822,-0.011654698,0.002031127,-0.009551489,-0.05953224375844002,0.04084153100848198,-1.2365065813064575,1000.8994,
2021.05.22 15:00:20,19.0,24.0,30.0,7.98,-32.399998,-0.21548474,0.71828246,9.821315,0.012169046,0.0063071838,0.015493986,-0.07298757880926132,0.021936997771263123,-1.2304710149765015,1000.89453,
2021.05.22 15:00:20,19.0,24.0,30.359999,7.7999997,-32.46,-0.40463245,0.5985687,9.960183,0.014612508,0.0032528574,0.017937446,-0.059974607080221176,0.0406026765704155,-1.244976282119751,1000.8987,
2021.05.22 15:00:20,19.0,24.0,30.42,7.62,-32.04,-0.46209505,0.62251145,9.917087,-0.018985081,-0.013240504,-0.012605815,-0.0626215860247612,0.04656216874718666,-1.247032642364502,1000.8987,
2021.05.22 15:00:20,19.0,24.0,29.699999,7.56,-32.1,-0.41181526,0.66321415,10.0200405,-0.0061569107,8.0939644E-4,-3.885103E-4,-0.06603678315877914,0.041076041758060455,-1.239926815032959,1000.9016,
2021.05.22 15:00:20,19.0,24.0,29.58,7.2,-31.679998,-0.33759275,0.6895511,9.991309,-4.8258353E-5,-0.008353583,0.022213504,-0.06886664777994156,0.03377579152584076,-1.2511754035949707,1000.9016,
2021.05.22 15:00:20,19.0,24.0,29.58,7.14,-31.74,-0.26337022,0.63208854,9.91948,0.008503855,0.00936151,0.025878694,-0.06361354142427444,0.02654457278549671,-1.2610996961593628,1000.896,
2021.05.22 15:00:21,19.0,24.0,30.0,7.44,-31.74,-0.31365,0.6296943,9.8548355,5.6260685E-4,8.0939644E-4,0.0130505245,-0.06377803534269333,0.0318162776529789,-1.253735899925232,1000.8906,
2021.05.22 15:00:21,19.0,24.0,30.24,7.2599998,-31.439999,-0.36392978,0.6368771,9.924269,5.6260685E-4,-0.0071318517,0.0063310075,-0.06404290348291397,0.0366542674601078,-1.26030695438385,1000.8906,
2021.05.22 15:00:21,19.0,24.0,30.42,7.3199997,-31.56,-0.42618093,0.67279124,9.948212,-0.009211237,-0.0046883905,0.009385334,-0.06746485084295273,0.042813774198293686,-1.2541273832321167,1000.8794,
2021.05.22 15:00:21,19.0,24.0,30.66,7.56,-31.8,-0.36871833,0.6751855,10.096657,-0.006767776,-0.009575313,0.0130505245,-0.06672842800617218,0.03650262951850891,-1.2517834901809692,1000.8794,
2021.05.22 15:00:21,19.0,24.0,30.539999,7.02,-32.16,-0.28252444,0.67279124,9.950606,0.00911472,-0.0071318517,0.022213504,-0.06748322397470474,0.028385061770677567,-1.2686642408370972,1000.8811,
2021.05.22 15:00:21,19.0,24.0,30.539999,7.14,-32.1,-0.29210153,0.6440599,9.804555,0.015834238,-4.1233405E-4,0.027100425,-0.06556662172079086,0.029783621430397034,-1.2665040493011475,1000.88135,
2021.05.22 15:00:21,19.0,24.0,30.359999,7.02,-32.399998,-0.30646718,0.6105401,10.055954,-0.0061569107,-0.019349158,0.017937446,-0.0606117807328701,0.03046676144003868,-1.2725675106048584,1000.88135,
2021.05.22 15:00:21,19.0,24.0,29.88,6.8399997,-31.98,-0.18196489,0.71828246,9.845258,0.022553755,-0.0052992557,0.039928596,-0.07281577587127686,0.018480386584997177,-1.2667604684829712,1000.88086,
2021.05.22 15:00:21,19.0,24.0,30.119999,7.2,-31.8,-0.28252444,0.6464542,10.05356,0.00789299,-0.010186179,0.02526783,-0.06418734788894653,0.02809453383088112,-1.2632791996002197,1000.8862,
2021.05.22 15:00:21,19.0,24.0,30.3,7.3199997,-31.8,-0.34956414,0.64166564,9.957788,0.0042277984,0.014859296,-0.015049276,-0.06431008875370026,0.035090185701847076,-1.2585279941558838,1000.8862,
2021.05.22 15:00:21,19.0,24.0,30.179998,7.44,-32.219997,-0.5027977,0.57223165,10.039194,-0.022650272,0.018524488,-0.022990525,-0.056867025792598724,0.05004166066646576,-1.2543367147445679,1000.8916,
2021.05.22 15:00:21,19.0,24.0,30.599998,7.08,-32.28,-0.19393626,0.74222517,9.938635,0.01705597,0.040515635,0.035652537,-0.0745282918214798,0.019510893151164055,-1.2635389566421509,1000.8916,
2021.05.22 15:00:21,19.0,24.0,30.66,6.6,-32.64,-0.09577099,0.53871185,9.972155,0.03599279,0.002031127,0.0026658159,-0.05396666377782822,0.009603546001017094,-1.3017592430114746,1000.8877,
2021.05.22 15:00:21,19.0,24.0,30.96,6.3599997,-33.42,-0.3304099,0.69194543,9.91948,0.015223373,0.023411412,-0.029710043,-0.06960492581129074,0.03329688683152199,-1.2858033180236816,1000.8887,
2021.05.22 15:00:21,19.0,24.0,30.96,6.2999997,-32.88,-0.32083282,0.66800267,9.962578,0.026218947,-0.0071318517,-0.019936197,-0.06691638380289078,0.032192669808864594,-1.2921500205993652,1000.8887,
2021.05.22 15:00:21,19.0,24.0,30.779999,6.8999996,-32.76,-0.40223816,0.723071,9.802161,0.006671259,0.015470162,-0.031542636,-0.07357142865657806,0.04101265221834183,-1.2620619535446167,1000.8867,
2021.05.22 15:00:21,19.0,24.0,30.48,7.2,-32.04,-0.4668836,0.64166564,9.8787775,0.003616933,0.025854873,-0.024212256,-0.06479071825742722,0.047226130962371826,-1.2582279443740845,1000.8867,
2021.05.22 15:00:22,19.0,24.0,29.939999,7.5,-31.5,-0.37111259,0.69673395,9.909904,-0.022650272,0.018524488,-0.01566014,-0.07014233618974686,0.03743116557598114,-1.2432283163070679,1000.89404,
2021.05.22 15:00:22,19.0,24.0,29.76,7.3799996,-31.38,-0.38308397,0.70631105,10.00328,-0.03303498,0.039293908,-9.993755E-4,-0.07043949514627457,0.03827713429927826,-1.2447519302368164,1000.89404,
2021.05.22 15:00:22,19.0,24.0,29.4,7.56,-31.56,-0.4166038,0.70870537,9.931452,-0.015930755,0.0038637226,-0.011384085,-0.07117655128240585,0.04192334786057472,-1.2324411869049072,1000.8943,
2021.05.22 15:00:22,19.0,24.0,29.099998,7.7999997,-31.56,-0.39266106,0.6847626,10.099051,-0.01776335,0.014248433,0.0038875462,-0.06765005737543106,0.038861408829689026,-1.226394772529602,1000.8904,
2021.05.22 15:00:22,19.0,24.0,29.22,7.9199996,-31.439999,-1.1827718,1.0223553,8.528407,-0.005546046,0.025244007,-0.019325333,-0.11818662285804749,0.13780710101127625,-1.1170072555541992,1000.8904,
2021.05.22 15:00:22,19.0,24.0,29.34,8.4,-31.32,-0.0023942748,0.4764607,11.406325,0.06897952,-0.032177325,-0.013216681,-0.04174735024571419,2.0990763732697815E-4,-1.2514324188232422,1000.8916,
