Time,X-cord,Y-cord,Mag_x,Mag_y,Mag_z,Acc_x,Acc_y,Acc_z,Gyro_x,Gyro_y,Gyro_z,Orn_x,Orn_y,Orn_z,Pressure,
2021.05.22 15:10:59,74.0,24.0,39.3,15.299999,-28.619999,-0.37350687,0.32562137,9.976943,-0.031813253,0.12053899,-0.07980099,-0.032602980732917786,0.037419531494379044,-1.1681208610534668,1000.7871,
2021.05.22 15:10:59,74.0,24.0,40.32,15.0,-28.98,-0.5554718,0.06943397,10.139753,-0.13077343,-0.050503284,-0.070638016,-0.006837339606136084,0.05472688376903534,-1.1960361003875732,1000.7871,
2021.05.22 15:11:00,74.0,24.0,41.46,14.46,-30.24,-0.6464542,0.11492519,9.948212,-0.08679112,-0.010186179,-0.024212256,-0.011527521535754204,0.06489071995019913,-1.2107261419296265,1000.7915,
2021.05.22 15:11:00,74.0,24.0,42.719997,13.86,-31.08,-0.8140534,0.021548472,10.616215,-0.09717584,0.11626293,0.088797815,-0.0020238258875906467,0.07653043419122696,-1.23738694190979,1000.7964,
2021.05.22 15:11:00,74.0,24.0,43.92,13.32,-32.28,-1.0415095,0.045491222,10.343267,-0.20529898,0.2133905,0.0661958,-0.004375990945845842,0.10035616904497147,-1.2492380142211914,1000.7964,
2021.05.22 15:11:00,74.0,24.0,44.64,13.08,-31.98,-0.69673395,0.23224466,9.237112,0.029273273,0.2011732,0.22563164,-0.025066092610359192,0.07528512924909592,-1.2506873607635498,1000.8015,
2021.05.22 15:11:00,74.0,24.0,44.64,12.84,-31.38,-0.7206767,-0.2466103,9.009656,0.053707883,0.024022276,0.19325577,0.027277862653136253,0.07981942594051361,-1.2950037717819214,1000.8015,
2021.05.22 15:11:00,74.0,24.0,44.52,12.36,-30.599998,-0.5913859,-0.5554718,10.1206,-0.08495852,-0.095096454,0.15782559,0.054737068712711334,0.05836750939488411,-1.3288347721099854,1000.8013,
2021.05.22 15:11:00,74.0,24.0,44.94,12.12,-30.96,-0.13168511,-0.4956149,10.522838,-0.14726679,-0.12808317,0.12544973,0.047060512006282806,0.012513566762208939,-1.3366949558258057,1000.8137,
2021.05.22 15:11:00,74.0,24.0,44.94,12.24,-31.439999,-0.05027977,-0.27055305,10.216371,-0.011654698,-0.10487029,0.13705617,0.026475798338651657,0.00492145074531436,-1.3215899467468262,1000.8137,
2021.05.22 15:11:00,74.0,24.0,45.12,11.759999,-31.439999,-0.06943397,0.11253092,9.378374,0.10746403,-0.040729437,0.055200227,-0.011998074129223824,0.007403490599244833,-1.3066455125808716,1000.8147,
2021.05.22 15:11:00,74.0,24.0,45.48,11.639999,-31.74,-1.1181264,-0.35914123,10.178062,0.05676221,0.043569967,-0.1799829,0.03506042808294296,0.10941774398088455,-1.3276828527450562,1000.8147,
2021.05.22 15:11:00,74.0,24.0,44.94,11.82,-31.38,-0.90024734,-0.3304099,10.115811,0.01033645,0.088773996,-0.3137624,0.032522667199373245,0.08876024931669235,-1.3219544887542725,1000.81177,
2021.05.22 15:11:00,74.0,24.0,44.52,11.7,-31.679998,-0.8643332,-0.090982445,10.027223,0.003616933,0.11198687,-0.15127224,0.009039774537086487,0.08598612248897552,-1.303992509841919,1000.80786,
2021.05.22 15:11:00,74.0,24.0,44.1,12.36,-31.679998,-0.43336374,0.43336374,10.106234,0.04271231,0.029520063,0.009385334,-0.04281528294086456,0.04285458102822304,-1.2585562467575073,1000.80786,
2021.05.22 15:11:00,74.0,24.0,44.34,13.08,-31.38,-0.74222517,0.2370332,10.278622,-0.011654698,-0.1134224,0.12850405,-0.022996850311756134,0.07208545506000519,-1.2515909671783447,1000.81396,
2021.05.22 15:11:00,74.0,24.0,44.64,12.84,-31.26,-0.4860378,0.1340794,10.1206,0.051875286,-0.11586587,0.09185214,-0.01323214452713728,0.04798773676156998,-1.2718273401260376,1000.81396,
2021.05.22 15:11:00,74.0,24.0,44.7,12.96,-30.9,-0.5147691,-0.19393626,10.259467,0.07081211,-0.10731375,0.036874272,0.01887715794146061,0.05013298988342285,-1.292069673538208,1000.8076,
2021.05.22 15:11:01,74.0,24.0,44.46,12.54,-30.96,-0.7901107,0.27055305,8.751075,0.10318796,0.018524488,-0.0901857,-0.0307815819978714,0.09004314243793488,-1.2539528608322144,1000.8037,
2021.05.22 15:11:01,74.0,24.0,44.219997,12.179999,-31.26,-0.8044763,0.24182175,9.498088,0.13678555,-0.07005097,-0.019936197,-0.025363769382238388,0.08449709415435791,-1.265369176864624,1000.8037,
2021.05.22 15:11:01,74.0,24.0,43.98,12.84,-30.96,-1.0343267,-0.052674048,10.180456,-0.11550179,-0.0431729,-0.05292292,0.005147491581737995,0.10125181078910828,-1.2687419652938843,1000.80835,
2021.05.22 15:11:01,74.0,24.0,43.559998,13.08,-30.779999,-0.84278476,-0.098165266,10.230737,-0.12344304,-0.07371616,0.014883121,0.009562447667121887,0.08219213038682938,-1.2684681415557861,1000.80835,
2021.05.22 15:11:01,74.0,24.0,43.559998,13.259999,-30.9,-0.5411061,0.46209505,9.526819,-0.03059152,-0.026679538,0.21097086,-0.04838879778981209,0.05673723295331001,-1.2288378477096558,1000.802,
2021.05.22 15:11:01,74.0,24.0,42.66,13.139999,-30.42,-0.66321415,0.30167863,10.38397,-0.044030555,-0.033399057,0.21341433,-0.028985146433115005,0.06378240138292313,-1.2369506359100342,1000.7998,
2021.05.22 15:11:01,74.0,24.0,42.239998,12.719999,-30.9,-0.7398309,0.026337024,10.510866,-0.08495852,-0.045616362,0.09185214,-0.0024995056446641684,0.07027135044336319,-1.2607473134994507,1000.7998,
2021.05.22 15:11:01,74.0,24.0,42.6,12.36,-31.38,-0.3040729,0.11253092,9.984126,0.011558182,-0.012018774,0.19936442,-0.011265282519161701,0.03044622205197811,-1.2740658521652222,1000.8003,
2021.05.22 15:11:01,74.0,24.0,42.48,12.12,-31.199999,-0.21309046,0.0670397,9.950606,0.036603656,-0.07982481,0.23723806,-0.006735600996762514,0.021411549299955368,-1.2838387489318848,1000.8003,
2021.05.22 15:11:01,74.0,24.0,42.78,12.12,-31.439999,0.045491222,0.102953814,9.871595,0.058594808,-0.08593347,0.24456845,-0.010428809560835361,-0.004608261864632368,-1.2886017560958862,1000.79395,
2021.05.22 15:11:01,74.0,24.0,43.02,11.639999,-31.26,-0.14605077,0.038308397,9.917087,0.055540476,-0.07249443,0.13216925,-0.0038624301087111235,0.014726119115948677,-1.301109790802002,1000.7981,
2021.05.22 15:11:01,74.0,24.0,43.02,10.92,-31.679998,-0.24182175,0.019154198,9.751882,0.034160193,-0.02790127,0.055811092,-0.001963547896593809,0.024792365729808807,-1.3162798881530762,1000.7981,
2021.05.22 15:11:01,74.0,24.0,43.079998,10.5,-32.579998,-0.117319465,0.016759925,9.747093,-0.005546046,0.009972375,-0.004664567,-0.001719352905638516,0.012035772204399109,-1.3283395767211914,1000.7947,
2021.05.22 15:11:01,74.0,24.0,43.079998,10.08,-33.18,0.05985687,0.03351985,10.008069,0.00789299,-0.012629638,0.0130505245,-0.00334920990280807,-0.005980789661407471,-1.3395475149154663,1000.7947,
2021.05.22 15:11:01,74.0,24.0,43.2,9.9,-33.6,-0.12450229,0.19154198,9.960183,-0.024482869,0.0032528574,-0.08346619,-0.01922689750790596,0.012499349191784859,-1.3288933038711548,1000.79126,
2021.05.22 15:11:01,74.0,24.0,42.78,10.32,-33.54,-0.31125572,0.24900457,9.974549,-0.02142854,0.027076604,-0.09324003,-0.0249466709792614,0.031194867566227913,-1.3087888956069946,1000.79785,
2021.05.22 15:11:01,74.0,24.0,43.079998,10.32,-33.18,-0.37590113,0.18675344,10.35045,0.0023952026,0.002031127,-0.12561588,-0.018029185011982918,0.03630141541361809,-1.3149969577789307,1000.79785,
2021.05.22 15:11:02,74.0,24.0,42.96,10.44,-33.239998,-0.4740664,0.10055954,10.276228,0.03354933,-0.004077526,-0.12928109,-0.009774940088391304,0.04609965160489082,-1.3158860206604004,1000.80176,
2021.05.22 15:11:02,74.0,24.0,42.66,10.62,-33.18,-0.31843856,0.19393626,9.895537,0.06409259,0.025854873,-0.09140743,-0.019585710018873215,0.0321689173579216,-1.3055109977722168,1000.79834,
2021.05.22 15:11:02,74.0,24.0,43.02,10.8,-33.12,-0.3902668,0.19154198,9.883567,0.069590375,0.024633141,-0.088353105,-0.01936233416199684,0.03946593031287193,-1.3022147417068481,1000.79834,
2021.05.22 15:11:02,74.0,24.0,43.14,11.219999,-33.0,-0.36632404,0.23463893,9.838076,0.07569904,0.03746131,-0.07919013,-0.023829055950045586,0.037218138575553894,-1.2908538579940796,1000.8032,
2021.05.22 15:11:02,74.0,24.0,43.32,11.46,-32.64,-0.4956149,0.21787901,9.960183,0.018888565,0.025244007,-0.09629436,-0.021844495087862015,0.04971861094236374,-1.2854516506195068,1000.8032,
2021.05.22 15:11:02,74.0,24.0,43.8,11.7,-32.76,-0.5123748,0.27294734,9.996098,0.01705597,0.03379612,-0.06819455,-0.027262834832072258,0.05121266469359398,-1.2787083387374878,1000.80347,
2021.05.22 15:11:02,74.0,24.0,43.26,12.059999,-32.7,-0.37350687,0.27294734,10.1206,-0.01654162,-0.0016340646,-0.03276437,-0.026944613084197044,0.036888863891363144,-1.2712466716766357,1000.80347,
2021.05.22 15:11:02,74.0,24.0,42.6,11.58,-32.82,-0.44294083,0.3304099,9.917087,-0.015930755,0.0063071838,-0.030931773,-0.03327177092432976,0.04463474452495575,-1.2704429626464844,1000.81616,
2021.05.22 15:11:02,74.0,24.0,42.48,11.82,-32.64,-0.44294083,0.24421602,10.032011,0.0042277984,0.015470162,-0.02482312,-0.024315189570188522,0.04412408545613289,-1.271410584449768,1000.8157,
2021.05.22 15:11:02,74.0,24.0,42.239998,11.82,-32.34,-0.39505535,0.31843856,9.881172,0.0011734721,0.010583241,-0.034596965,-0.032189950346946716,0.03995933756232262,-1.2651867866516113,1000.8157,
2021.05.22 15:11:02,74.0,24.0,42.719997,11.639999,-32.34,-0.49082634,0.16281068,10.170879,-0.0061569107,0.0014202617,-0.03887302,-0.015987563878297806,0.048220593482255936,-1.2825918197631836,1000.80347,
2021.05.22 15:11:02,74.0,24.0,42.899998,12.3,-31.98,-0.31843856,0.30167863,10.005674,-0.0018808541,-0.004077526,-0.024212256,-0.030126379802823067,0.0318150594830513,-1.2632009983062744,1000.80347,
2021.05.22 15:11:02,74.0,24.0,42.36,12.3,-32.52,-0.2466103,0.21548474,9.91948,-0.0018808541,-0.009575313,-0.030931773,-0.021713268011808395,0.024856090545654297,-1.266925573348999,1000.80054,
2021.05.22 15:11:02,74.0,24.0,41.579998,12.719999,-32.1,-0.2370332,0.12210801,9.763853,-0.01776335,-0.03584252,-0.038262155,-0.012501794844865799,0.024271836504340172,-1.2593059539794922,1000.7932,
2021.05.22 15:11:02,74.0,24.0,40.68,13.259999,-31.199999,-0.56744313,0.15802214,10.151725,-0.0678543,-0.09570731,-0.05719898,-0.015540527179837227,0.055838122963905334,-1.2301993370056152,1000.7932,
2021.05.22 15:11:02,74.0,24.0,40.2,13.32,-31.08,-0.56265455,0.37350687,10.295382,-0.07396295,-0.07127271,-0.0034428365,-0.03620918095111847,0.05459684878587723,-1.209801435470581,1000.7883,
2021.05.22 15:11:03,74.0,24.0,39.84,13.32,-30.119999,-0.13886794,0.35435268,10.101445,0.07386644,-0.2612518,0.11934108,-0.03506171330809593,0.013746468350291252,-1.2208740711212158,1000.7883,
2021.05.22 15:11:03,74.0,24.0,40.02,13.139999,-30.48,-0.17717634,0.2370332,9.929058,0.09280326,-0.18672623,0.17065376,-0.023864345625042915,0.017842330038547516,-1.2326313257217407,1000.7883,
2021.05.22 15:11:03,74.0,24.0,40.079998,12.96,-30.72,-0.13647367,0.28013015,9.598648,0.061649133,0.035017848,0.0014440855,-0.0291731059551239,0.014217051677405834,-1.2342708110809326,1000.792,
2021.05.22 15:11:03,74.0,24.0,40.379997,12.719999,-30.96,-0.27294734,0.23463893,9.818921,0.058594808,0.11137601,-0.0034428365,-0.02388284169137478,0.027790943160653114,-1.2419049739837646,1000.792,
2021.05.22 15:11:03,74.0,24.0,40.62,12.96,-30.96,-0.30886146,0.26337022,9.835681,-0.019595945,0.14497359,-0.043759942,-0.026757437735795975,0.03139182925224304,-1.2353025674819946,1000.7915,
2021.05.22 15:11:03,74.0,24.0,40.379997,12.96,-30.9,-0.09577099,0.19154198,10.029617,-0.035478443,0.057619866,0.008163603,-0.019094444811344147,0.009548528119921684,-1.2446980476379395,1000.7908,
2021.05.22 15:11:03,74.0,24.0,40.8,12.78,-31.08,0.023942748,0.39266106,9.895537,-0.036700174,0.06983717,0.046037246,-0.03965969756245613,-0.002419545315206051,-1.2408487796783447,1000.7908,
2021.05.22 15:11:03,74.0,24.0,40.8,12.599999,-31.019999,-0.12929083,0.43575802,9.957788,-0.011043833,0.0038637226,0.06497407,-0.043728943914175034,0.012983161024749279,-1.2378934621810913,1000.7866,
2021.05.22 15:11:03,74.0,24.0,41.46,12.36,-30.9,-0.30167863,0.16041641,10.106234,-0.06357824,-0.008353583,-0.016881872,-0.015864616259932518,0.029841884970664978,-1.2632936239242554,1000.7866,
2021.05.22 15:11:03,74.0,24.0,41.64,12.36,-30.3,-0.3232271,0.22745611,9.785401,-0.007378641,0.038072176,-0.029710043,-0.02322758547961712,0.03301955759525299,-1.2589842081069946,1000.7937,
2021.05.22 15:11:03,74.0,24.0,41.46,12.36,-30.06,-0.40223816,0.12929083,10.122993,-0.007378641,0.013026701,-0.038262155,-0.012761231511831284,0.039714209735393524,-1.2636100053787231,1000.7937,
2021.05.22 15:11:03,74.0,24.0,41.34,12.78,-29.76,-0.2657645,0.29689008,9.90272,0.006671259,0.009972375,-0.005275432,-0.02996089681982994,0.026831084862351418,-1.2448376417160034,1000.79443,
2021.05.22 15:11:03,74.0,24.0,40.98,13.0199995,-29.88,-0.31125572,0.2370332,9.981731,0.003616933,-0.0065209866,0.0026658159,-0.02373070828616619,0.031172435730695724,-1.2398030757904053,1000.7959,
2021.05.22 15:11:03,74.0,24.0,40.92,13.139999,-30.24,-0.28252444,0.25858167,10.161303,0.0017843375,-0.049281556,0.009385334,-0.025432372465729713,0.027796795591711998,-1.236100435256958,1000.7959,
2021.05.22 15:11:03,74.0,24.0,40.559998,13.38,-30.179998,-0.36392978,0.23942748,9.98652,0.018888565,-0.024846943,0.014883121,-0.02395457960665226,0.03642598167061806,-1.226639986038208,1000.79565,
2021.05.22 15:11:03,74.0,24.0,40.5,13.679999,-30.0,-0.31843856,0.29928434,9.885961,0.0323276,-0.014462234,2.2235495E-4,-0.030248750001192093,0.032200057059526443,-1.216412901878357,1000.79565,
2021.05.22 15:11:03,74.0,24.0,40.26,13.259999,-30.0,-0.32801566,0.28252444,10.060742,0.025608081,-0.0046883905,0.0051092766,-0.028059586882591248,0.03259197622537613,-1.2252668142318726,1000.803,
2021.05.22 15:11:04,74.0,24.0,40.2,12.84,-30.119999,-0.37111259,0.28252444,9.957788,0.006671259,-0.0059101214,-0.0040537016,-0.028344931080937386,0.03725133463740349,-1.232692003250122,1000.8025,
2021.05.22 15:11:04,74.0,24.0,40.559998,12.599999,-30.119999,-0.2753416,0.30886146,9.847652,0.0323276,0.016691893,0.02526783,-0.03134144842624664,0.02795284427702427,-1.2413874864578247,1000.8025,
2021.05.22 15:11:04,74.0,24.0,40.86,12.179999,-30.119999,-0.3998439,0.31843856,9.818921,5.6260685E-4,0.0038637226,0.009385334,-0.03239292651414871,0.04069928824901581,-1.2490017414093018,1000.802,
2021.05.22 15:11:04,74.0,24.0,41.04,12.3,-30.119999,-0.24421602,0.18914771,10.024829,-0.001269989,0.014859296,0.007552738,-0.018860090523958206,0.02435629814863205,-1.2613105773925781,1000.802,
2021.05.22 15:11:04,74.0,24.0,40.86,12.66,-29.58,-0.21309046,0.20590763,9.873989,-0.034867577,1.9853121E-4,-0.0034428365,-0.020845668390393257,0.021577641367912292,-1.2515554428100586,1000.7993,
2021.05.22 15:11:04,74.0,24.0,40.68,12.599999,-29.58,-0.2466103,0.3998439,9.809344,-0.010432967,0.008139779,0.026489561,-0.04072612524032593,0.02513504959642887,-1.2372078895568848,1000.8042,
2021.05.22 15:11:04,74.0,24.0,40.2,12.54,-30.0,-0.39266106,0.35435268,10.075109,-0.0257046,-0.0016340646,-0.0034428365,-0.03512996807694435,0.038953669369220734,-1.23435640335083,1000.8042,
2021.05.22 15:11:04,74.0,24.0,39.84,12.599999,-29.76,-0.38787252,0.23463893,10.24989,-0.050750073,-0.020570887,-0.023601389,-0.022871486842632294,0.03782357648015022,-1.239401936531067,1000.8013,
2021.05.22 15:11:04,74.0,24.0,39.719997,12.48,-30.24,-0.25379312,0.23224466,9.907509,-0.006767776,-0.0052992557,-0.008940623,-0.023429302498698235,0.02561063878238201,-1.2437134981155396,1000.8013,
2021.05.22 15:11:04,74.0,24.0,39.36,12.54,-30.48,-0.25139886,0.18675344,9.677659,0.028051542,-4.1233405E-4,0.009996199,-0.019288476556539536,0.025971397757530212,-1.242214322090149,1000.79785,
2021.05.22 15:11:04,74.0,24.0,39.36,12.42,-30.24,-0.29210153,0.19393626,10.032011,0.0011734721,-0.0046883905,0.0038875462,-0.019321147352457047,0.029108721762895584,-1.2443095445632935,1000.8013,
2021.05.22 15:11:04,74.0,24.0,39.42,12.84,-30.3,-0.25858167,0.28252444,10.005674,-0.018374216,-0.007742717,-0.013216681,-0.02821950428187847,0.025837751105427742,-1.2295191287994385,1000.8013,
2021.05.22 15:11:04,74.0,24.0,39.899998,12.78,-30.66,-0.24900457,0.2561874,10.213976,-0.01654162,0.008139779,-0.0028319713,-0.0250693429261446,0.02437398210167885,-1.2370980978012085,1000.7986,
2021.05.22 15:11:04,74.0,24.0,40.26,13.0199995,-30.42,-0.2657645,0.3328042,10.08708,0.009725586,1.9853121E-4,-0.029710043,-0.03296971693634987,0.026340926066040993,-1.2286080121994019,1000.7986,
2021.05.22 15:11:04,74.0,24.0,40.26,13.259999,-30.72,-0.3304099,0.27294734,9.950606,0.021332026,0.00936151,-0.01566014,-0.02740824781358242,0.03319280967116356,-1.22491455078125,1000.792,
2021.05.22 15:11:04,74.0,24.0,40.5,12.96,-31.439999,-0.36392978,0.28252444,9.814133,0.025608081,0.007528914,-0.026655717,-0.028759805485606194,0.037065230309963226,-1.23086678981781,1000.79175,
2021.05.22 15:11:04,74.0,24.0,40.92,12.84,-31.74,-0.41181526,0.17478207,9.998491,0.026218947,0.013026701,-0.0138275465,-0.01746426150202751,0.041164472699165344,-1.2438652515411377,1000.79175,
2021.05.22 15:11:05,74.0,24.0,41.28,12.96,-32.28,-0.27294734,0.26337022,9.943423,-0.0024917193,0.008139779,0.0032766813,-0.026470718905329704,0.02744314633309841,-1.240601658821106,1000.8003,
2021.05.22 15:11:05,74.0,24.0,41.46,13.139999,-32.04,-0.17957062,0.30886146,9.960183,-0.007378641,0.014248433,0.009996199,-0.030994651839137077,0.018026893958449364,-1.2375452518463135,1000.8003,
2021.05.22 15:11:05,74.0,24.0,41.16,13.44,-31.439999,-0.27055305,0.31125572,10.012857,-0.012876429,0.0038637226,-0.0040537016,-0.031064264476299286,0.0270139891654253,-1.226609706878662,1000.7988,
2021.05.22 15:11:05,74.0,24.0,40.62,13.92,-30.779999,-0.38308397,0.3423813,9.871595,-0.0061569107,0.011194105,-0.02482312,-0.03464352712035179,0.038787227123975754,-1.206295132637024,1000.7988,
2021.05.22 15:11:05,74.0,24.0,40.02,13.98,-30.24,-0.50040346,0.17478207,10.166091,-0.03608931,-0.012018774,-0.048646867,-0.017170175909996033,0.04918310418725014,-1.209784746170044,1000.7988,
2021.05.22 15:11:05,74.0,24.0,40.379997,13.559999,-30.66,-0.3615355,0.18675344,9.98652,-0.019595945,0.0038637226,-0.019325333,-0.01868613436818123,0.03618654981255531,-1.2245758771896362,1000.8013,
2021.05.22 15:11:05,74.0,24.0,40.2,13.259999,-30.96,-0.2849187,0.23463893,9.845258,0.0072821244,-0.0065209866,0.024656964,-0.023818207904696465,0.028931614011526108,-1.2280051708221436,1000.8013,
2021.05.22 15:11:05,74.0,24.0,39.719997,13.139999,-31.08,-0.20590763,0.43096948,9.646533,0.0323276,0.026465736,0.033819944,-0.044636256992816925,0.02134200558066368,-1.2140846252441406,1000.802,
2021.05.22 15:11:05,74.0,24.0,39.96,13.0199995,-30.84,-0.505192,0.18675344,10.415095,-0.039143633,-0.0052992557,-0.041927345,-0.017908064648509026,0.04846775904297829,-1.230472445487976,1000.80054,
2021.05.22 15:11:05,74.0,24.0,39.66,13.44,-30.42,-0.24421602,0.37111259,9.993703,-0.050750073,-0.010186179,-0.041927345,-0.03710652142763138,0.02443212829530239,-1.2119017839431763,1000.80054,
2021.05.22 15:11:05,74.0,24.0,40.079998,13.679999,-30.179998,-0.29210153,0.23942748,10.024829,0.03904712,-0.01751656,0.0032766813,-0.023868780583143234,0.02912956476211548,-1.2180814743041992,1000.79614,
2021.05.22 15:11:05,74.0,24.0,40.62,13.559999,-30.06,-0.45012367,0.09577099,9.871595,0.029273273,0.005085453,-0.025433986,-0.009691299870610237,0.04556630179286003,-1.2308238744735718,1000.79614,
2021.05.22 15:11:05,74.0,24.0,40.8,13.5,-30.179998,-0.2753416,0.28013015,9.876384,-0.0049351803,0.0026419922,-0.0138275465,-0.028345026075839996,0.027871565893292427,-1.2251899242401123,1000.79785,
2021.05.22 15:11:05,74.0,24.0,40.44,13.08,-30.3,-0.2561874,0.29689008,9.972155,-0.023261137,-0.013240504,0.0057201423,-0.0297533068805933,0.025684626772999763,-1.2312208414077759,1000.8008,
2021.05.22 15:11:05,74.0,24.0,40.02,13.139999,-30.42,-0.29928434,0.27055305,10.005674,-0.025093732,-0.010797042,0.0069418726,-0.027021292597055435,0.029902545735239983,-1.2271509170532227,1000.8008,
2021.05.22 15:11:05,74.0,24.0,39.66,12.96,-30.359999,-0.4166038,0.16759923,10.08708,-0.012265563,-0.004077526,-0.023601389,-0.016599558293819427,0.04127727448940277,-1.2327709197998047,1000.8032,
2021.05.22 15:11:06,74.0,24.0,39.54,12.78,-30.3,-0.26337022,0.29689008,9.797373,0.018888565,0.011194105,0.0069418726,-0.030282823368906975,0.026875244453549385,-1.2301141023635864,1000.80054,
2021.05.22 15:11:06,74.0,24.0,39.84,13.62,-30.179998,-0.41181526,0.21309046,9.960183,-0.012265563,-0.012018774,-0.004664567,-0.021372713148593903,0.04132261872291565,-1.2157418727874756,1000.80054,
2021.05.22 15:11:06,74.0,24.0,40.02,13.799999,-29.82,-0.35914123,0.22745611,10.08708,-0.01776335,-0.010186179,-0.008329758,-0.022531159222126007,0.03558905050158501,-1.2142823934555054,1000.801,
2021.05.22 15:11:06,74.0,24.0,39.96,14.099999,-30.06,-0.27055305,0.3040729,10.012857,5.6260685E-4,0.0038637226,0.01610485,-0.03034784272313118,0.0270139891654253,-1.20391845703125,1000.801,
2021.05.22 15:11:06,74.0,24.0,39.84,14.5199995,-30.179998,-0.29928434,0.25139886,9.955395,0.010947316,0.0044745877,0.017937446,-0.025235764682292938,0.030053477734327316,-1.1960467100143433,1000.802,
2021.05.22 15:11:06,74.0,24.0,39.54,13.98,-30.06,-0.40223816,0.2083019,9.950606,0.0042277984,-4.1233405E-4,-0.011384085,-0.02091345563530922,0.040401484817266464,-1.2056684494018555,1000.802,
2021.05.22 15:11:06,74.0,24.0,39.42,13.62,-30.06,-0.33519846,0.25379312,10.046377,-6.591236E-4,-0.0046883905,-0.002221106,-0.025242740288376808,0.03335273265838623,-1.2118257284164429,1000.79834,
2021.05.22 15:11:06,74.0,24.0,39.78,13.38,-29.699999,-0.28970724,0.2753416,9.950606,-0.001269989,0.016691893,0.0069418726,-0.027652068063616753,0.02910630963742733,-1.220149278640747,1000.7991,
2021.05.22 15:11:06,74.0,24.0,40.2,12.9,-29.88,-0.3328042,0.25379312,9.955395,-0.006767776,0.02218968,-0.005275432,-0.025473279878497124,0.03341709077358246,-1.2346235513687134,1000.7991,
2021.05.22 15:11:06,74.0,24.0,40.98,12.66,-30.119999,-0.44533512,0.16759923,9.96976,-0.0049351803,0.0056963186,-0.02237966,-0.016792437061667442,0.04463891685009003,-1.2491408586502075,1000.79565,
2021.05.22 15:11:06,74.0,24.0,40.739998,12.54,-30.539999,-0.339987,0.2466103,10.00328,-0.009211237,-0.0059101214,-0.021768793,-0.024633735418319702,0.03397447615861893,-1.2468763589859009,1000.79565,
2021.05.22 15:11:06,74.0,24.0,40.98,12.54,-30.9,-0.32801566,0.22266756,10.0368,-0.0024917193,0.0056963186,0.01610485,-0.02216964215040207,0.03266967087984085,-1.2505122423171997,1000.80225,
2021.05.22 15:11:06,74.0,24.0,40.8,12.42,-30.96,-0.36871833,0.2657645,10.166091,0.01949943,-0.0034666602,0.0032766813,-0.026119133457541466,0.036253537982702255,-1.2480155229568481,1000.802,
2021.05.22 15:11:06,74.0,24.0,39.78,12.54,-30.599998,-0.3232271,0.22745611,10.106234,-0.015319889,-0.012629638,0.01243966,-0.022491220384836197,0.031972043216228485,-1.24149751663208,1000.802,
2021.05.22 15:11:06,74.0,24.0,39.719997,12.54,-30.779999,-0.30167863,0.2681588,9.943423,0.0072821244,-0.0059101214,0.019770043,-0.026949526742100716,0.03033020906150341,-1.2380789518356323,1000.79565,
2021.05.22 15:11:06,74.0,24.0,39.42,12.84,-30.539999,-0.34477556,0.18675344,10.060742,0.01033645,-0.007742717,0.014272256,-0.018549572676420212,0.034255992621183395,-1.2339783906936646,1000.79565,
2021.05.22 15:11:06,74.0,24.0,39.3,13.259999,-30.599998,-0.3232271,0.2370332,9.905115,0.012169046,-0.010797042,-9.993755E-4,-0.023913094773888588,0.03262076899409294,-1.2197719812393188,1000.79175,
2021.05.22 15:11:07,74.0,24.0,39.96,13.559999,-31.32,-0.29689008,0.29689008,9.948212,0.00911472,-0.019960022,0.009385334,-0.02982143685221672,0.029834706336259842,-1.2143877744674683,1000.79175,
2021.05.22 15:11:07,74.0,24.0,40.02,13.86,-30.9,-0.38068968,0.22985038,10.005674,0.01033645,-0.026068674,0.0057201423,-0.022951362654566765,0.03802903741598129,-1.2110369205474854,1000.79175,
2021.05.22 15:11:07,74.0,24.0,39.66,13.62,-30.9,-0.3328042,0.21787901,9.859624,0.0023952026,-0.016905695,0.008163603,-0.02208193577826023,0.03374144062399864,-1.2153240442276,1000.79126,
2021.05.22 15:11:07,74.0,24.0,39.239998,13.62,-30.72,-0.29689008,0.2561874,10.048771,-0.014098159,-0.014462234,0.0130505245,-0.02547776885330677,0.029536323621869087,-1.2106767892837524,1000.7908,
2021.05.22 15:11:07,74.0,24.0,38.82,13.38,-29.88,-0.12689656,0.32562137,9.96976,0.014612508,-0.012629638,0.010607065,-0.03264665603637695,0.012727458961308002,-1.213154911994934,1000.7908,
2021.05.22 15:11:07,74.0,24.0,39.78,12.9,-29.939999,-0.3040729,0.23942748,10.022434,0.003616933,-0.021792619,-0.007108028,-0.023873629048466682,0.03032992221415043,-1.2331889867782593,1000.7932,
2021.05.22 15:11:07,74.0,24.0,40.2,12.719999,-30.06,-0.28252444,0.24182175,10.055954,-0.0031025845,-0.0150731,-0.027877446,-0.024033505469560623,0.028087850660085678,-1.24100923538208,1000.7932,
2021.05.22 15:11:07,74.0,24.0,40.32,12.599999,-30.24,-0.21548474,0.2753416,9.984126,0.0042277984,0.0063071838,-0.023601389,-0.027564531192183495,0.021579384803771973,-1.2437657117843628,1000.79517,
2021.05.22 15:11:07,74.0,24.0,40.5,13.08,-30.359999,-0.21069619,0.24421602,9.8787775,0.012169046,0.00936151,-0.024212256,-0.024710627272725105,0.02132493071258068,-1.2363117933273315,1000.79517,
2021.05.22 15:11:07,74.0,24.0,39.78,13.139999,-30.24,-0.31365,0.23224466,9.866806,0.0017843375,0.0044745877,-0.04681427,-0.023521754890680313,0.031777702271938324,-1.2273122072219849,1000.79517,
2021.05.22 15:11:07,74.0,24.0,39.54,13.2,-30.06,-0.33519846,0.23463893,9.964972,0.0030060678,0.014859296,-0.03642956,-0.023528721183538437,0.03362499549984932,-1.2235890626907349,1000.792,
2021.05.22 15:11:07,74.0,24.0,39.96,13.259999,-30.3,-0.24421602,0.3328042,10.012857,-0.010432967,0.017913625,-0.022990525,-0.03321558237075806,0.02438540942966938,-1.221280813217163,1000.792,
2021.05.22 15:11:07,74.0,24.0,40.02,13.08,-30.66,-0.13886794,0.31125572,9.955395,-0.015930755,0.010583241,-0.03765129,-0.03125181049108505,0.013948109932243824,-1.2297844886779785,1000.7959,
2021.05.22 15:11:07,74.0,24.0,39.96,13.38,-30.599998,-0.45970076,0.4836435,10.929865,0.006671259,0.02218968,-0.06758369,-0.04418186843395233,0.042034368962049484,-1.2051937580108643,1000.7959,
2021.05.22 15:11:07,74.0,24.0,40.14,13.44,-30.24,-0.54350036,0.4166038,9.816526,0.05248615,0.05212208,-0.1079008,-0.042348798364400864,0.05530938506126404,-1.2029809951782227,1000.7959,
2021.05.22 15:11:07,74.0,24.0,39.96,13.559999,-29.58,-0.35914123,0.4189981,9.72315,0.038436253,0.054565538,-0.020547064,-0.04303687810897827,0.036919932812452316,-1.204882264137268,1000.8025,
2021.05.22 15:11:07,74.0,24.0,39.899998,13.259999,-29.34,-0.5913859,0.3328042,10.00328,0.023775486,0.036239583,-0.017492738,-0.03319931775331497,0.05905047059059143,-1.2116587162017822,1000.8025,
2021.05.22 15:11:08,74.0,24.0,40.079998,12.9,-29.16,-0.42618093,0.37590113,10.00328,-0.028758924,0.030130928,-0.01566014,-0.03752610459923744,0.04257837310433388,-1.2234385013580322,1000.8003,
2021.05.22 15:11:08,74.0,24.0,39.6,12.9,-29.099998,-0.32562137,0.44294083,9.802161,0.0011734721,0.027076604,0.018548314,-0.04513249918818474,0.033207133412361145,-1.217056155204773,1000.8003,
2021.05.22 15:11:08,74.0,24.0,39.66,13.259999,-29.099998,-0.45012367,0.32083282,10.012857,-0.020817677,0.021578815,0.032598212,-0.031998828053474426,0.04492432251572609,-1.2149386405944824,1000.7959,
2021.05.22 15:11:08,74.0,24.0,39.899998,13.32,-28.859999,-0.32562137,0.3615355,9.893144,-0.022039408,0.013637567,0.017937446,-0.036508042365312576,0.03290196508169174,-1.2162331342697144,1000.7915,
2021.05.22 15:11:08,74.0,24.0,40.079998,13.62,-29.4,-0.39505535,0.3328042,10.0200405,-0.022039408,0.011804971,0.017326582,-0.03317589685320854,0.03940610960125923,-1.210779070854187,1000.7915,
2021.05.22 15:11:08,74.0,24.0,40.32,13.799999,-29.76,-0.4070267,0.3423813,10.0200405,-0.044030555,0.0087506445,0.0112179285,-0.03412823751568794,0.04059894010424614,-1.2073708772659302,1000.79517,
2021.05.22 15:11:08,74.0,24.0,40.32,13.679999,-30.0,-0.38547826,0.3232271,9.957788,-0.017152485,0.020357084,0.009385334,-0.032424066215753555,0.03869191184639931,-1.2115398645401,1000.79517,
2021.05.22 15:11:08,74.0,24.0,40.5,13.679999,-30.84,-0.37590113,0.2370332,10.063137,-0.041587092,-0.021181753,2.2235495E-4,-0.023533841595053673,0.03733690828084946,-1.2189154624938965,1000.7969,
2021.05.22 15:11:08,74.0,24.0,39.899998,13.799999,-30.539999,-0.27055305,0.32562137,10.30017,0.0017843375,0.0087506445,0.038096,-0.03159179165959358,0.02626081369817257,-1.2090253829956055,1000.7947,
2021.05.22 15:11:08,74.0,24.0,40.14,13.98,-30.359999,-0.33519846,0.20351335,10.338479,0.034771062,-0.10792461,-0.0016102408,-0.01967216096818447,0.032411061227321625,-1.2137267589569092,1000.7947,
2021.05.22 15:11:08,74.0,24.0,39.899998,13.86,-30.06,-0.93616146,0.40463245,9.984126,-0.07335209,-0.07188357,0.020991774,-0.04032870754599571,0.09349163621664047,-1.1801098585128784,1000.7969,
