Time,X-cord,Y-cord,Mag_x,Mag_y,Mag_z,Acc_x,Acc_y,Acc_z,Gyro_x,Gyro_y,Gyro_z,Orn_x,Orn_y,Orn_z,Pressure,
2021.05.22 14:58:44,11.0,24.0,25.859999,6.3599997,-36.12,-1.2737542,0.29928434,9.696813,-0.06479997,0.14253014,-0.08346619,-0.03059176728129387,0.13061022758483887,-1.224452257156372,1000.9402,
2021.05.22 14:58:44,11.0,24.0,25.98,6.12,-36.12,-0.5147691,0.42618093,9.881172,-0.062967375,-0.07188357,0.1596582,-0.043045591562986374,0.052048902958631516,-1.2602001428604126,1000.9248,
2021.05.22 14:58:44,11.0,24.0,26.88,5.7599998,-36.899998,-0.71828246,0.3615355,9.737515,0.045766637,0.002031127,0.098571666,-0.03701059892773628,0.07363110035657883,-1.2807447910308838,1000.9253,
2021.05.22 14:58:44,11.0,24.0,27.779999,5.1,-37.62,-0.7015225,0.18435916,10.206794,-0.022039408,-0.01873829,0.047869842,-0.018017934635281563,0.06862302124500275,-1.3436461687088013,1000.9253,
2021.05.22 14:58:44,11.0,24.0,28.619999,4.7999997,-38.82,-0.4836435,0.29689008,9.869201,0.03599279,-0.01751656,0.05703282,-0.030037391930818558,0.04896616190671921,-1.3494772911071777,1000.9392,
2021.05.22 14:58:44,11.0,24.0,29.46,4.7999997,-40.079998,-0.6464542,0.23942748,9.871595,0.05248615,0.036850445,0.05336763,-0.024197619408369064,0.06539292633533478,-1.3570369482040405,1000.9392,
2021.05.22 14:58:44,11.0,24.0,29.4,4.2,-39.96,-0.3902668,0.44294083,9.656111,0.09158153,0.044791695,0.063752346,-0.045802079141139984,0.040394578129053116,-1.3552641868591309,1000.9358,
2021.05.22 14:58:44,11.0,24.0,29.519999,4.3199997,-39.719997,-0.48843205,0.21069619,10.00328,0.05676221,0.0056963186,0.06130888,-0.021034546196460724,0.048788443207740784,-1.3847978115081787,1000.9314,
2021.05.22 14:58:45,11.0,24.0,29.76,3.84,-39.48,-0.22506183,0.31365,9.948212,0.0323276,-0.059666265,0.07535878,-0.03150978311896324,0.02261948771774769,-1.3957902193069458,1000.9314,
2021.05.22 14:58:45,11.0,24.0,29.4,3.4199998,-39.18,-0.17238778,0.34716985,10.125388,0.09341412,-0.08959866,0.13949963,-0.03426867350935936,0.017023656517267227,-1.4060134887695312,1000.9375,
2021.05.22 14:58:45,11.0,24.0,29.76,3.1799998,-39.54,-0.27055305,0.34956414,10.336084,0.051875286,-0.14640914,0.11567589,-0.03379533067345619,0.026169609278440475,-1.4139879941940308,1000.93726,
2021.05.22 14:58:45,11.0,24.0,29.22,2.7,-40.14,-0.15323359,0.45012367,9.835681,0.051875286,-0.07677049,0.085743494,-0.04572691023349762,0.015578096732497215,-1.4128910303115845,1000.93726,
2021.05.22 14:58:45,11.0,24.0,28.98,2.82,-40.26,-0.38787252,0.49800915,9.703996,0.059816536,0.009972375,0.037485134,-0.05123418569564819,0.03994912654161453,-1.3922464847564697,1000.9304,
2021.05.22 14:58:45,11.0,24.0,28.92,2.34,-40.26,-0.30886146,0.46927786,9.8787775,-0.008600371,0.053954672,-0.03642956,-0.04744480550289154,0.03125496953725815,-1.4169032573699951,1000.9304,
2021.05.22 14:58:45,11.0,24.0,28.5,2.3999999,-40.44,-0.4189981,0.38068968,10.084685,-0.031202385,0.028298331,-0.03520783,-0.03769887983798981,0.04152407497167587,-1.4238686561584473,1000.92896,
2021.05.22 14:58:45,11.0,24.0,28.74,2.6399999,-40.14,-0.3040729,0.35435268,10.108628,-0.018374216,0.028298331,-0.023601389,-0.03502430021762848,0.03007146157324314,-1.423841118812561,1000.91943,
2021.05.22 14:58:45,11.0,24.0,28.859999,2.52,-40.32,-0.33519846,0.28252444,10.034406,-0.0397545,0.033185255,-0.031542636,-0.028132453560829163,0.03339250013232231,-1.437771201133728,1000.91943,
2021.05.22 14:58:45,11.0,24.0,29.16,3.06,-39.899998,-0.22266756,0.60335726,9.569917,0.011558182,0.017913625,0.0057201423,-0.06294695287942886,0.023263253271579742,-1.3747278451919556,1000.92285,
2021.05.22 14:58:45,11.0,24.0,29.4,2.9399998,-39.66,-0.5985687,0.5506832,10.113417,0.005449529,-0.020570887,-0.011384085,-0.05430220440030098,0.05911664292216301,-1.3813295364379883,1000.92285,
2021.05.22 14:58:45,11.0,24.0,28.74,2.9399998,-38.94,-0.4932206,0.6392714,9.96976,-0.012876429,-0.008353583,-0.03520783,-0.0639553889632225,0.04943135753273964,-1.3678680658340454,1000.91895,
2021.05.22 14:58:45,11.0,24.0,28.98,3.0,-39.18,-0.49800915,0.32562137,10.257073,-0.009211237,-0.010797042,-0.030320907,-0.03169805556535721,0.048514652997255325,-1.413729190826416,1000.91895,
2021.05.22 14:58:45,11.0,24.0,28.98,2.9399998,-38.879997,-0.26097596,0.51716334,9.672871,0.016445102,-0.019960022,-0.008940623,-0.053395092487335205,0.026973651722073555,-1.3918005228042603,1000.92773,
2021.05.22 14:58:45,11.0,24.0,28.32,3.24,-38.7,-0.4644893,0.62251145,9.624985,0.028051542,0.031963523,-0.024212256,-0.06451179832220078,0.048221297562122345,-1.3542287349700928,1000.92676,
2021.05.22 14:58:45,11.0,24.0,28.859999,3.3,-39.059998,-0.69912827,0.5506832,10.0368,-0.023261137,0.018524488,-0.070638016,-0.054679226130247116,0.06954415887594223,-1.3616657257080078,1000.92676,
2021.05.22 14:58:46,11.0,24.0,28.439999,3.3,-38.52,-0.73743665,0.5363176,10.259467,-0.045252286,0.030741792,-0.044981673,-0.052093688398599625,0.07175524532794952,-1.362862229347229,1000.92676,
2021.05.22 14:58:46,11.0,24.0,28.26,3.72,-39.36,-0.49082634,0.5602603,10.118205,-0.0061569107,0.039293908,0.0069418726,-0.05525018647313118,0.04847123473882675,-1.3480724096298218,1000.9324,
2021.05.22 14:58:46,11.0,24.0,28.68,4.02,-39.239998,-0.38547826,0.5602603,9.890749,0.053707883,0.025854873,0.04053946,-0.05654158070683479,0.03895390406250954,-1.3428871631622314,1000.9324,
2021.05.22 14:58:46,11.0,24.0,28.74,4.3199997,-39.059998,-0.38068968,0.58420306,9.929058,0.05309702,0.012415837,0.039928596,-0.058726903051137924,0.038322195410728455,-1.3305788040161133,1000.92725,
2021.05.22 14:58:46,11.0,24.0,28.859999,4.3199997,-39.18,-0.5650489,0.4932206,9.91948,0.04026885,0.0026419922,0.009385334,-0.0496012307703495,0.05690206587314606,-1.3368494510650635,1000.92725,
2021.05.22 14:58:46,11.0,24.0,28.74,3.6599998,-38.7,-0.5554718,0.5147691,10.024829,0.015223373,-0.007742717,-0.008329758,-0.05122591182589531,0.05535300076007843,-1.3588097095489502,1000.9309,
2021.05.22 14:58:46,11.0,24.0,28.619999,3.54,-38.82,-0.5243462,0.5411061,9.943423,0.014001642,0.0087506445,0.009996199,-0.05428959056735039,0.05268416553735733,-1.358484148979187,1000.9309,
2021.05.22 14:58:46,11.0,24.0,28.68,3.12,-39.059998,-0.505192,0.5889916,9.979338,0.020110294,-0.0052992557,0.023435233,-0.05887749791145325,0.05058061704039574,-1.3675771951675415,1000.92554,
2021.05.22 14:58:46,11.0,24.0,29.039999,2.82,-39.42,-0.36871833,0.52674043,9.926663,0.02316462,-0.015683964,0.0051092766,-0.05297701060771942,0.03712717071175575,-1.3927440643310547,1000.9282,
2021.05.22 14:58:46,11.0,24.0,28.8,3.06,-39.48,-0.47885495,0.5411061,9.864412,0.00911472,-0.01751656,0.0057201423,-0.05473512411117554,0.04850561171770096,-1.3763115406036377,1000.9282,
2021.05.22 14:58:46,11.0,24.0,28.5,2.9399998,-39.239998,-0.3974496,0.531529,9.979338,-0.001269989,-0.01385137,-0.0077188932,-0.053170595318078995,0.039806216955184937,-1.3842577934265137,1000.92236,
2021.05.22 14:58:46,11.0,24.0,28.14,3.0,-39.18,-0.56744313,0.51716334,9.996098,-0.018374216,-0.012629638,-0.013216681,-0.05160750076174736,0.05670560896396637,-1.376328468322754,1000.9177,
2021.05.22 14:58:46,11.0,24.0,27.599998,2.8799999,-39.0,-0.39266106,0.531529,9.912297,-0.011654698,-0.023625214,-0.006497163,-0.053529977798461914,0.03959282487630844,-1.3803377151489258,1000.9177,
2021.05.22 14:58:46,11.0,24.0,27.84,2.76,-39.18,-0.42139238,0.44054657,10.039194,-0.010432967,-0.02301435,-0.006497163,-0.04381599649786949,0.04195009917020798,-1.3996654748916626,1000.91675,
2021.05.22 14:58:46,11.0,24.0,27.66,2.7,-39.78,-0.33519846,0.5961744,9.90272,0.009725586,-0.054779343,0.024046099,-0.06009617820382118,0.03383621200919151,-1.3778117895126343,1000.91675,
2021.05.22 14:58:46,11.0,24.0,28.14,3.24,-39.78,-0.4764607,0.5363176,9.93624,0.003616933,-0.025457809,-0.0040537016,-0.053861815482378006,0.04791510850191116,-1.3658338785171509,1000.91406,
2021.05.22 14:58:46,11.0,24.0,28.199999,3.6,-39.84,-0.55307746,0.52913475,10.034406,-0.015319889,1.9853121E-4,-0.055366382,-0.05260355398058891,0.055062394589185715,-1.352190613746643,1000.91406,
2021.05.22 14:58:47,11.0,24.0,28.32,3.84,-39.78,-0.46927786,0.5243462,10.022434,-6.591236E-4,0.011194105,-0.031542636,-0.052212491631507874,0.046788569539785385,-1.3483551740646362,1000.9131,
2021.05.22 14:58:47,11.0,24.0,29.039999,4.02,-39.48,-0.4166038,0.5363176,9.912297,-0.004324315,0.00936151,-0.020547064,-0.05400598794221878,0.042004264891147614,-1.347604513168335,1000.9155,
2021.05.22 14:58:47,11.0,24.0,28.619999,3.72,-39.18,-0.3519584,0.5363176,9.98652,5.6260685E-4,-0.0034666602,-0.010773219,-0.053619384765625,0.03522876650094986,-1.3585150241851807,1000.9155,
2021.05.22 14:58:47,11.0,24.0,28.5,3.6,-38.76,-0.43815228,0.5243462,9.8237095,-0.013487294,-0.01751656,-0.018714469,-0.05327211692929268,0.04457196965813637,-1.359942078590393,1000.91724,
2021.05.22 14:58:47,11.0,24.0,28.38,3.1799998,-38.52,-0.4932206,0.50758624,9.991309,-0.022039408,-0.021181753,-0.023601389,-0.050697509199380875,0.049324922263622284,-1.3767759799957275,1000.91724,
2021.05.22 14:58:47,11.0,24.0,28.38,3.54,-38.64,-0.4764607,0.5818088,9.895537,-0.03242412,-0.023625214,-0.029710043,-0.05865966156125069,0.04811188951134682,-1.3524795770645142,1000.91504,
2021.05.22 14:58:47,11.0,24.0,28.019999,3.6,-38.52,-0.46927786,0.4668836,10.08708,-0.034256715,-0.0150731,-0.020547064,-0.0462023951113224,0.04648914560675621,-1.3663079738616943,1000.91284,
2021.05.22 14:58:47,11.0,24.0,27.72,4.14,-38.04,-0.4285752,0.4932206,10.05356,-0.034256715,-0.028512135,-0.021768793,-0.048975586891174316,0.042603399604558945,-1.3426800966262817,1000.91284,
2021.05.22 14:58:47,11.0,24.0,27.24,4.74,-37.92,-0.38787252,0.4860378,9.888355,0.00911472,-0.004077526,0.026489561,-0.049075331538915634,0.03920507803559303,-1.3180705308914185,1000.91284,
2021.05.22 14:58:47,11.0,24.0,26.58,5.04,-37.38,-0.37111259,0.44772938,9.955395,-0.0061569107,-0.0046883905,-3.885103E-4,-0.04491210728883743,0.037260282784700394,-1.3085365295410156,1000.91284,
2021.05.22 14:58:47,11.0,24.0,26.58,5.16,-37.32,-0.37829542,0.5411061,9.766247,-0.010432967,0.0014202617,0.009385334,-0.05530775710940361,0.038715630769729614,-1.289018154144287,1000.9092,
2021.05.22 14:58:47,11.0,24.0,26.22,5.58,-37.32,-0.35435268,0.4740664,10.187639,-0.0061569107,-0.0065209866,0.023435233,-0.046471886336803436,0.03476859629154205,-1.283879280090332,1000.9226,
2021.05.22 14:58:47,11.0,24.0,26.58,5.52,-37.079998,-0.34716985,0.49800915,9.917087,-0.006767776,-0.012629638,0.018548314,-0.05014446750283241,0.034992948174476624,-1.285262107849121,1000.9226,
2021.05.22 14:58:47,11.0,24.0,26.46,5.7,-36.96,-0.27055305,0.4740664,10.039194,0.0072821244,-0.007742717,0.028322157,-0.047169409692287445,0.026943158358335495,-1.2853705883026123,1000.9263,
2021.05.22 14:58:47,11.0,24.0,26.34,5.7,-36.6,-0.38068968,0.47167215,9.873989,0.016445102,-0.009575313,0.007552738,-0.047697488218545914,0.0385357141494751,-1.2788771390914917,1000.9263,
2021.05.22 14:58:47,11.0,24.0,26.039999,4.74,-36.719997,-0.38787252,0.42378664,9.974549,0.015834238,0.014248433,0.009996199,-0.042429231107234955,0.03886663541197777,-1.318688154220581,1000.92017,
2021.05.22 14:58:47,11.0,24.0,25.32,4.74,-36.54,-0.4285752,0.42378664,9.933846,0.0023952026,0.008139779,0.011828794,-0.04259544983506203,0.043116189539432526,-1.3097624778747559,1000.9131,
2021.05.22 14:58:48,11.0,24.0,25.019999,4.3199997,-36.78,-0.36392978,0.4860378,10.000886,-6.591236E-4,0.013637567,0.029543886,-0.04852919653058052,0.03637370094656944,-1.3168662786483765,1000.9131,
2021.05.22 14:58:48,11.0,24.0,24.779999,4.62,-36.84,-0.23224466,0.50758624,10.005674,-0.0049351803,-0.009575313,0.039928596,-0.050672758370637894,0.023207126185297966,-1.305109977722168,1000.9199,
2021.05.22 14:58:48,11.0,24.0,25.199999,5.52,-36.84,-0.2681588,0.48843205,9.816526,0.013390777,-0.0034666602,0.03443081,-0.04969659075140953,0.027310283854603767,-1.274741768836975,1000.91455,
2021.05.22 14:58:48,11.0,24.0,25.619999,5.7599998,-37.5,-0.45012367,0.36632404,10.115811,-0.012876429,-0.01629483,0.007552738,-0.03616144508123398,0.044467706233263016,-1.2803550958633423,1000.91455,
2021.05.22 14:58:48,11.0,24.0,25.619999,5.94,-37.32,-0.2657645,0.4740664,9.998491,0.0048386636,-0.008353583,0.03443081,-0.04736160859465599,0.02657420188188553,-1.2664955854415894,1000.9241,
2021.05.22 14:58:48,11.0,24.0,25.5,6.18,-37.68,-0.22027329,0.5027977,10.012857,0.0182777,-0.0071318517,0.04053946,-0.05016094818711281,0.02199549414217472,-1.253889799118042,1000.9241,
2021.05.22 14:58:48,11.0,24.0,25.32,5.7,-37.86,-0.3615355,0.5027977,9.77343,0.00789299,-0.01751656,-0.0058862977,-0.05136498436331749,0.03697481006383896,-1.2598025798797607,1000.93164,
2021.05.22 14:58:48,11.0,24.0,25.38,5.46,-37.739998,-0.42618093,0.43575802,10.130177,0.01949943,-0.008353583,0.009996199,-0.04295139014720917,0.04204563796520233,-1.27978515625,1000.927,
2021.05.22 14:58:48,11.0,24.0,25.439999,5.52,-37.739998,-0.31604427,0.4764607,9.876384,0.0060603945,-0.012018774,0.007552738,-0.04818042367696762,0.03198908269405365,-1.2754236459732056,1000.927,
2021.05.22 14:58:48,11.0,24.0,25.74,5.1,-37.38,-0.23942748,0.47167215,9.98652,0.010947316,0.0044745877,0.030154753,-0.047182273119688034,0.023970473557710648,-1.3003407716751099,1000.9221,
2021.05.22 14:58:48,11.0,24.0,25.56,4.74,-37.38,-0.22506183,0.50040346,9.979338,-0.0049351803,-4.1233405E-4,-0.0028319713,-0.0500892736017704,0.022548960521817207,-1.3085145950317383,1000.9221,
2021.05.22 14:58:48,11.0,24.0,25.199999,4.62,-37.14,-0.31125572,0.45491222,9.91948,0.0011734721,0.008139779,-0.0028319713,-0.04580586403608322,0.03136793524026871,-1.3123301267623901,1000.9241,
2021.05.22 14:58:48,11.0,24.0,25.14,4.2599998,-37.079998,-0.25858167,0.45730647,9.984126,-0.014098159,-0.0046883905,-0.005275432,-0.04575604200363159,0.02589349076151848,-1.3282371759414673,1000.9241,
2021.05.22 14:58:48,11.0,24.0,25.019999,4.3199997,-37.62,-0.24182175,0.5027977,9.960183,-0.006767776,-4.1233405E-4,-0.011384085,-0.050423119217157364,0.024274077266454697,-1.3174082040786743,1000.9302,
2021.05.22 14:58:48,11.0,24.0,25.14,4.74,-37.62,-0.35435268,0.47885495,9.953,-0.012265563,0.013026701,-0.029099176,-0.04804415628314018,0.03558756783604622,-1.3007875680923462,1000.926,
2021.05.22 14:58:48,11.0,24.0,25.199999,4.7999997,-38.04,-0.35914123,0.47167215,9.96976,-0.0031025845,0.0063071838,-0.037040424,-0.04724442958831787,0.036007486283779144,-1.299156904220581,1000.926,
2021.05.22 14:58:49,11.0,24.0,25.26,4.98,-37.86,-0.409421,0.42618093,10.089474,-0.010432967,0.0038637226,-0.022990525,-0.042180385440588,0.04055677354335785,-1.2986972332000732,1000.92773,
2021.05.22 14:58:49,11.0,24.0,25.619999,4.62,-37.86,-0.2561874,0.505192,10.008069,-0.011654698,-0.015683964,-0.013216681,-0.050419170409440994,0.025592496618628502,-1.3108305931091309,1000.92773,
2021.05.22 14:58:49,11.0,24.0,25.56,4.44,-37.2,-0.23463893,0.4932206,10.00328,0.020110294,8.0939644E-4,0.0020549507,-0.0492524653673172,0.023451900109648705,-1.3210599422454834,1000.9282,
2021.05.22 14:58:49,11.0,24.0,25.32,4.44,-37.079998,-0.36871833,0.43575802,9.905115,0.006671259,-0.0034666602,-0.008940623,-0.04393449053168297,0.037207864224910736,-1.3209553956985474,1000.9258,
2021.05.22 14:58:49,11.0,24.0,25.26,4.68,-36.84,-0.3974496,0.44054657,9.921875,0.015834238,0.0038637226,-0.0119949505,-0.04433688893914223,0.040036506950855255,-1.309630274772644,1000.9258,
2021.05.22 14:58:49,11.0,24.0,24.96,5.1,-36.48,-0.36632404,0.4285752,10.012857,-0.0061569107,-0.012629638,-0.0016102408,-0.04274781420826912,0.036569055169820786,-1.294586181640625,1000.9375,
2021.05.22 14:58:49,11.0,24.0,24.96,5.04,-36.6,-0.23463893,0.51955765,9.857229,0.0023952026,0.0014202617,0.02771129,-0.05264467000961304,0.023799246177077293,-1.2883143424987793,1000.9375,
2021.05.22 14:58:49,11.0,24.0,25.74,5.22,-36.36,-0.339987,0.45491222,10.055954,-0.015930755,-0.0022449298,-0.002221106,-0.04518149420619011,0.03379664942622185,-1.296418309211731,1000.93945,
2021.05.22 14:58:49,11.0,24.0,25.98,5.04,-36.42,-0.30886146,0.44054657,9.998491,-0.01776335,0.0026419922,-0.008940623,-0.044011857360601425,0.030880987644195557,-1.3084204196929932,1000.9292,
2021.05.22 14:58:49,11.0,24.0,25.92,4.92,-36.36,-0.24182175,0.46209505,9.941029,5.6260685E-4,1.9853121E-4,0.008163603,-0.04643647000193596,0.024320831522345543,-1.3117942810058594,1000.9292,
2021.05.22 14:58:49,11.0,24.0,25.859999,5.22,-36.66,-0.31843856,0.43815228,9.933846,-0.007989507,-0.004077526,2.2235495E-4,-0.04405584558844566,0.032044943422079086,-1.2994060516357422,1000.92676,
2021.05.22 14:58:49,11.0,24.0,25.439999,5.46,-36.239998,-0.25858167,0.45491222,9.984126,-0.008600371,-0.0052992557,-0.0016102408,-0.04551681503653526,0.02589349076151848,-1.2874208688735962,1000.9236,
2021.05.22 14:58:49,11.0,24.0,24.9,5.3399997,-36.54,-0.3232271,0.4764607,9.960183,-0.0018808541,-0.0071318517,-0.010162354,-0.047774992883205414,0.032440539449453354,-1.279104471206665,1000.9236,
2021.05.22 14:58:49,11.0,24.0,25.14,5.58,-36.719997,-0.3328042,0.44054657,10.0439825,-0.014709025,-0.0071318517,-0.0028319713,-0.04380963370203972,0.03312256559729576,-1.2776004076004028,1000.928,
2021.05.22 14:58:49,11.0,24.0,25.199999,5.64,-36.899998,-0.21787901,0.46209505,10.017646,-0.014709025,-0.01873829,-0.0016102408,-0.04608454927802086,0.021746093407273293,-1.2777880430221558,1000.928,
2021.05.22 14:58:49,11.0,24.0,24.66,5.52,-37.02,-0.21548474,0.46209505,9.943423,0.01033645,-0.007742717,0.008163603,-0.0464281365275383,0.021667690947651863,-1.275460958480835,1000.92505,
2021.05.22 14:58:49,11.0,24.0,25.26,5.8799996,-36.899998,-0.3615355,0.41181526,9.955395,0.0042277984,-0.0065209866,-0.010162354,-0.041315268725156784,0.036299582570791245,-1.2692123651504517,1000.92505,
2021.05.22 14:58:50,11.0,24.0,24.84,5.58,-36.78,-0.3328042,0.45970076,9.955395,0.010947316,8.0939644E-4,-0.0119949505,-0.046117544174194336,0.03341708704829216,-1.270506739616394,1000.9243,
2021.05.22 14:58:50,11.0,24.0,25.019999,5.2799997,-36.899998,-0.32083282,0.43575802,9.972155,-0.001269989,-0.0022449298,-0.002221106,-0.04364714398980141,0.03216177225112915,-1.288098692893982,1000.9236,
2021.05.22 14:58:50,11.0,24.0,25.5,5.64,-36.6,-0.21548474,0.45012367,9.883567,0.0017843375,0.0026419922,0.014272256,-0.045500390231609344,0.02179887145757675,-1.2825024127960205,1000.9236,
2021.05.22 14:58:50,11.0,24.0,24.96,5.4,-36.66,-0.3304099,0.4285752,9.938635,0.005449529,1.9853121E-4,0.011828794,-0.043071676045656204,0.033232759684324265,-1.2836014032363892,1000.92017,
2021.05.22 14:58:50,11.0,24.0,25.32,5.04,-37.02,-0.2681588,0.43575802,9.955395,-0.0061569107,0.011194105,-0.0058862977,-0.04372727870941162,0.026929516345262527,-1.3025710582733154,1000.92017,
2021.05.22 14:58:50,11.0,24.0,24.96,5.04,-36.84,-0.20111908,0.4644893,9.964972,-0.0024917193,0.006918049,-0.002221106,-0.04656902328133583,0.02017986588180065,-1.2980409860610962,1000.92065,
2021.05.22 14:58:50,11.0,24.0,24.779999,4.92,-37.079998,-0.33759275,0.43815228,10.005674,-0.007989507,-0.0046883905,-0.010162354,-0.043737564235925674,0.03372733294963837,-1.2982676029205322,1000.9087,
2021.05.22 14:58:50,11.0,24.0,25.26,4.8599997,-36.96,-0.2753416,0.43336374,10.046377,-0.0018808541,0.007528914,-0.002221106,-0.04309343174099922,0.027400193735957146,-1.3096742630004883,1000.9087,
2021.05.22 14:58:50,11.0,24.0,25.56,5.1,-36.6,-0.31604427,0.48843205,9.809344,-0.005546046,0.0014202617,-0.008329758,-0.04972568154335022,0.03220755234360695,-1.2928553819656372,1000.91113,
2021.05.22 14:58:50,11.0,24.0,25.8,5.2799997,-36.84,-0.3519584,0.41420954,9.962578,-0.009211237,0.005085453,-0.010162354,-0.04152673855423927,0.035313356667757034,-1.2983025312423706,1000.91943,
2021.05.22 14:58:50,11.0,24.0,25.92,4.8599997,-36.899998,-0.2777359,0.42618093,10.082292,-0.01654162,-0.0071318517,-0.0040537016,-0.042229101061820984,0.0275399349629879,-1.3175370693206787,1000.91943,
2021.05.22 14:58:50,11.0,24.0,25.68,4.98,-37.079998,-0.17717634,0.50040346,9.90272,0.008503855,0.013026701,0.01610485,-0.0504809133708477,0.017889775335788727,-1.3028346300125122,1000.91943,
2021.05.22 14:58:50,11.0,24.0,25.199999,5.3399997,-37.44,-0.38308397,0.42139238,10.015251,0.0060603945,0.007528914,-0.0040537016,-0.04201957583427429,0.03823142126202583,-1.286222219467163,1000.91943,
2021.05.22 14:58:50,11.0,24.0,25.199999,5.52,-37.32,-0.36871833,0.4189981,9.914692,0.01033645,0.005085453,-0.011384085,-0.0422060489654541,0.03717195242643356,-1.27974534034729,1000.9155,
2021.05.22 14:58:50,11.0,24.0,25.68,5.58,-37.62,-0.37111259,0.41420954,10.077502,-0.0049351803,-0.008353583,-0.0077188932,-0.041051484644412994,0.03680921718478203,-1.2841260433197021,1000.91455,
2021.05.22 14:58:50,11.0,24.0,26.279999,5.58,-37.32,-0.32083282,0.5147691,9.957788,0.015223373,0.00936151,0.008774469,-0.05162240192294121,0.032208144664764404,-1.278550624847412,1000.91455,
2021.05.22 14:58:51,11.0,24.0,26.64,5.3399997,-36.96,-0.4070267,0.44294083,10.00328,0.00911472,0.014859296,0.01243966,-0.044214118272066116,0.040666889399290085,-1.2984291315078735,1000.9082,
2021.05.22 14:58:51,11.0,24.0,26.82,5.58,-37.02,-0.30886146,0.39505535,10.051166,0.01033645,0.0014202617,0.0051092766,-0.039265695959329605,0.030719254165887833,-1.3023844957351685,1000.9082,
2021.05.22 14:58:51,11.0,24.0,26.4,5.52,-36.6,-0.25139886,0.4740664,9.8237095,0.020110294,0.013026701,0.015493986,-0.0482042096555233,0.025585448369383812,-1.2911795377731323,1000.905,
2021.05.22 14:58:51,11.0,24.0,25.74,5.2799997,-37.26,-0.36632404,0.4668836,9.996098,0.0017843375,0.0014202617,0.0014440855,-0.04664140194654465,0.03663031384348869,-1.2889026403427124,1000.9114,
2021.05.22 14:58:51,11.0,24.0,25.32,5.3399997,-37.62,-0.37350687,0.45251793,9.93624,0.003616933,0.0044745877,-0.0058862977,-0.04547864943742752,0.037572670727968216,-1.282409429550171,1000.9114,
2021.05.22 14:58:51,11.0,24.0,24.96,4.8599997,-36.96,-0.36632404,0.45970076,9.984126,-0.0018808541,-0.007742717,0.0038875462,-0.045979779213666916,0.036674194037914276,-1.2981828451156616,1000.92505,
2021.05.22 14:58:51,11.0,24.0,25.199999,5.16,-37.32,-0.38308397,0.4932206,9.871595,0.0048386636,0.0038637226,0.0026658159,-0.0498846136033535,0.03878723084926605,-1.2815958261489868,1000.92505,
2021.05.22 14:58:51,11.0,24.0,25.08,4.92,-36.84,-0.45251793,0.45970076,10.065532,-0.0024917193,0.0014202617,0.0069418726,-0.04559309035539627,0.044926926493644714,-1.2941629886627197,1000.92114,
2021.05.22 14:58:51,11.0,24.0,25.32,4.74,-36.96,-0.33519846,0.47885495,10.039194,-0.015930755,0.0044745877,-0.0028319713,-0.047635916620492935,0.033376581966876984,-1.3057588338851929,1000.92114,
2021.05.22 14:58:51,11.0,24.0,25.74,4.62,-37.5,-0.07901107,0.54350036,9.972155,0.0060603945,-0.019960022,0.051535033,-0.05444622412323952,0.007923003286123276,-1.3145893812179565,1000.92114,
2021.05.22 14:58:51,11.0,24.0,25.5,4.38,-37.079998,-0.28970724,0.505192,9.778218,0.005449529,0.008139779,-0.008940623,-0.05159653723239899,0.02961915172636509,-1.3170793056488037,1000.9265,
2021.05.22 14:58:51,11.0,24.0,25.68,4.56,-37.079998,-0.339987,0.4070267,10.0200405,0.0017843375,0.002031127,-0.0119949505,-0.04057561233639717,0.03391769155859947,-1.326092004776001,1000.9265,
2021.05.22 14:58:51,11.0,24.0,25.68,4.7999997,-37.079998,-0.31843856,0.47885495,9.90272,-0.012876429,-0.010186179,-0.005275432,-0.048293337225914,0.03214559704065323,-1.3065096139907837,1000.9287,
2021.05.22 14:58:51,11.0,24.0,25.619999,4.7999997,-36.84,-0.30167863,0.47167215,9.979338,-0.023872003,-0.010797042,0.0057201423,-0.047208189964294434,0.03022112138569355,-1.3087894916534424,1000.9287,
2021.05.22 14:58:51,11.0,24.0,25.68,5.04,-37.02,-0.30886146,0.46927786,10.077502,-0.034867577,0.00936151,0.0032766813,-0.0465114563703537,0.03063902072608471,-1.300735592842102,1000.92505,
2021.05.22 14:58:51,11.0,24.0,25.32,5.22,-37.079998,-0.1987248,0.51955765,9.694419,-0.02936979,0.01974622,2.2235495E-4,-0.05353103205561638,0.02049601823091507,-1.2846747636795044,1000.9226,
2021.05.22 14:58:51,11.0,24.0,25.38,5.2799997,-36.48,-0.2753416,0.4166038,10.015251,-0.06357824,0.03746131,-0.021157928,-0.04155729338526726,0.027485309168696404,-1.2979240417480469,1000.9226,
2021.05.22 14:58:52,11.0,24.0,25.08,5.3399997,-36.54,-0.3423813,0.37829542,9.953,-0.006767776,0.011194105,-0.0077188932,-0.03796745836734772,0.034386247396469116,-1.294342041015625,1000.92065,
2021.05.22 14:58:52,11.0,24.0,25.26,5.58,-36.78,-0.102953814,0.3615355,9.984126,-0.031813253,0.017302757,2.2235495E-4,-0.03619329258799553,0.010311384685337543,-1.2996386289596558,1000.91406,
2021.05.22 14:58:52,11.0,24.0,25.56,5.64,-36.36,-0.7829279,0.6344828,9.371192,-0.0049351803,0.030130928,-9.993755E-4,-0.0673685073852539,0.08335266262292862,-1.2201318740844727,1000.91406,
2021.05.22 14:58:52,11.0,24.0,25.26,5.52,-36.899998,0.090982445,0.39266106,11.030424,-0.09534324,-0.14213307,0.010607065,-0.035581767559051514,-0.008248130790889263,-1.3100183010101318,1000.9136,
