Time,X-cord,Y-cord,Mag_x,Mag_y,Mag_z,Acc_x,Acc_y,Acc_z,Gyro_x,Gyro_y,Gyro_z,Orn_x,Orn_y,Orn_z,Pressure,
2021.01.16 15:48:14,25.0,24.0,31.019592,7.9644156,-34.02402,-0.033058446,0.77985746,10.027951,-0.0055493773,0.0741094,-0.042493302,-0.07761174440383911,0.0032966183498501778,-1.2408002614974976,1013.2204,
2021.01.16 15:48:14,25.0,24.0,29.924492,9.158551,-35.34024,0.032541554,0.669147,9.486248,-0.0707053,-0.050108373,-0.049470272,-0.07042157649993896,-0.003430379321798682,-1.2019044160842896,1013.2204,
2021.01.16 15:48:14,25.0,24.0,30.56044,8.899295,-34.9451,-0.05638318,0.60223603,9.836888,-0.044602737,-0.02192641,-0.0029082024,-0.061144888401031494,0.005731747951358557,-1.2223498821258545,1013.2204,
2021.01.16 15:48:14,25.0,24.0,30.751259,7.3559685,-35.504692,-0.016674463,0.6141134,9.701952,-0.037608147,-0.02526225,0.005583276,-0.06321349740028381,0.0017186691984534264,-1.2680062055587769,1013.22046,
2021.01.16 15:48:14,25.0,24.0,30.810493,7.9374666,-34.345596,0.08173352,0.5754273,9.769421,-0.024519248,-0.022197098,0.026225522,-0.058830827474594116,-0.008366065099835396,-1.2617655992507935,1013.22046,
2021.01.16 15:48:14,25.0,24.0,30.270401,7.631405,-34.333595,0.07620194,0.5645687,9.758796,-0.013259644,-0.023584802,0.013742067,-0.05778612196445465,-0.007808380294591188,-1.266573429107666,1013.22046,
2021.01.16 15:48:14,25.0,24.0,30.142952,8.7232685,-34.247604,0.05802715,0.57119495,9.822169,-0.0065007876,0.0138427485,0.009924642,-0.05808721110224724,-0.005907704588025808,-1.2321925163269043,1013.22046,
2021.01.16 15:48:14,25.0,24.0,31.235313,8.339638,-35.278465,0.10504206,0.5670453,9.732093,0.011476383,0.005758085,0.007445041,-0.05819631740450859,-0.010792949236929417,-1.254189372062683,1013.22046,
2021.01.16 15:48:14,25.0,24.0,31.604126,7.700468,-35.121246,0.10936475,0.58501756,9.773773,0.010176454,7.8020315E-4,-0.0030093866,-0.0597807914018631,-0.011189146898686886,-1.2746080160140991,1013.22046,
2021.01.16 15:48:14,25.0,24.0,30.941925,8.26408,-35.047237,0.006576719,0.5844554,9.750264,0.010914974,0.0043978207,-0.018743493,-0.05987086519598961,-6.745169521309435E-4,-1.248370885848999,1013.22046,
2021.01.16 15:48:14,25.0,24.0,31.366089,7.6611834,-34.623524,0.07462966,0.58953196,9.713782,0.012035714,-8.820888E-5,-0.0045499527,-0.06061412766575813,-0.0076827118173241615,-1.272378921508789,1013.22046,
2021.01.16 15:48:15,25.0,24.0,30.735466,9.224637,-34.254795,0.005111339,0.5729025,9.715034,-0.0040265718,2.127807E-4,-6.859186E-4,-0.058902494609355927,-5.261267069727182E-4,-1.2208446264266968,1013.2205,
2021.01.16 15:48:15,25.0,24.0,30.449112,9.619273,-35.327263,0.078021675,0.5984699,9.817649,-0.0024305345,-0.007984914,0.018446332,-0.060881320387125015,-0.007946916855871677,-1.2059690952301025,1013.22064,
2021.01.16 15:48:15,25.0,24.0,31.103424,7.506609,-33.88525,0.118335694,0.63413763,9.748592,0.007604379,-0.004666949,0.00708884,-0.06495286524295807,-0.012138149701058865,-1.2731852531433105,1013.22064,
2021.01.16 15:48:15,25.0,24.0,30.859116,9.730539,-35.065224,-0.015386098,0.5921921,9.813811,0.012488381,-0.0059214155,-0.0033249748,-0.060269568115472794,0.0015677991323173046,-1.2041842937469482,1013.22064,
2021.01.16 15:48:15,25.0,24.0,29.295868,9.432701,-35.715347,0.046463538,0.5955505,9.681732,0.020290228,-0.0010537765,0.015439091,-0.06143468618392944,-0.004799056798219681,-1.1957944631576538,1013.22064,
2021.01.16 15:48:15,25.0,24.0,30.25991,9.412495,-34.334724,0.067082755,0.5954606,9.788898,0.008529798,-0.009026678,0.009223717,-0.06075390800833702,-0.006852834951132536,-1.2111133337020874,1013.22064,
2021.01.16 15:48:15,25.0,24.0,32.182266,9.249524,-35.25391,0.027958825,0.5744357,9.616043,-0.010716898,-0.014100747,0.019231537,-0.05966606363654137,-0.002907510381191969,-1.2332919836044312,1013.22046,
2021.01.16 15:48:15,25.0,24.0,31.164665,7.9752235,-34.908714,0.05354583,0.6149903,9.873248,0.014027355,-0.0027099987,0.02125337,-0.06220727041363716,-0.0054232715629041195,-1.2585983276367188,1013.21985,
2021.01.16 15:48:15,25.0,24.0,30.255363,8.492084,-36.6211,0.062157307,0.57277185,9.80465,0.008714612,-0.011400874,0.007731569,-0.05835089832544327,-0.0063394890166819096,-1.236120343208313,1013.2178,
2021.01.16 15:48:15,25.0,24.0,31.661903,7.765005,-34.7552,0.13402803,0.62240607,9.720111,0.014842145,-0.0060931626,0.020329246,-0.06393945962190628,-0.013787860982120037,-1.2707884311676025,1013.2177,
2021.01.16 15:48:15,25.0,24.0,30.074211,8.321843,-35.00269,0.11526809,0.6384847,9.774913,0.017170057,-0.005050224,0.005196478,-0.06522153317928314,-0.011791691184043884,-1.2372666597366333,1013.2177,
2021.01.16 15:48:15,25.0,24.0,30.474396,7.9544754,-35.08127,0.090820305,0.6230248,9.7317,0.017413713,-0.010853546,0.0041967295,-0.06393011659383774,-0.009332149289548397,-1.2521356344223022,1013.2177,
2021.01.16 15:48:15,25.0,24.0,31.134819,8.079156,-36.141994,0.09251359,0.61841965,9.6734085,0.015482452,-0.009595507,0.008703177,-0.06384006887674332,-0.00956341065466404,-1.2531590461730957,1013.2177,
2021.01.16 15:48:15,25.0,24.0,31.150894,7.0212145,-35.796543,0.10382237,0.66254574,9.741657,0.0033933292,-0.011376181,0.012282038,-0.06790319085121155,-0.010657164268195629,-1.2807360887527466,1013.2177,
2021.01.16 15:48:16,25.0,24.0,30.170784,7.0281305,-35.08651,0.12205108,0.66491175,9.777705,0.012109674,0.0012743754,0.0048389807,-0.06789303570985794,-0.012481940910220146,-1.2738155126571655,1013.21844,
2021.01.16 15:48:16,25.0,24.0,29.951073,6.752965,-34.652515,0.114661,0.69129497,9.734802,0.008445896,-0.007873801,0.0026932484,-0.07088883966207504,-0.011777917854487896,-1.2775835990905762,1013.2193,
2021.01.16 15:48:16,25.0,24.0,28.64981,8.948162,-36.041855,0.11256998,0.67222214,9.765751,0.0141786635,0.0029226635,0.005952835,-0.0687216967344284,-0.011526506394147873,-1.1976146697998047,1013.2193,
2021.01.16 15:48:16,25.0,24.0,30.216385,8.357728,-35.561134,0.102498956,0.68462616,9.728356,0.008335308,-6.2595715E-4,0.002815045,-0.07025456428527832,-0.010535712353885174,-1.2310776710510254,1013.2193,
2021.01.16 15:48:16,25.0,24.0,32.06215,7.914654,-36.337997,0.097688496,0.6660684,9.721248,0.0035100442,0.0019895728,0.008418544,-0.06840640306472778,-0.01004862878471613,-1.261608362197876,1013.2195,
2021.01.16 15:48:16,25.0,24.0,30.166534,7.73868,-34.94175,0.10375597,0.6744092,9.696799,2.3562647E-4,0.0043073776,0.008099859,-0.06943389028310776,-0.010699613951146603,-1.2507519721984863,1013.2195,
2021.01.16 15:48:16,25.0,24.0,30.265457,7.211836,-35.194347,0.1086267,0.66453975,9.709081,-0.005711284,0.0014627521,0.011154784,-0.06833432614803314,-0.011187688447535038,-1.2680766582489014,1013.2202,
2021.01.16 15:48:16,25.0,24.0,31.212303,7.819538,-35.325928,0.17183948,0.68918365,9.76639,-0.00932448,0.007807154,0.002751363,-0.07043922692537308,-0.01759316772222519,-1.2593235969543457,1013.2207,
2021.01.16 15:48:16,25.0,24.0,30.551514,7.7817335,-34.66585,0.10967249,0.6539755,9.717342,-0.0040778876,0.010623428,-0.010218164,-0.06719423085451126,-0.011285783722996712,-1.256192922592163,1013.2207,
2021.01.16 15:48:16,25.0,24.0,30.064041,7.6125374,-35.859978,0.094524525,0.64869857,9.73602,-0.007988617,0.006636897,-0.0074933777,-0.06652725487947464,-0.009708438999950886,-1.2542881965637207,1013.22076,
2021.01.16 15:48:16,25.0,24.0,30.401413,6.801937,-35.181618,0.13654481,0.65983385,9.786704,-0.0073093236,0.006311298,-0.0036404775,-0.0673130452632904,-0.013951168395578861,-1.2835805416107178,1013.22076,
2021.01.16 15:48:16,25.0,24.0,31.12281,6.9868803,-35.52331,0.10632711,0.650423,9.7520485,-0.0030491077,0.002509188,-0.013808056,-0.0665934607386589,-0.010902621783316135,-1.283418893814087,1013.22076,
2021.01.16 15:48:16,25.0,24.0,30.97474,8.657523,-34.931824,0.051253006,0.64304906,9.795229,0.003719724,0.006215282,-0.009802179,-0.06555423885583878,-0.005232398398220539,-1.2337902784347534,1013.22076,
2021.01.16 15:48:16,25.0,24.0,30.596718,7.62675,-34.590176,0.100466914,0.6325974,9.696899,0.0110845305,8.1514637E-4,-0.003344337,-0.06514128297567368,-0.010360355488955975,-1.2629591226577759,1013.22076,
2021.01.16 15:48:17,25.0,24.0,31.360626,8.170831,-34.456486,0.10396427,0.6435104,9.780539,0.0023378283,-0.0013746072,0.0033995137,-0.0656965970993042,-0.01062930840998888,-1.2542119026184082,1013.2207,
2021.01.16 15:48:17,25.0,24.0,31.284477,7.787134,-36.00426,0.08061952,0.63058066,9.67769,0.005278498,0.008646732,-0.003684246,-0.0650639533996582,-0.008330258540809155,-1.2614409923553467,1013.2207,
2021.01.16 15:48:17,25.0,24.0,30.794754,6.9639645,-36.03872,0.054311756,0.6407519,9.783999,-0.0045337477,-0.0042358027,0.0046946583,-0.06539537757635117,-0.005551022011786699,-1.279497742652893,1013.22064,
2021.01.16 15:48:17,25.0,24.0,31.583145,6.7003717,-36.48789,0.14185451,0.6540361,9.7257,0.0039967922,0.003635691,0.010160822,-0.06714001297950745,-0.0145844966173172,-1.2945928573608398,1013.2202,
2021.01.16 15:48:17,25.0,24.0,29.6622,6.9357166,-36.535065,0.070904225,0.643734,9.780758,0.0031299677,2.287314E-4,-0.004591749,-0.0657198578119278,-0.007249231915920973,-1.269313931465149,1013.2195,
2021.01.16 15:48:17,25.0,24.0,30.424683,7.479048,-35.788445,0.08341644,0.65416735,9.737251,0.010560208,0.0025260174,0.0033195224,-0.06707867980003357,-0.008566523902118206,-1.260802149772644,1013.2193,
2021.01.16 15:48:17,25.0,24.0,31.044098,7.265318,-34.38236,0.08569121,0.65834236,9.71336,0.011713785,0.0022902563,-0.002984481,-0.06767086684703827,-0.008821766823530197,-1.2749221324920654,1013.2193,
2021.01.16 15:48:17,25.0,24.0,29.697441,6.652997,-34.686897,0.052553665,0.634914,9.781011,0.0069425013,-0.006859273,-0.0033213012,-0.0648210421204567,-0.005372978746891022,-1.2820892333984375,1013.21924,
2021.01.16 15:48:17,25.0,24.0,29.942192,8.229562,-34.643272,0.13708507,0.67645377,9.73091,0.009710174,0.0018694573,-0.016497754,-0.06939747184515,-0.014086658135056496,-1.2360854148864746,1013.2188,
2021.01.16 15:48:17,25.0,24.0,30.93946,7.7212524,-34.408356,-0.004219778,0.6485384,9.759132,0.012454061,0.004159164,0.006393281,-0.06635694205760956,4.323927278164774E-4,-1.258431077003479,1013.21844,
2021.01.16 15:48:17,25.0,24.0,30.857224,7.8080597,-35.648937,0.05068426,0.6614407,9.715607,-0.004080434,0.011113504,-0.002468673,-0.06797441095113754,-0.005216740537434816,-1.2533189058303833,1013.21796,
2021.01.16 15:48:17,25.0,24.0,30.690292,7.904813,-34.51942,0.043697894,0.6645303,9.782752,-0.008659529,0.008360384,0.001857534,-0.06782389432191849,-0.0044668009504675865,-1.2509325742721558,1013.2179,
2021.01.16 15:48:17,25.0,24.0,31.87693,8.712119,-34.924225,0.07078125,0.67499113,9.712932,-3.8760155E-4,0.0124238385,0.0028901296,-0.06938067823648453,-0.0072871926240623,-1.238275170326233,1013.2177,
2021.01.16 15:48:17,25.0,24.0,31.228249,8.499331,-34.474667,0.041940138,0.659296,9.722786,-0.0061127846,0.0060178004,-1.81315E-4,-0.06770509481430054,-0.004313565790653229,-1.2392065525054932,1013.2177,
2021.01.16 15:48:18,25.0,24.0,29.649254,7.2071743,-34.633976,0.034754116,0.6584392,9.797139,-0.008012325,0.004624758,0.0017143539,-0.06710595637559891,-0.003547359025105834,-1.2617250680923462,1013.217,
2021.01.16 15:48:18,25.0,24.0,30.349106,8.301826,-35.93892,0.07986568,0.67733854,9.7253065,-0.0014543361,-0.0027522137,-0.0041518332,-0.06953238695859909,-0.008211965672671795,-1.233070969581604,1013.2163,
2021.01.16 15:48:18,25.0,24.0,30.633163,8.141663,-34.68922,0.04125234,0.65670604,9.768529,0.0037468572,-0.0038827858,-0.00277375,-0.067125104367733,-0.004222958814352751,-1.243744969367981,1013.2163,
2021.01.16 15:48:18,25.0,24.0,30.686943,7.495805,-34.467842,0.056701433,0.6428532,9.658111,0.013688762,6.558339E-5,-0.0055931453,-0.06646179407835007,-0.005870794411748648,-1.2648582458496094,1013.2168,
2021.01.16 15:48:18,25.0,24.0,30.024025,7.1140766,-34.789425,0.0030147005,0.67174006,9.80719,-0.0033969902,0.0069382903,-0.011170307,-0.06838783621788025,-3.0739695648662746E-4,-1.2652357816696167,1013.217,
2021.01.16 15:48:18,25.0,24.0,30.30906,8.412579,-36.04032,-0.009715592,0.66107464,9.668583,0.0057519358,0.008564549,-0.0072184713,-0.06826719641685486,0.001004861667752266,-1.226548433303833,1013.217,
2021.01.16 15:48:18,25.0,24.0,30.44902,7.7555075,-35.298573,-0.03705043,0.6153311,9.803475,-0.010247648,-0.0055962866,-0.0013067676,-0.06268394738435745,0.0037792976945638657,-1.253400206565857,1013.217,
2021.01.16 15:48:18,25.0,24.0,29.53537,7.375638,-34.27734,0.06079259,0.664551,9.699653,-0.003607794,0.0042815683,0.013563503,-0.06840462982654572,-0.006267420016229153,-1.2559574842453003,1013.217,
2021.01.16 15:48:18,25.0,24.0,30.114204,7.6146107,-35.28028,0.021109486,0.652576,9.762862,-0.010204976,-0.002314468,0.004288455,-0.06674325466156006,-0.002162219723686576,-1.2525434494018555,1013.217,
2021.01.16 15:48:18,25.0,24.0,30.162643,7.7724037,-34.68898,0.030173982,0.6455765,9.767032,-0.0055481093,-0.0033619306,0.00510411,-0.06600119173526764,-0.0030893608927726746,-1.250613808631897,1013.217,
2021.01.16 15:48:18,25.0,24.0,30.526344,8.072397,-34.83596,0.03486286,0.6436942,9.696292,-0.003979535,2.0857577E-4,0.002160953,-0.06628791242837906,-0.0035954683553427458,-1.2450062036514282,1013.217,
2021.01.16 15:48:18,25.0,24.0,29.827705,6.993573,-34.164257,-0.02438134,0.6078126,9.774071,-0.01355369,8.261358E-4,-0.0034794505,-0.06210606172680855,0.0024944867473095655,-1.2737219333648682,1013.217,
2021.01.16 15:48:18,25.0,24.0,30.425255,7.397483,-34.648483,0.038753454,0.6318658,9.672109,-0.011285122,0.009168291,0.00647362,-0.0652354285120964,-0.004006701055914164,-1.2654902935028076,1013.217,
2021.01.16 15:48:18,25.0,24.0,30.16732,8.018698,-35.33841,-0.0359033,0.59209114,9.775352,-0.022094639,-0.0044567278,0.0041332277,-0.060495488345623016,0.003672823077067733,-1.2450127601623535,1013.217,
2021.01.16 15:48:19,25.0,24.0,29.48774,7.3486605,-34.6242,0.054691046,0.6354162,9.741313,-0.010172993,-0.0011853608,0.020514596,-0.06513570994138718,-0.005614281632006168,-1.2587171792984009,1013.217,
2021.01.16 15:48:19,25.0,24.0,30.84919,8.745138,-34.660355,-0.04366747,0.5797139,9.788194,-0.015895093,-0.002954747,0.01071376,-0.0591561384499073,0.004461209289729595,-1.232840895652771,1013.217,
2021.01.16 15:48:19,25.0,24.0,30.4608,8.628002,-34.983215,0.083444476,0.6148315,9.774959,0.0016380103,0.005734484,0.030697066,-0.06281359493732452,-0.00853634811937809,-1.2333931922912598,1013.217,
2021.01.16 15:48:19,25.0,24.0,31.55436,8.212498,-33.562996,0.12094226,0.6209029,9.822015,8.6619635E-4,-0.0065972283,0.00897179,-0.06312665343284607,-0.01231276337057352,-1.2593940496444702,1013.217,
2021.01.16 15:48:19,25.0,24.0,31.407265,8.587498,-33.79505,0.075812854,0.6117582,9.740247,0.027212905,-0.0017845804,-0.0028432938,-0.06272296607494354,-0.007783306296914816,-1.2457213401794434,1013.217,
2021.01.16 15:48:19,25.0,24.0,31.353363,7.7892694,-34.265762,0.032687776,0.5784001,9.749314,0.016449008,-0.010405332,-0.020502247,-0.059257470071315765,-0.003352815518155694,-1.2689279317855835,1013.217,
2021.01.16 15:48:19,25.0,24.0,30.834457,6.9924364,-35.153194,0.07484687,0.6345607,9.706297,0.021806745,-0.0025373828,-0.015563816,-0.06528135389089584,-0.007711013779044151,-1.2815885543823242,1013.217,
2021.01.16 15:48:19,25.0,24.0,31.583305,8.970339,-34.689922,1.0448322E-4,0.593576,9.677817,0.007096595,-0.0063799303,-0.034156978,-0.061256930232048035,-1.0796155038406141E-5,-1.2334765195846558,1013.217,
2021.01.16 15:48:19,25.0,24.0,31.469666,8.976407,-34.358345,-0.011771577,0.6496789,9.6674185,-0.005532424,0.004459338,-0.021686848,-0.06710199266672134,0.0012176540913060308,-1.2266908884048462,1013.217,
2021.01.16 15:48:19,25.0,24.0,29.71698,8.414144,-35.332806,0.01208933,0.64744854,9.773822,-0.016900364,0.0047410224,-0.024703642,-0.06614644080400467,-0.0012369086034595966,-1.2247973680496216,1013.217,
2021.01.16 15:48:19,25.0,24.0,31.141548,7.7183266,-34.65328,-0.0013251739,0.6576633,9.689685,-0.009995488,0.007340494,-0.018850956,-0.06776858121156693,1.3676130038220435E-4,-1.2586561441421509,1013.217,
2021.01.16 15:48:19,25.0,24.0,30.673294,7.6221056,-35.668343,-0.0923591,0.64220786,9.845025,-0.019922879,0.0021774792,-0.013567608,-0.06513657420873642,0.009381022304296494,-1.2539846897125244,1013.217,
2021.01.16 15:48:19,25.0,24.0,31.083511,8.608245,-34.743965,0.06008327,0.6386268,9.730174,-0.0013285615,0.002868873,0.008909633,-0.06553839892148972,-0.006174864247441292,-1.2370142936706543,1013.2173,
2021.01.16 15:48:19,25.0,24.0,30.247856,7.943145,-35.049828,0.012254886,0.6563964,9.786361,-0.0016136509,0.0051871864,-0.0061577065,-0.06697220355272293,-0.0012522408505901694,-1.2439687252044678,1013.2173,
2021.01.16 15:48:19,25.0,24.0,30.219734,7.6148653,-34.91317,-0.026664509,0.60460246,9.718848,0.004812627,-0.001375673,0.0017982102,-0.06212896853685379,0.002743580611422658,-1.2570812702178955,1013.21765,
2021.01.16 15:48:20,25.0,24.0,30.69432,7.791046,-34.351566,0.030935725,0.614363,9.713626,0.0025671907,0.0055895145,0.0064066644,-0.06316309422254562,-0.003184765577316284,-1.2587246894836426,1013.2192,
2021.01.16 15:48:20,25.0,24.0,30.023613,7.9528637,-34.72611,0.04381648,0.61566687,9.790234,-0.011116879,-0.006014309,3.5163993E-4,-0.06280249357223511,-0.004475499968975782,-1.2475968599319458,1013.2192,
2021.01.16 15:48:20,25.0,24.0,30.90094,7.6695824,-35.167282,-4.4994018E-4,0.6434943,9.697955,0.005121354,0.0080108205,-0.005813152,-0.06625648587942123,4.6395369281526655E-5,-1.2583531141281128,1013.21967,
2021.01.16 15:48:20,25.0,24.0,30.750336,7.799345,-35.3427,0.0047137314,0.5972186,9.794104,-0.008265027,-0.005025887,-0.0038885658,-0.0609019435942173,-4.812825354747474E-4,-1.2584556341171265,1013.22003,
2021.01.16 15:48:20,25.0,24.0,30.768234,7.948797,-34.21291,0.07084995,0.6606608,9.707833,4.4943707E-4,0.0013022758,-0.0013086144,-0.06794782727956772,-0.0072980946861207485,-1.2519787549972534,1013.22003,
2021.01.16 15:48:20,25.0,24.0,30.352097,7.6903086,-35.172974,-0.059609737,0.61770535,9.7705145,-0.0010365956,0.0035175737,-0.01819649,-0.06313617527484894,0.006100906524807215,-1.2532267570495605,1013.22095,
2021.01.16 15:48:20,25.0,24.0,29.874718,7.591284,-34.30337,0.015385137,0.64297575,9.72708,0.0019198066,0.004670783,-0.0017965045,-0.06600550562143326,-0.0015816795639693737,-1.253325343132019,1013.2214,
2021.01.16 15:48:20,25.0,24.0,30.493729,7.8616905,-34.147884,-0.01862033,0.6253378,9.74747,-0.0010278095,-0.0034160805,-0.008581891,-0.06406594812870026,0.0019102708902209997,-1.252223014831543,1013.2215,
2021.01.16 15:48:20,25.0,24.0,30.337578,7.8217993,-35.054756,0.026578138,0.6393927,9.733785,6.434919E-4,-0.002033811,-4.355982E-4,-0.06559350341558456,-0.002730497159063816,-1.2504404783248901,1013.2219,
2021.01.16 15:48:20,25.0,24.0,30.682808,8.5023575,-34.8189,-0.042811703,0.63825697,9.766636,-0.0031552303,-0.0010834818,-0.011466108,-0.06525732576847076,0.004383436404168606,-1.2318437099456787,1013.222,
2021.01.16 15:48:20,25.0,24.0,31.22329,7.923628,-34.727478,0.011353853,0.6343043,9.70482,0.0058669057,0.0058193314,1.5401887E-4,-0.06526684015989304,-0.0011699184542521834,-1.2563170194625854,1013.22345,
2021.01.16 15:48:20,25.0,24.0,31.36901,8.84265,-33.60517,0.0068152356,0.6435204,9.764996,0.001405452,0.002919245,-0.0069579734,-0.06580556929111481,-6.979250465519726E-4,-1.232858657836914,1013.224,
2021.01.16 15:48:20,25.0,24.0,31.313232,7.8849506,-34.32118,-0.040451188,0.6312356,9.744476,-0.0040915087,-0.0016689632,-0.00739006,-0.06468787044286728,0.004151167813688517,-1.2575788497924805,1013.2242,
2021.01.16 15:48:20,25.0,24.0,30.591484,7.5151033,-34.588654,0.01649023,0.6682481,9.728695,0.0019243484,0.0032455418,-0.001075787,-0.06858053803443909,-0.0016950079007074237,-1.2594337463378906,1013.2242,
2021.01.16 15:48:21,25.0,24.0,30.50486,8.094895,-34.928837,-0.024034323,0.61730117,9.762876,-0.0073276823,-0.0061817095,-0.010521216,-0.06314519047737122,0.00246180291287601,-1.2446726560592651,1013.2242,
2021.01.16 15:48:21,25.0,24.0,31.550117,8.87227,-34.603477,-0.013571757,0.65908223,9.711872,3.7380762E-4,-2.9499514E-4,-6.544627E-4,-0.06775960326194763,0.0013974389294162393,-1.229259729385376,1013.22424,
2021.01.16 15:48:21,25.0,24.0,31.321419,7.94258,-35.92597,-0.018765384,0.6317227,9.76835,-0.007266755,-0.0043903543,-0.006092065,-0.06458031386137009,0.0019210370955988765,-1.2539218664169312,1013.2247,
2021.01.16 15:48:21,25.0,24.0,31.208305,8.107696,-34.73702,0.025772423,0.6414094,9.718739,-0.0022630137,6.7206105E-4,-0.0015400457,-0.06590137630701065,-0.0026518218219280243,-1.2508076429367065,1013.2249,
2021.01.16 15:48:21,25.0,24.0,31.472046,8.973459,-34.158745,-0.04463865,0.62389225,9.754505,-0.007006664,-0.0030492991,-0.008766589,-0.06387173384428024,0.00457617687061429,-1.2288899421691895,1013.225,
2021.01.16 15:48:21,25.0,24.0,31.845116,8.037483,-35.129436,0.014703377,0.6234868,9.695876,-0.0113975145,-0.0026102471,-0.0046699992,-0.06421583890914917,-0.001516455551609397,-1.2592557668685913,1013.225,
2021.01.16 15:48:21,25.0,24.0,30.893333,7.729562,-34.615067,-0.003423576,0.6362317,9.720532,1.8923008E-4,0.0028199176,0.0026397998,-0.06535912305116653,3.5220044082961977E-4,-1.2583755254745483,1013.2251,
2021.01.16 15:48:21,25.0,24.0,29.682777,7.9032145,-34.9618,-0.011590742,0.6063297,9.795805,-0.01147259,0.0015189241,-0.0010004211,-0.0618179589509964,0.0011832346208393574,-1.2439016103744507,1013.2251,
2021.01.16 15:48:21,25.0,24.0,30.814926,7.558552,-33.722427,0.046102848,0.64019,9.707082,7.72726E-4,0.0021797987,0.0035571693,-0.06585470587015152,-0.004749367944896221,-1.265792727470398,1013.2252,
2021.01.16 15:48:21,25.0,24.0,30.831024,7.9475756,-34.485165,-0.0054481253,0.6078313,9.77455,-0.0029430615,-0.0017323145,-0.0069311545,-0.06210510805249214,5.573785747401416E-4,-1.2548096179962158,1013.22534,
2021.01.16 15:48:21,25.0,24.0,30.772453,8.471883,-33.879124,-0.003441327,0.6163869,9.706295,4.671265E-4,-0.0011183695,-0.005027237,-0.0634186714887619,3.54545860318467E-4,-1.2388640642166138,1013.22534,
2021.01.16 15:48:21,25.0,24.0,31.338867,8.831987,-35.17638,0.0243399,0.62874955,9.774283,-0.0022783275,-1.6977036E-4,-0.013349572,-0.06423821300268173,-0.0024901926517486572,-1.2322053909301758,1013.22534,
2021.01.16 15:48:21,25.0,24.0,29.653328,7.1868124,-34.792877,-0.04682733,0.613326,9.7165785,-0.0045466227,-0.002174168,0.0046449075,-0.06303723901510239,0.004819286055862904,-1.263001561164856,1013.22534,
2021.01.16 15:48:22,25.0,24.0,29.833519,7.4575768,-34.929058,-0.049935658,0.62531525,9.742295,-0.005607928,0.0016812788,-0.019634198,-0.0640968605875969,0.005125611554831266,-1.2549866437911987,1013.22534,
2021.01.16 15:48:22,25.0,24.0,31.010841,8.91107,-36.032898,-0.060111087,0.60964316,9.781835,-8.0257724E-4,-0.0032660398,0.0020290934,-0.062242332845926285,0.006145097780972719,-1.2234313488006592,1013.22534,
2021.01.16 15:48:22,25.0,24.0,31.900566,6.9330807,-35.148922,0.051618565,0.62921834,9.71909,0.0039398344,-0.0018763768,0.006205944,-0.06464932858943939,-0.005310999229550362,-1.2921873331069946,1013.22534,
2021.01.16 15:48:22,25.0,24.0,30.435356,8.118932,-35.256435,-0.03068841,0.6005714,9.761771,0.002869784,-0.0065154606,-0.0077568344,-0.06144503876566887,0.0031437233556061983,-1.2441176176071167,1013.22546,
2021.01.16 15:48:22,25.0,24.0,29.9141,7.8806295,-35.945644,-0.019455878,0.6556472,9.784046,0.0067566903,-0.001116049,0.001129433,-0.06691169738769531,0.001988528063520789,-1.239341378211975,1013.22546,
2021.01.16 15:48:22,25.0,24.0,30.088364,6.724351,-35.422287,-0.024375036,0.59476984,9.689907,0.008616861,-0.009680726,0.0022559217,-0.061303235590457916,0.002515502506867051,-1.2828067541122437,1013.22546,
2021.01.16 15:48:22,25.0,24.0,30.66349,8.528862,-34.095093,0.003523757,0.6223228,9.720764,0.0026304726,-9.292321E-4,0.009663699,-0.06393268704414368,-3.6249792901799083E-4,-1.235502004623413,1013.22546,
2021.01.16 15:48:22,25.0,24.0,31.32386,8.692366,-35.261814,-0.0026731032,0.6447185,9.748003,-4.2414386E-4,-0.0013104473,0.008475076,-0.06604234129190445,2.7422059793025255E-4,-1.2329528331756592,1013.22546,
2021.01.16 15:48:22,25.0,24.0,29.538734,7.287895,-34.329563,0.028486235,0.6459256,9.667974,0.0055161216,-0.0026058396,0.009970104,-0.0667114183306694,-0.0029464445542544127,-1.258963942527771,1013.22534,
2021.01.16 15:48:22,25.0,24.0,29.661736,7.3174295,-34.582325,-0.010886057,0.6609749,9.806703,-0.0044185966,-0.0014482589,0.007598342,-0.06729850172996521,0.0011100624687969685,-1.2565314769744873,1013.22534,
2021.01.16 15:48:22,25.0,24.0,30.069923,7.887024,-35.757317,0.048122976,0.6510313,9.745696,0.0066917446,-0.0027125948,0.006278507,-0.06670201569795609,-0.004937829449772835,-1.2442675828933716,1013.22534,
2021.01.16 15:48:22,25.0,24.0,31.023026,6.822195,-34.56339,0.025525013,0.66119236,9.719304,0.0071213497,-2.3178062E-4,-0.0023145787,-0.0679238885641098,-0.002626212080940604,-1.2848715782165527,1013.22534,
2021.01.16 15:48:22,25.0,24.0,30.84298,8.364799,-35.09026,-0.015353951,0.6456869,9.674684,0.004039749,-2.9147073E-4,-0.0043902015,-0.0666409432888031,0.0015870222123339772,-1.2367087602615356,1013.22534,
2021.01.16 15:48:22,25.0,24.0,30.299248,6.8322544,-34.542793,0.022576952,0.66808367,9.755399,-0.00867939,7.998856E-4,0.0015294966,-0.06837654113769531,-0.0023142993450164795,-1.2775938510894775,1013.22534,
2021.01.16 15:48:23,25.0,24.0,30.803146,6.914974,-35.033226,0.057973385,0.69577056,9.755177,-0.0030486241,-0.0035530971,-0.005878018,-0.071201391518116,-0.005942763295024633,-1.2771679162979126,1013.22534,
2021.01.16 15:48:23,25.0,24.0,31.30156,7.898283,-34.798996,-0.024449185,0.6684306,9.770172,-0.0031010655,-0.009553777,-0.015718559,-0.06830877810716629,0.002502426039427519,-1.253213882446289,1013.22534,
2021.01.16 15:48:23,25.0,24.0,30.71444,7.951173,-35.153114,0.013254751,0.6870263,9.760358,0.010126099,0.0029442348,-0.0088901,-0.07027348130941391,-0.0013580182567238808,-1.2448718547821045,1013.22534,
2021.01.16 15:48:23,25.0,24.0,30.216568,8.891775,-34.954903,0.019338036,0.63985044,9.66345,0.0049555665,-0.005148525,-0.013935501,-0.0661168172955513,-0.0020011498127132654,-1.2172361612319946,1013.22534,
2021.01.16 15:48:23,25.0,24.0,30.448189,9.519235,-34.999893,-0.007937445,0.6712248,9.770204,-0.0027990455,-0.0036525442,-0.012498699,-0.06859340518712997,8.124132873490453E-4,-1.1979783773422241,1013.22534,
2021.01.16 15:48:23,25.0,24.0,30.33841,8.213381,-34.439304,0.030274183,0.66609436,9.68084,-0.0015425631,0.0024450473,-0.016508242,-0.06869682669639587,-0.0031272165942937136,-1.2371851205825806,1013.22534,
2021.01.16 15:48:23,25.0,24.0,30.731323,8.615991,-34.920208,-0.04084335,0.65718395,9.800185,-0.010112761,-1.0035618E-4,-0.015970826,-0.0669575035572052,0.004167585633695126,-1.227243185043335,1013.22534,
2021.01.16 15:48:23,25.0,24.0,30.619392,8.048558,-34.91458,-0.009843671,0.6428072,9.674266,-0.0033657763,0.0032769176,-0.008903823,-0.06634750217199326,0.0010175105417147279,-1.2445474863052368,1013.2252,
2021.01.16 15:48:23,25.0,24.0,30.789589,8.856599,-36.002052,0.0022363204,0.6342265,9.803857,-0.014078106,-0.0013132446,-0.0027020527,-0.06460151076316833,-2.2810617520008236E-4,-1.2230970859527588,1013.22504,
2021.01.16 15:48:23,25.0,24.0,30.603897,9.463676,-33.732506,0.030739238,0.6607084,9.69906,-0.004026563,0.0026281956,-0.003520287,-0.068015456199646,-0.0031692900229245424,-1.2060083150863647,1013.225,
2021.01.16 15:48:23,25.0,24.0,29.622955,8.01581,-34.192036,-0.01866401,0.62667227,9.8019285,-0.0075315004,0.0030529439,-0.009076788,-0.06384655833244324,0.0019041139166802168,-1.2389700412750244,1013.22473,
2021.01.16 15:48:23,25.0,24.0,30.871826,8.310117,-36.474724,0.061957017,0.63668984,9.716878,-0.0025937527,0.0015850876,-9.829861E-4,-0.06542925536632538,-0.006376140285283327,-1.2404966354370117,1013.22455,
2021.01.16 15:48:23,25.0,24.0,29.928917,8.067351,-35.287155,-0.02474755,0.65647787,9.770953,-0.00431447,0.002085018,-0.014419962,-0.0670856386423111,0.002532761776819825,-1.2348394393920898,1013.22424,
2021.01.16 15:48:23,25.0,24.0,31.882408,7.5584736,-35.256367,-0.029667383,0.58952075,9.674644,0.001121359,-0.0027874664,-0.0038561088,-0.0608590804040432,0.003066499251872301,-1.274653673171997,1013.22406,
2021.01.16 15:48:24,25.0,24.0,29.750801,8.487971,-35.279247,0.0075560063,0.66872764,9.79025,-0.0010127306,0.0037942766,-0.005819845,-0.068199522793293,-7.717887638136744E-4,-1.220766305923462,1013.224,
2021.01.16 15:48:24,25.0,24.0,31.214455,7.5972004,-34.15195,-0.025605107,0.6458528,9.719671,-0.0052263997,-0.0010245363,0.002630688,-0.06635025143623352,0.0026343532372266054,-1.2642892599105835,1013.22375,
2021.01.16 15:48:24,25.0,24.0,31.129684,8.928668,-35.220486,0.059280563,0.6690807,9.684889,0.0040086946,0.005394052,0.005093158,-0.06897413730621338,-0.0061208573170006275,-1.2241804599761963,1013.2228,
2021.01.16 15:48:24,25.0,24.0,30.955803,8.403237,-34.383087,-0.08301442,0.6132528,9.838128,-0.007737115,-0.0020981776,-0.009873673,-0.06225154176354408,0.008437829092144966,-1.2396652698516846,1013.22266,
2021.01.16 15:48:24,25.0,24.0,31.391998,7.361123,-34.259888,0.05990444,0.6282174,9.63517,0.010981039,0.003212316,0.009494486,-0.06510703265666962,-0.006217189133167267,-1.277005672454834,1013.22235,
2021.01.16 15:48:24,25.0,24.0,31.123077,7.510996,-34.18465,-0.031042531,0.63062567,9.784906,-0.012476039,-7.586618E-4,-0.010427622,-0.06435948610305786,0.003172480734065175,-1.267666220664978,1013.2217,
2021.01.16 15:48:24,25.0,24.0,30.807327,7.6636457,-34.935085,-0.031793013,0.61059123,9.698201,-0.0011883948,0.002852594,9.022758E-4,-0.0628758892416954,0.0032782265916466713,-1.2602566480636597,1013.22064,
2021.01.16 15:48:24,25.0,24.0,30.745865,7.7583427,-35.60915,0.01674279,0.6464365,9.782702,-0.011929368,0.0011183519,-0.0035002267,-0.06598351895809174,-0.0017114670481532812,-1.2544021606445312,1013.22064,
2021.01.16 15:48:24,25.0,24.0,30.634811,7.366396,-34.865135,-0.048563793,0.5983451,9.724932,-0.0089495005,0.00735268,-8.274703E-4,-0.06144869327545166,0.004993699956685305,-1.268387794494629,1013.22064,
2021.01.16 15:48:24,25.0,24.0,31.441154,9.479317,-34.25911,-0.07545215,0.6185081,9.81652,-0.0064332373,0.025092583,-0.010385718,-0.06292182952165604,0.0076860906556248665,-1.2137541770935059,1013.22064,
2021.01.16 15:48:24,25.0,24.0,31.14064,9.195725,-35.28315,-0.1379569,0.59296614,9.747059,0.011260519,0.056663606,-6.50733E-4,-0.0607544407248497,0.014152750372886658,-1.2160873413085938,1013.22064,
2021.01.16 15:48:24,25.0,24.0,31.184273,8.108236,-34.178127,-0.131652,0.65029716,9.798951,0.019947244,0.08162929,0.029955432,-0.06626082211732864,0.013434506952762604,-1.244943618774414,1013.22064,
2021.01.16 15:48:24,25.0,24.0,31.301529,8.754532,-35.00374,0.021242747,0.66676855,9.611747,0.024608323,-6.115261E-4,0.031042937,-0.06925905495882034,-0.0022100782953202724,-1.229344129562378,1013.22064,
2021.01.16 15:48:24,25.0,24.0,31.361938,8.224883,-35.20934,-0.17822702,0.6206756,9.829921,-0.0016611239,-0.0034503138,-0.0063388776,-0.06304742395877838,0.01812908612191677,-1.2425298690795898,1013.22064,
2021.01.16 15:48:25,25.0,24.0,30.742744,7.6350765,-34.7274,-0.100640185,0.6532269,9.682763,-0.0021475896,6.024149E-4,-0.006065513,-0.06735717505216599,0.010393371805548668,-1.2535021305084229,1013.22064,
2021.01.16 15:48:25,25.0,24.0,31.585815,7.300024,-35.25684,-0.08992138,0.6352802,9.751951,0.014943506,-0.021788504,-0.0037770867,-0.06504923850297928,0.009220599196851254,-1.2729709148406982,1013.22064,
