Time,X-cord,Y-cord,Mag_x,Mag_y,Mag_z,Acc_x,Acc_y,Acc_z,Gyro_x,Gyro_y,Gyro_z,Orn_x,Orn_y,Orn_z,Pressure,
2021.01.16 15:57:09,55.0,24.0,29.37716,8.953444,-17.414602,0.07646758,0.5510006,10.38432,-0.16046028,-0.058851708,-0.04807134,-0.053009677678346634,-0.007363621145486832,-1.2485204935073853,1013.3635,
2021.01.16 15:57:09,55.0,24.0,29.290718,9.942249,-18.927876,-0.24560535,1.1048105,9.515721,-0.022439938,0.048328903,-0.053880744,-0.11554805189371109,0.025804752483963966,-1.1716433763504028,1013.3635,
2021.01.16 15:57:09,55.0,24.0,29.084534,8.972673,-17.204504,-0.059687894,0.4734834,9.760528,-0.08132445,-0.044616893,0.06366026,-0.0484711192548275,0.006115156225860119,-1.2445573806762695,1013.3635,
2021.01.16 15:57:09,55.0,24.0,28.000221,9.49647,-17.454247,0.12162459,0.59070694,9.759222,-0.049149882,-0.025309162,0.053844832,-0.06044963747262955,-0.012461883947253227,-1.2141529321670532,1013.3635,
2021.01.16 15:57:09,55.0,24.0,29.07045,9.157663,-17.918932,-0.13962878,0.465922,9.767516,-0.021564811,-0.009161693,-0.005774021,-0.04766017943620682,0.014294245280325413,-1.2360801696777344,1013.3626,
2021.01.16 15:57:09,55.0,24.0,28.975357,9.79266,-16.901861,-0.074032456,0.43355164,9.720417,-9.942844E-4,0.0021497658,0.036250964,-0.04457132890820503,0.007616033777594566,-1.2202978134155273,1013.3626,
2021.01.16 15:57:09,55.0,24.0,28.199028,8.082882,-18.139711,0.13406028,0.54634243,9.831783,-0.0027147904,-0.011006755,0.06013557,-0.055506765842437744,-0.013634552247822285,-1.2625809907913208,1013.3626,
2021.01.16 15:57:09,55.0,24.0,27.438324,8.149063,-18.064852,0.084448524,0.6000307,9.823378,0.023058426,-0.012125528,0.03151697,-0.06100387126207352,-0.008596477098762989,-1.248286247253418,1013.3604,
2021.01.16 15:57:10,55.0,24.0,28.619553,9.661296,-17.110708,-0.027124258,0.41841602,9.709154,0.040434934,1.01705315E-4,0.020808157,-0.043068189173936844,0.002793671330437064,-1.2219390869140625,1013.36017,
2021.01.16 15:57:10,55.0,24.0,28.670403,8.739588,-18.883554,0.16459759,0.5041457,9.728344,0.020559762,-0.013845332,0.04974071,-0.05176863819360733,-0.016917768865823746,-1.2484911680221558,1013.35974,
2021.01.16 15:57:10,55.0,24.0,28.19526,9.123516,-17.399008,0.09189991,0.56114924,9.606826,0.0074494053,-0.007568172,0.019352954,-0.05834255740046501,-0.009565813466906548,-1.2284594774246216,1013.35974,
2021.01.16 15:57:10,55.0,24.0,28.850212,8.062443,-18.397781,0.050956443,0.5820179,9.803056,-0.015839644,-0.03892273,0.03025195,-0.05930066108703613,-0.005197969265282154,-1.265261173248291,1013.35956,
2021.01.16 15:57:10,55.0,24.0,29.45652,9.92599,-18.227633,0.15516095,0.5978453,9.719676,0.0024328001,-0.015575798,0.020932725,-0.06142357364296913,-0.015962237492203712,-1.2166531085968018,1013.35956,
2021.01.16 15:57:10,55.0,24.0,28.485596,9.708712,-17.666998,0.0929963,0.5465367,9.91502,-0.0035061936,-0.016488332,0.0072712293,-0.05506394803524017,-0.009379060007631779,-1.2148497104644775,1013.358,
2021.01.16 15:57:10,55.0,24.0,27.715271,8.621938,-16.871403,0.17813283,0.6245977,9.839111,0.04577114,-0.021135712,-0.014374029,-0.06338569521903992,-0.018102586269378662,-1.2393549680709839,1013.358,
2021.01.16 15:57:10,55.0,24.0,28.298767,9.268819,-17.344986,0.06416201,0.52473384,9.663348,0.020241018,-0.022993922,-0.00703898,-0.05424698442220688,-0.006639630533754826,-1.2265924215316772,1013.358,
2021.01.16 15:57:10,55.0,24.0,28.465729,9.74185,-18.05829,0.04521655,0.5169112,9.608033,0.012886586,-0.0036395178,5.3045223E-4,-0.05374748632311821,-0.0047060842625796795,-1.212507963180542,1013.35876,
2021.01.16 15:57:10,55.0,24.0,28.430237,8.839278,-17.157904,0.090535425,0.61164635,9.832192,-0.012905237,-0.008781571,0.01797658,-0.062125857919454575,-0.009207800962030888,-1.238311767578125,1013.3588,
2021.01.16 15:57:10,55.0,24.0,29.561798,8.175726,-16.02322,0.26792774,0.64725685,9.795058,0.016559998,-0.01587246,0.020247856,-0.06595940887928009,-0.027346540242433548,-1.2743382453918457,1013.35913,
2021.01.16 15:57:10,55.0,24.0,29.055138,8.411094,-19.624779,0.121397436,0.6002793,9.748571,0.024469364,0.0028423897,-0.02717254,-0.06149372458457947,-0.012452200055122375,-1.2547963857650757,1013.3592,
2021.01.16 15:57:10,55.0,24.0,28.060417,7.530678,-19.675156,0.080371656,0.60909677,9.722941,0.033733,0.007025751,-0.003933681,-0.06256143003702164,-0.008265999145805836,-1.2707514762878418,1013.3592,
2021.01.16 15:57:11,55.0,24.0,27.38839,8.682334,-17.931696,0.16950782,0.6538243,9.675696,-0.0032304872,0.0087099075,0.0055049406,-0.06746098399162292,-0.01751713454723358,-1.2294836044311523,1013.3592,
2021.01.16 15:57:11,55.0,24.0,28.77681,8.244726,-17.996553,0.15105505,0.63197637,9.723621,0.0051126867,0.005693265,0.015985461,-0.06489483267068863,-0.01553360652178526,-1.2589596509933472,1013.3592,
2021.01.16 15:57:11,55.0,24.0,28.405197,7.2879295,-18.032862,0.119872175,0.6514217,9.765697,-0.0021449088,0.008919861,0.006418757,-0.06660141795873642,-0.012274203822016716,-1.2837913036346436,1013.3592,
2021.01.16 15:57:11,55.0,24.0,28.434586,8.852069,-17.890419,0.16772698,0.6610741,9.688642,0.0050478997,0.012989532,0.010849292,-0.06811609864234924,-0.01730998419225216,-1.235469102859497,1013.3592,
2021.01.16 15:57:11,55.0,24.0,29.337402,8.071439,-18.090336,0.087758034,0.63021636,9.67587,-0.0056556943,0.010906634,-0.0027039214,-0.06503824889659882,-0.00906953401863575,-1.2680988311767578,1013.3592,
2021.01.16 15:57:11,55.0,24.0,29.298584,8.189567,-19.076094,0.15040036,0.68625695,9.799867,-0.013041266,0.0035562613,9.906951E-4,-0.06990483403205872,-0.015345979481935501,-1.2610224485397339,1013.3592,
2021.01.16 15:57:11,55.0,24.0,28.668976,8.081871,-18.70018,0.10637953,0.6512342,9.685042,-2.0312327E-4,0.016550023,-0.019152496,-0.06713613122701645,-0.01098345685750246,-1.2592805624008179,1013.3592,
2021.01.16 15:57:11,55.0,24.0,29.04937,9.083204,-18.288778,0.054030675,0.63087356,9.763866,-0.0072056134,0.013043336,-0.00688478,-0.06452241539955139,-0.005533681251108646,-1.2331868410110474,1013.3592,
2021.01.16 15:57:11,55.0,24.0,28.857605,9.451017,-17.458433,0.08976147,0.651274,9.736663,-0.0066244565,0.006895385,-0.00867089,-0.0667865127325058,-0.009218653663992882,-1.221248984336853,1013.3588,
2021.01.16 15:57:11,55.0,24.0,28.615402,8.49747,-17.335672,0.074651815,0.653812,9.78925,-0.022860453,0.008806836,0.0013156657,-0.06668779253959656,-0.007625748869031668,-1.2478886842727661,1013.3588,
2021.01.16 15:57:11,55.0,24.0,28.827454,9.048666,-18.147942,0.06340279,0.63507724,9.732845,-0.006491536,0.0022710736,0.001160383,-0.06515718996524811,-0.00651421956717968,-1.2320278882980347,1013.3588,
2021.01.16 15:57:11,55.0,24.0,27.631454,8.11446,-17.622334,0.08390344,0.6287469,9.825772,-0.013306928,0.002658768,0.0057082167,-0.06390011310577393,-0.008538912050426006,-1.250738263130188,1013.3588,
2021.01.16 15:57:11,55.0,24.0,28.101982,7.771514,-18.295053,0.071253635,0.6202027,9.727737,0.0033758578,0.004747306,7.044764E-4,-0.06366823613643646,-0.007324659265577793,-1.2652305364608765,1013.3588,
2021.01.16 15:57:12,55.0,24.0,28.173355,8.50146,-18.023304,0.08469931,0.6633458,9.760453,0.0032681134,-0.0026440588,0.0038362958,-0.06785570085048676,-0.008677586913108826,-1.2413007020950317,1013.3588,
2021.01.16 15:57:12,55.0,24.0,29.209396,8.209995,-17.849827,0.03163198,0.5900929,9.7358055,0.0028141811,-0.0012827123,-0.0057829376,-0.0605362132191658,-0.0032490245066583157,-1.2640842199325562,1013.3588,
2021.01.16 15:57:12,55.0,24.0,28.263885,8.282295,-16.852089,0.091042064,0.64870083,9.677439,2.777205E-4,0.0058588786,0.005962669,-0.06692920625209808,-0.00940738432109356,-1.252239465713501,1013.3588,
2021.01.16 15:57:12,55.0,24.0,29.309952,9.672995,-18.12759,0.022534424,0.62436694,9.835587,-0.010749652,-0.0018307808,-0.0041071037,-0.06339516490697861,-0.002291107317432761,-1.2182841300964355,1013.358,
2021.01.16 15:57:12,55.0,24.0,29.077538,8.143789,-19.634375,0.13493146,0.6254678,9.636947,0.005490379,0.009156087,0.009134992,-0.06480587273836136,-0.014000559225678444,-1.2617155313491821,1013.358,
2021.01.16 15:57:12,55.0,24.0,29.17849,8.146634,-19.511732,0.06984693,0.66261,9.827588,-0.010668899,6.7594036E-4,-0.0068835523,-0.06731986999511719,-0.007107110228389502,-1.259686827659607,1013.3581,
2021.01.16 15:57:12,55.0,24.0,28.163513,8.288237,-18.088224,0.06273245,0.6415985,9.757041,0.0030005577,0.008144102,-0.008250716,-0.06566160172224045,-0.006429365836083889,-1.2484440803527832,1013.3581,
2021.01.16 15:57:12,55.0,24.0,29.307922,8.588911,-18.454111,0.061349064,0.64928013,9.667743,-0.011380068,-5.363476E-4,-0.0059017166,-0.06705739349126816,-0.00634566368535161,-1.249488353729248,1013.3581,
2021.01.16 15:57:12,55.0,24.0,28.775734,7.388137,-18.944677,2.4593746E-5,0.6318095,9.757787,-0.005246203,-0.0017382427,0.004735589,-0.0646589994430542,-2.520422640372999E-6,-1.2804861068725586,1013.3581,
2021.01.16 15:57:12,55.0,24.0,27.555557,9.0338125,-17.548409,0.10669408,0.63889164,9.722358,-0.014353055,0.004250093,-0.011075887,-0.06561537086963654,-0.010973654687404633,-1.220260739326477,1013.3581,
2021.01.16 15:57:12,55.0,24.0,28.894012,8.797289,-17.24074,0.05583131,0.65642715,9.756051,-0.0036994426,-0.0032157223,0.0032276178,-0.06718174368143082,-0.005722674075514078,-1.2410073280334473,1013.3581,
2021.01.16 15:57:12,55.0,24.0,28.014908,8.452166,-17.438997,0.02741916,0.6159602,9.701294,-0.008956903,5.857651E-4,-0.0025700717,-0.06340721249580383,-0.002826332813128829,-1.2432689666748047,1013.3581,
2021.01.16 15:57:12,55.0,24.0,29.49546,6.9920425,-19.777534,0.082056604,0.62785125,9.777423,-0.013716871,5.113338E-4,0.00925207,-0.06412409245967865,-0.008392260409891605,-1.3001588582992554,1013.3581,
2021.01.16 15:57:12,55.0,24.0,28.26326,7.5260525,-19.28756,0.09214448,0.6391147,9.730046,-0.0084839165,-6.8111776E-4,-8.942094E-5,-0.06558749824762344,-0.009469813667237759,-1.2721627950668335,1013.3581,
2021.01.16 15:57:12,55.0,24.0,29.643135,7.5488186,-17.708511,0.0068186,0.5811637,9.79148,-0.0028960176,0.005837251,0.0051180944,-0.05928444862365723,-6.963807973079383E-4,-1.289052963256836,1013.3571,
2021.01.16 15:57:13,55.0,24.0,28.889542,8.46851,-17.948992,0.150412,0.63816035,9.728493,-0.005109751,-2.5266595E-4,-0.018138133,-0.06549539417028427,-0.01545974425971508,-1.252922773361206,1013.357,
2021.01.16 15:57:13,55.0,24.0,28.266373,8.681539,-16.908392,-0.048826355,0.5819699,9.77021,0.045438606,0.02828689,0.014212972,-0.05949471518397331,0.004997430834919214,-1.23993718624115,1013.35675,
2021.01.16 15:57:13,55.0,24.0,27.635857,8.316771,-19.183493,0.18134338,0.6304657,9.570727,0.006542161,-0.006469843,0.014650619,-0.0657675638794899,-0.018945444375276566,-1.2428390979766846,1013.35535,
2021.01.16 15:57:13,55.0,24.0,27.343277,8.554364,-17.345083,-5.9205294E-4,0.64867383,9.833289,-0.01891847,-0.011745308,-0.0044813585,-0.06587168574333191,6.0209044022485614E-5,-1.2306114435195923,1013.3552,
2021.01.16 15:57:13,55.0,24.0,29.00409,7.1254234,-19.734865,0.067004435,0.5755319,9.679381,-0.005710369,-0.0048572677,0.01638556,-0.05938823148608208,-0.006922277621924877,-1.2941938638687134,1013.3536,
2021.01.16 15:57:13,55.0,24.0,28.112,6.8275614,-18.037914,0.20680082,0.6681778,9.787044,-0.024577191,-6.7113887E-4,0.012910941,-0.06815072894096375,-0.021126916632056236,-1.2970377206802368,1013.35284,
2021.01.16 15:57:13,55.0,24.0,28.840042,6.7982845,-18.21732,2.6250756E-4,0.593309,9.756354,-0.005751839,-0.002091256,-0.015740339,-0.06073777377605438,-2.6906314815278165E-5,-1.303708553314209,1013.35156,
2021.01.16 15:57:13,55.0,24.0,28.996902,8.944614,-17.5392,0.06532235,0.5798475,9.732199,-0.0071942224,0.0036272635,0.0014548146,-0.059508636593818665,-0.00671188160777092,-1.241163969039917,1013.3512,
2021.01.16 15:57:13,55.0,24.0,28.562355,8.017048,-17.42106,0.10873944,0.6167355,9.782005,-0.0064257463,0.0010045047,0.00484029,-0.06296074390411377,-0.011115814559161663,-1.2650138139724731,1013.35034,
2021.01.16 15:57:13,55.0,24.0,28.252022,8.305625,-17.562023,0.10451505,0.5993595,9.760453,9.0590783E-4,0.0050140116,-0.0042452095,-0.061326414346694946,-0.010707602836191654,-1.253220558166504,1013.34924,
2021.01.16 15:57:13,55.0,24.0,27.181175,7.6687098,-17.743002,0.054582868,0.58648247,9.718291,0.003870863,-0.004534036,-0.0075241644,-0.060274261981248856,-0.005616449750959873,-1.2616041898727417,1013.34796,
2021.01.16 15:57:13,55.0,24.0,27.438965,9.024019,-18.069866,0.039655384,0.58987516,9.7203455,-9.277698E-4,-0.003861431,-0.0036802376,-0.06060975790023804,-0.004079604521393776,-1.2191176414489746,1013.34796,
2021.01.16 15:57:13,55.0,24.0,27.889526,8.718009,-18.328869,0.108869314,0.6246029,9.800857,-0.004169153,-0.0084885135,0.0049906466,-0.06363943964242935,-0.01110768597573042,-1.2336695194244385,1013.34796,
2021.01.16 15:57:13,55.0,24.0,29.139793,8.430986,-17.544754,0.108341075,0.60089225,9.714455,0.008064075,-0.0021741218,-0.007160466,-0.06177293509244919,-0.011152101680636406,-1.2582783699035645,1013.34717,
2021.01.16 15:57:14,55.0,24.0,27.225822,8.700954,-18.357853,0.04281276,0.5790842,9.697,0.0019681987,-0.012953714,-0.01202554,-0.05964645370841026,-0.004415023606270552,-1.227113962173462,1013.34705,
2021.01.16 15:57:14,55.0,24.0,28.70063,9.133781,-18.671028,0.12425709,0.6606849,9.759831,-0.0042903074,-0.003410921,-0.0055503678,-0.06758571416139603,-0.012730791233479977,-1.2273187637329102,1013.3433,
2021.01.16 15:57:14,55.0,24.0,28.668953,9.213128,-19.33771,0.052300274,0.6319053,9.684369,-0.012295699,0.00567716,-0.00596577,-0.06515670567750931,-0.005400431342422962,-1.2226494550704956,1013.34283,
2021.01.16 15:57:14,55.0,24.0,28.760849,9.307234,-19.378515,0.008058573,0.6230497,9.773344,-3.922675E-4,0.0027503208,0.0061050085,-0.06366372108459473,-8.245459757745266E-4,-1.2203246355056763,1013.3427,
2021.01.16 15:57:14,55.0,24.0,26.706932,8.270473,-17.67918,0.033120733,0.60586756,9.714932,0.008795568,0.0061964975,0.007148617,-0.06228353828191757,-0.0034092471469193697,-1.2347638607025146,1013.34265,
2021.01.16 15:57:14,55.0,24.0,27.580208,7.7989044,-17.69705,0.07479601,0.65805596,9.704612,9.55606E-4,0.012979846,0.01756656,-0.06770293414592743,-0.007707112468779087,-1.2579936981201172,1013.3423,
2021.01.16 15:57:14,55.0,24.0,28.478813,9.051995,-18.044928,0.01062065,0.6264011,9.731178,-0.006810837,0.012932226,0.013482796,-0.06428180634975433,-0.0010914038866758347,-1.2273856401443481,1013.34204,
2021.01.16 15:57:14,55.0,24.0,29.04129,7.898528,-18.23625,0.040640753,0.60341346,9.73297,-0.010775993,0.0035576157,0.021998962,-0.061917055398225784,-0.004175551235675812,-1.270881175994873,1013.3418,
2021.01.16 15:57:14,55.0,24.0,27.596672,7.310502,-17.633898,0.11856631,0.6332639,9.712489,-0.01872499,0.008717848,0.019985622,-0.06510398536920547,-0.012207006104290485,-1.276792049407959,1013.34143,
2021.01.16 15:57:14,55.0,24.0,27.423294,6.919569,-18.15147,0.053192187,0.6355278,9.815951,-0.019210204,0.0072047696,0.0043329773,-0.06465320289134979,-0.005418900866061449,-1.28562331199646,1013.34064,
2021.01.16 15:57:14,55.0,24.0,27.675987,6.542799,-19.123518,0.07364854,0.60821307,9.753297,-0.0035803327,0.0034259337,-0.0032760182,-0.06227732077240944,-0.007550999987870455,-1.3005303144454956,1013.3402,
2021.01.16 15:57:14,55.0,24.0,27.26236,8.92025,-18.19152,0.0043499116,0.61291885,9.759219,-0.01013937,-0.0016390494,-0.0061066877,-0.06272170692682266,-4.45723271695897E-4,-1.217961311340332,1013.3402,
2021.01.16 15:57:14,55.0,24.0,28.165283,6.980879,-17.953903,0.06541411,0.5846236,9.761449,-0.006086441,-0.008470942,0.004289902,-0.05981827154755592,-0.00670117000117898,-1.2941644191741943,1013.3399,
2021.01.16 15:57:15,55.0,24.0,29.616226,9.1900835,-17.256618,0.08480962,0.6161036,9.740401,-0.009849713,0.005125398,-0.0028824995,-0.06316584348678589,-0.008706774562597275,-1.2393126487731934,1013.3398,
2021.01.16 15:57:15,55.0,24.0,28.268394,10.795661,-17.360956,-0.026565192,0.6026544,9.774305,-0.003330447,0.0029572265,-0.0077676037,-0.06157882511615753,0.002717853058129549,-1.1733053922653198,1013.3384,
2021.01.16 15:57:15,55.0,24.0,28.498985,8.692119,-16.686665,0.07011015,0.59777904,9.723323,9.0904033E-4,6.424745E-4,0.008155913,-0.06140000745654106,-0.0072103883139789104,-1.2444143295288086,1013.335,
2021.01.16 15:57:15,55.0,24.0,28.033363,8.546783,-16.924427,0.018824158,0.61274415,9.759319,-0.0040597836,0.0042457967,-0.002057777,-0.06270312517881393,-0.0019288369221612811,-1.2416311502456665,1013.335,
2021.01.16 15:57:15,55.0,24.0,28.947304,8.359452,-17.123947,0.0487989,0.584106,9.731429,-0.0048825694,0.0035425178,0.006269674,-0.059949956834316254,-0.005014524795114994,-1.2588706016540527,1013.33435,
2021.01.16 15:57:15,55.0,24.0,27.907318,7.3543367,-17.4917,0.049864005,0.61353755,9.711273,-0.0072564217,0.0062842085,0.0045139194,-0.06309318542480469,-0.00513460673391819,-1.2782093286514282,1013.3334,
2021.01.16 15:57:15,55.0,24.0,28.6251,7.830391,-17.734524,-0.021565005,0.5794783,9.765033,-0.010936125,-0.0011474387,-7.2201644E-4,-0.05927252396941185,0.0022083870135247707,-1.2698932886123657,1013.3331,
2021.01.16 15:57:15,55.0,24.0,29.024147,7.2147837,-16.997902,0.08022237,0.6139448,9.715516,-0.008557352,0.001033377,0.01487812,-0.06310614198446274,-0.008256952278316021,-1.2948821783065796,1013.3331,
2021.01.16 15:57:15,55.0,24.0,29.128693,8.668502,-17.650703,0.0036720939,0.5921521,9.767684,-0.0068048476,0.0065029534,0.011652007,-0.06054948270320892,-3.759431419894099E-4,-1.2487905025482178,1013.33276,
2021.01.16 15:57:15,55.0,24.0,28.11174,7.830043,-16.138737,0.04866733,0.5996317,9.750389,-0.008609807,0.0032594851,0.0054608444,-0.06142011657357216,-0.004991280380636454,-1.268322229385376,1013.33246,
2021.01.16 15:57:15,55.0,24.0,27.296593,8.126087,-17.85926,0.06658357,0.6063705,9.73328,-0.010218312,-0.0061893812,0.0033335069,-0.06221682205796242,-0.006840708199888468,-1.246756911277771,1013.33215,
2021.01.16 15:57:15,55.0,24.0,28.07891,8.50232,-17.527308,0.06339026,0.5701484,9.720813,-0.004910988,-0.0070667192,0.0061746202,-0.058583974838256836,-0.00652099447324872,-1.2456756830215454,1013.33215,
2021.01.16 15:57:15,55.0,24.0,28.126312,8.922312,-17.445621,0.06568747,0.5713129,9.825229,-0.013246746,-0.0061409473,0.002301932,-0.05808084458112717,-0.006685492116957903,-1.2333581447601318,1013.33215,
2021.01.16 15:57:15,55.0,24.0,28.981567,7.6609287,-17.522055,0.118786655,0.5747046,9.712146,0.004658949,-0.00335101,0.0047307964,-0.05910046771168709,-0.012230122461915016,-1.2823783159255981,1013.33215,
2021.01.16 15:57:16,55.0,24.0,28.3181,7.8362617,-17.193996,0.02626344,0.5313744,9.76575,-0.0054252055,-0.00914795,-0.008347594,-0.054358240216970444,-0.002689335262402892,-1.2714195251464844,1013.33215,
2021.01.16 15:57:16,55.0,24.0,27.83641,8.439845,-17.540794,0.082154326,0.56040287,9.699588,7.552927E-4,0.0029225359,0.0042920774,-0.057709723711013794,-0.008469675667583942,-1.2459652423858643,1013.33215,
2021.01.16 15:57:16,55.0,24.0,27.91481,7.8272448,-18.790249,0.08460406,0.569395,9.798183,-1.600447E-4,0.007787302,-0.0028208254,-0.058044858276844025,-0.008634453639388084,-1.2641404867172241,1013.33215,
2021.01.16 15:57:16,55.0,24.0,28.095871,7.9629745,-17.738047,0.0075382986,0.53608257,9.718361,-0.007312903,7.3262025E-5,0.012271292,-0.05510596185922623,-7.756758132018149E-4,-1.2633026838302612,1013.33215,
2021.01.16 15:57:16,55.0,24.0,27.727547,7.5593615,-18.38228,0.14540082,0.5553115,9.778296,-0.0025435202,0.001061599,-0.0015192921,-0.05672302097082138,-0.014868654310703278,-1.2738920450210571,1013.33215,
2021.01.16 15:57:16,55.0,24.0,28.766777,8.504685,-18.688263,0.09178412,0.56047744,9.767171,0.003574209,-0.008800247,0.0064298734,-0.057318419218063354,-0.009396929293870926,-1.2521978616714478,1013.33215,
2021.01.16 15:57:16,55.0,24.0,28.246986,9.783208,-17.936506,0.04145551,0.54210097,9.750266,0.004111447,0.0027927181,0.0152603015,-0.05554090067744255,-0.0042517054826021194,-1.2078218460083008,1013.33215,
2021.01.16 15:57:16,55.0,24.0,28.757347,8.46636,-16.976248,0.09716595,0.5524039,9.732997,6.6827086E-4,-3.3474772E-4,0.01101895,-0.05669214949011803,-0.009982815943658352,-1.2566394805908203,1013.33215,
2021.01.16 15:57:16,55.0,24.0,27.474304,8.449175,-18.37621,0.07210693,0.5820948,9.762115,0.0057324334,-6.8614876E-4,0.008850262,-0.05955580249428749,-0.0073862699791789055,-1.2388856410980225,1013.33215,
2021.01.16 15:57:16,55.0,24.0,28.161797,8.953707,-17.94538,0.09333098,0.5961094,9.71315,0.011577496,3.458832E-4,0.016137214,-0.06129167228937149,-0.009608428925275803,-1.2308878898620605,1013.33246,
2021.01.16 15:57:16,55.0,24.0,27.955467,7.918804,-17.966925,0.046469558,0.5806042,9.77887,0.0039606947,1.1880987E-4,0.008412085,-0.059303056448698044,-0.004752002190798521,-1.261452555656433,1013.3328,
2021.01.16 15:57:16,55.0,24.0,27.854332,7.58875,-17.49488,0.06730721,0.61643416,9.7057705,0.008989758,0.004781697,0.01968686,-0.06342541426420212,-0.006934651173651218,-1.2702606916427612,1013.3328,
2021.01.16 15:57:16,55.0,24.0,27.85286,8.057762,-17.182083,0.12863415,0.62051946,9.797238,-0.0011169281,-0.003485593,0.0134289805,-0.0632462352514267,-0.01312888041138649,-1.2572181224822998,1013.3328,
2021.01.16 15:57:16,55.0,24.0,28.00875,7.5083876,-17.935865,0.052017365,0.6092383,9.625433,0.010083391,0.0101818815,0.0055178916,-0.0632093995809555,-0.0054041058756411076,-1.2733052968978882,1013.3328,
2021.01.16 15:57:17,55.0,24.0,28.444458,8.15765,-17.076643,0.09164504,0.6073156,9.771081,-0.013420789,-0.005134935,0.008507439,-0.062071822583675385,-0.00937893707305193,-1.2600927352905273,1013.33295,
2021.01.16 15:57:17,55.0,24.0,28.745567,8.497114,-17.080896,0.1561576,0.6504345,9.709964,-0.004505413,0.005098016,-0.0059309667,-0.06687775254249573,-0.016080815345048904,-1.2516412734985352,1013.33295,
2021.01.16 15:57:17,55.0,24.0,29.190422,8.437922,-16.8063,0.031269588,0.59615666,9.75119,-0.0075498517,9.574525E-4,-0.02451753,-0.06106049194931984,-0.0032067345455288887,-1.2584928274154663,1013.3331,
2021.01.16 15:57:17,55.0,24.0,27.970146,9.426758,-17.06215,0.043926075,0.59469193,9.771562,-0.0074027027,0.0013379878,-0.012937612,-0.06078387796878815,-0.004495267290621996,-1.2145066261291504,1013.3334,
2021.01.16 15:57:17,55.0,24.0,27.866982,8.555057,-18.459108,0.14689665,0.62766856,9.770799,0.00246817,0.0029484075,-0.015582949,-0.06414385139942169,-0.015033119358122349,-1.2390607595443726,1013.33344,
2021.01.16 15:57:17,55.0,24.0,28.890114,8.686508,-16.12387,0.026184322,0.57687503,9.694752,-0.005268614,0.008801439,-0.015540262,-0.059433553367853165,-0.002700869459658861,-1.2496758699417114,1013.3341,
2021.01.16 15:57:17,55.0,24.0,30.134102,8.233853,-17.627459,0.03254806,0.6063442,9.787936,-0.009810051,-6.0547946E-4,0.001789693,-0.061868712306022644,-0.0033253116998821497,-1.2719411849975586,1013.33435,
2021.01.16 15:57:17,55.0,24.0,29.221176,9.299739,-17.667942,0.08717755,0.6061412,9.705782,-0.002201374,0.009699545,0.0067087514,-0.06236805021762848,-0.008981781080365181,-1.231579065322876,1013.3352,
2021.01.16 15:57:17,55.0,24.0,27.702492,7.942029,-18.300724,6.90567E-4,0.62897444,9.781238,-0.012391677,0.008536097,-3.6048493E-4,-0.0642157644033432,-7.06011924194172E-5,-1.2534271478652954,1013.3353,
2021.01.16 15:57:17,55.0,24.0,27.733528,8.52753,-17.744902,0.005065831,0.6327779,9.763164,0.001341369,0.009908284,0.015367258,-0.06472226232290268,-5.188718787394464E-4,-1.2358412742614746,1013.33545,
2021.01.16 15:57:17,55.0,24.0,28.845795,8.434389,-17.698065,0.08856312,0.61522716,9.790505,-0.0011331211,0.008352333,0.008313154,-0.0627540871500969,-0.009045570157468319,-1.253924012184143,1013.3355,
2021.01.16 15:57:17,55.0,24.0,28.698418,8.1730175,-18.22681,0.033703476,0.615084,9.737395,0.009433561,0.005019234,-1.3903948E-5,-0.06308300793170929,-0.0034612277522683144,-1.2580715417861938,1013.3355,
2021.01.16 15:57:17,55.0,24.0,28.109947,8.174862,-17.58946,0.022412397,0.5917017,9.697542,0.014742632,4.2294082E-4,-0.0021071802,-0.06093992292881012,-0.0023111377377063036,-1.2540589570999146,1013.3356,
2021.01.16 15:57:18,55.0,24.0,27.935837,8.594984,-16.883972,0.037108444,0.6036455,9.708527,-0.009661461,0.0013858164,-0.003160532,-0.06209644675254822,-0.0038222342263907194,-1.2398762702941895,1013.33563,
2021.01.16 15:57:18,55.0,24.0,28.475006,8.069014,-16.4805,0.026171157,0.60623235,9.7380495,-0.012654653,0.003499352,-0.006781541,-0.062173523008823395,-0.002687508938834071,-1.2627955675125122,1013.33575,
2021.01.16 15:57:18,55.0,24.0,26.603142,9.202107,-18.069963,0.057596345,0.63065845,9.753135,-0.008218251,-0.0037678392,-7.187921E-4,-0.06457110494375229,-0.00590535020455718,-1.2014743089675903,1013.3358,
2021.01.16 15:57:18,55.0,24.0,27.178085,8.224481,-17.407272,0.04161028,0.63523525,9.75936,-0.006516531,-0.0023207949,-0.011047394,-0.06499756872653961,-0.004263602197170258,-1.2409374713897705,1013.3359,
2021.01.16 15:57:18,55.0,24.0,27.27333,8.4336815,-17.458607,0.0042773304,0.61381906,9.771861,0.0010259222,-0.002270233,0.0061104735,-0.06273253262042999,-4.377191071398556E-4,-1.2353463172912598,1013.33624,
2021.01.16 15:57:18,55.0,24.0,28.62461,8.715627,-18.446001,0.08131758,0.5945423,9.708114,-0.006355958,0.0033433754,-0.005477048,-0.06116326525807381,-0.008376053534448147,-1.2421987056732178,1013.3364,
2021.01.16 15:57:18,55.0,24.0,28.424416,9.315387,-18.110899,0.042172555,0.6504856,9.743734,-0.0015773433,-0.001975189,-0.0028423446,-0.0666598379611969,-0.0043281447142362595,-1.218055248260498,1013.3364,
2021.01.16 15:57:18,55.0,24.0,27.957031,8.104284,-16.002075,0.12891106,0.62747043,9.731837,-0.010193619,0.0022893958,0.014869532,-0.06438129395246506,-0.013245548121631145,-1.258525013923645,1013.33655,
2021.01.16 15:57:18,55.0,24.0,27.279358,8.991087,-18.548435,0.0136379795,0.603923,9.7504425,-0.008354239,0.0015580507,-0.0055537443,-0.06185892969369888,-0.0013987028505653143,-1.2159258127212524,1013.3368,
2021.01.16 15:57:18,55.0,24.0,28.37748,8.996602,-17.191463,0.056428596,0.5957756,9.747485,-0.010166512,0.0028592986,0.006668116,-0.06104399263858795,-0.005788976792246103,-1.232501745223999,1013.337,
2021.01.16 15:57:18,55.0,24.0,27.2706,8.437183,-17.738333,0.11134983,0.59979075,9.777572,-0.010048034,0.003790013,3.2026554E-4,-0.061262793838977814,-0.011387798935174942,-1.2382296323776245,1013.3371,
2021.01.16 15:57:18,55.0,24.0,28.721199,8.809063,-16.62361,0.04956753,0.5675764,9.722607,-0.0035786869,-0.0040499954,-0.0073267054,-0.058310043066740036,-0.005098129156976938,-1.2442898750305176,1013.3373,
2021.01.16 15:57:18,55.0,24.0,28.042595,9.026593,-16.91205,0.04334585,0.58207935,9.750426,-0.0056384765,-0.0051417984,-0.0075475015,-0.05962648242712021,-0.004445504397153854,-1.2287518978118896,1013.3381,
2021.01.16 15:57:19,55.0,24.0,28.37004,10.137727,-18.29141,0.032003213,0.5644867,9.724336,-0.0073375683,-0.002371674,2.5361124E-4,-0.057983484119176865,-0.003291031578555703,-1.196270227432251,1013.3382,
2021.01.16 15:57:19,55.0,24.0,27.650429,9.75301,-17.602411,0.0721519,0.585769,9.740161,-0.01180103,0.0037300172,0.004389938,-0.06006557121872902,-0.007407534401863813,-1.2006430625915527,1013.33844,
2021.01.16 15:57:19,55.0,24.0,27.278,9.388165,-16.720793,0.039173197,0.5719216,9.735423,-0.012303634,2.2857229E-4,4.4003408E-4,-0.05867853760719299,-0.004023757763206959,-1.2090871334075928,1013.3388,
2021.01.16 15:57:19,55.0,24.0,27.642647,8.842721,-17.082342,0.043646067,0.57769287,9.755998,-0.011952813,0.013606609,0.0036316358,-0.05914447084069252,-0.00447373790666461,-1.2300103902816772,1013.33887,
2021.01.16 15:57:19,55.0,24.0,27.038666,7.227748,-17.840405,0.072332285,0.56087995,9.725976,-0.010605165,0.007435079,0.007838298,-0.05760285258293152,-0.007436883635818958,-1.2766382694244385,1013.33887,
2021.01.16 15:57:19,55.0,24.0,28.66957,8.843221,-16.118137,-0.014976353,0.5098622,9.751858,-0.016342675,-0.009696029,0.002650201,-0.05223597213625908,0.0015357424272224307,-1.2450684309005737,1013.3391,
2021.01.16 15:57:19,55.0,24.0,27.465187,7.6806316,-17.595905,0.1265987,0.5920649,9.822163,0.008718264,0.013827645,-0.006170434,-0.060200631618499756,-0.012888372875750065,-1.2662359476089478,1013.33923,
2021.01.16 15:57:19,55.0,24.0,28.444016,8.480953,-17.136538,0.0687424,0.5631342,9.720211,0.005129328,0.010527525,-0.0017543617,-0.05786822736263275,-0.007071992382407188,-1.2514199018478394,1013.33923,
2021.01.16 15:57:19,55.0,24.0,27.798988,8.881975,-17.500872,0.09842157,0.5927479,9.843741,-0.0238127,0.005670203,0.01031294,-0.06014009937644005,-0.009998057037591934,-1.230602502822876,1013.33966,
2021.01.16 15:57:19,55.0,24.0,28.22696,8.990479,-17.22485,0.017852405,0.5414929,9.698477,0.0016504569,0.013440919,-0.015462562,-0.05577477067708969,-0.0018407410243526101,-1.2327572107315063,1013.3398,
2021.01.16 15:57:19,55.0,24.0,27.430565,7.855012,-15.989378,0.070143625,0.51609486,9.688553,-0.007066088,-0.012635822,-0.0032311457,-0.053216833621263504,-0.007239718455821276,-1.2654061317443848,1013.33984,
2021.01.16 15:57:19,55.0,24.0,28.021843,8.92871,-16.631437,-0.03201699,0.4862291,9.770045,-0.021913618,0.002312452,-0.0018796427,-0.04972603917121887,0.0032770447432994843,-1.2353837490081787,1013.3399,
2021.01.16 15:57:19,55.0,24.0,28.124405,7.146351,-18.377785,0.17276049,0.5893827,9.759429,-0.0054727774,0.024995267,0.0037513988,-0.06030842289328575,-0.017700057476758957,-1.2897807359695435,1013.3399,
2021.01.16 15:57:19,55.0,24.0,27.743965,8.781623,-17.803726,-0.09449426,0.49806532,9.714848,0.008011288,0.0187824,-0.017348375,-0.051221199333667755,0.009726480580866337,-1.232633113861084,1013.34,
2021.01.16 15:57:20,55.0,24.0,28.923363,8.970742,-17.21672,0.09232199,0.596643,9.832395,0.009644663,-0.0359968,-0.03793679,-0.06060436740517616,-0.009389298036694527,-1.240222692489624,1013.34015,
