Time,X-cord,Y-cord,Mag_x,Mag_y,Mag_z,Acc_x,Acc_y,Acc_z,Gyro_x,Gyro_y,Gyro_z,Orn_x,Orn_y,Orn_z,Pressure,
2021.01.16 15:44:14,10.0,24.0,20.468773,6.485779,-31.141804,-0.2024119,0.62479544,9.999351,0.016527565,0.12179354,-0.0036498788,-0.06238972768187523,0.02023974061012268,-1.168470025062561,1013.3996,
2021.01.16 15:44:14,10.0,24.0,20.607887,6.339323,-29.393444,0.30494013,0.622708,9.383906,-0.009244577,0.0021985397,0.012490563,-0.06622713804244995,-0.032484643161296844,-1.2062032222747803,1013.3996,
2021.01.16 15:44:14,10.0,24.0,19.873398,7.360158,-30.34568,-0.045546595,0.51730067,9.782075,-0.08343111,-0.0705491,-0.062445786,-0.05283272638916969,0.004656094592064619,-1.14466392993927,1013.39954,
2021.01.16 15:44:14,10.0,24.0,19.581665,6.1381264,-31.216251,-0.14237489,0.43981874,9.754247,-0.063561186,-0.04144297,-0.0254542,-0.04505465552210808,0.014595158398151398,-1.1947612762451172,1013.39954,
2021.01.16 15:44:14,10.0,24.0,20.098274,7.104515,-30.10691,0.09790454,0.49991342,9.844352,-0.028425733,-0.028002566,0.026885305,-0.05073565989732742,-0.009944922290742397,-1.1712781190872192,1013.39954,
2021.01.16 15:44:14,10.0,24.0,20.651726,6.4056435,-30.372608,0.114630185,0.51929504,9.734085,0.0020804717,0.02154406,9.678304E-5,-0.05329389497637749,-0.01177562028169632,-1.2068853378295898,1013.39954,
2021.01.16 15:44:15,10.0,24.0,20.48204,7.2836666,-30.593697,-0.016702047,0.50711435,9.790149,-0.007691981,0.028556379,-0.018535048,-0.05175209790468216,0.0017060036770999432,-1.161666750907898,1013.39954,
2021.01.16 15:44:15,10.0,24.0,20.303024,6.5718727,-30.30802,0.005847027,0.5218993,9.820695,0.0069134925,0.0033815077,0.007981677,-0.05309285223484039,-5.953780491836369E-4,-1.1885125637054443,1013.39954,
2021.01.16 15:44:15,10.0,24.0,20.80722,6.9268436,-29.910515,0.05526966,0.48474574,9.631505,0.0152305355,0.009296313,6.920737E-4,-0.05028592422604561,-0.005738360807299614,-1.1893000602722168,1013.3995,
2021.01.16 15:44:15,10.0,24.0,20.045006,6.1579666,-31.167286,0.0010374201,0.50151056,9.7666235,-0.0065482436,-9.608269E-5,-0.0028729846,-0.051304373890161514,-1.0622096306178719E-4,-1.2020078897476196,1013.3995,
2021.01.16 15:44:15,10.0,24.0,20.717377,7.373435,-30.662315,-0.03217572,0.49181485,9.815244,-0.0025384543,-0.0065721557,-0.0019247625,-0.05006510391831398,0.003278126008808613,-1.1631906032562256,1013.39935,
2021.01.16 15:44:15,10.0,24.0,20.821869,7.265109,-29.914337,0.09204791,0.5495427,9.743736,0.008405236,-0.0070067346,0.017859152,-0.056337397545576096,-0.009446599520742893,-1.170619010925293,1013.3992,
2021.01.16 15:44:15,10.0,24.0,20.063866,7.4108076,-29.80701,-0.004353723,0.51591927,9.81438,0.0023065123,-0.0070582554,-0.013205707,-0.05251934379339218,4.4360649189911783E-4,-1.1503092050552368,1013.399,
2021.01.16 15:44:15,10.0,24.0,22.07537,6.728466,-30.365078,-0.033277776,0.55669636,9.663906,0.013844824,-0.004823482,0.0045177345,-0.05754178762435913,0.0034434981644153595,-1.202919840812683,1013.399,
2021.01.16 15:44:15,10.0,24.0,21.73925,7.884781,-30.3789,-0.016184688,0.5329441,9.751538,-0.0013586751,-8.60529E-4,0.002219087,-0.05459791421890259,0.0016597046051174402,-1.1566864252090454,1013.39886,
2021.01.16 15:44:15,10.0,24.0,22.016197,6.1886587,-30.96273,0.00644766,0.5638239,9.64836,-6.730797E-4,0.006631807,0.014077341,-0.05837087705731392,-6.682647508569062E-4,-1.2232224941253662,1013.3988,
2021.01.16 15:44:15,10.0,24.0,20.377419,6.4951525,-30.165543,-0.051243693,0.5538716,9.816654,-0.013978209,0.008664812,0.011782652,-0.05636110529303551,0.005220029968768358,-1.185940146446228,1013.3988,
2021.01.16 15:44:15,10.0,24.0,21.204185,5.2500696,-31.66191,0.030265788,0.5587463,9.790727,-8.7406486E-4,-0.011459255,0.029624313,-0.057006824761629105,-0.003091261023655534,-1.2515357732772827,1013.3982,
2021.01.16 15:44:15,10.0,24.0,19.3581,6.6632395,-30.528427,0.06019324,0.5680917,9.719119,0.0076670707,-0.018090887,0.0325552,-0.05838339403271675,-0.006193201988935471,-1.1637887954711914,1013.39813,
2021.01.16 15:44:15,10.0,24.0,20.906807,6.446355,-30.719038,0.030875206,0.557631,9.797306,-0.0012522351,-0.01728183,0.024227448,-0.05685514211654663,-0.0031513869762420654,-1.1995019912719727,1013.3978,
2021.01.16 15:44:15,10.0,24.0,21.336967,7.240327,-32.103554,0.11918824,0.5813492,9.7651,0.010163169,-0.009908837,0.028134864,-0.05945875868201256,-0.012204926460981369,-1.1733949184417725,1013.39777,
2021.01.16 15:44:16,10.0,24.0,20.720879,7.2066803,-31.918365,0.1660561,0.5994554,9.720477,0.014639253,-0.010033116,-5.292846E-5,-0.061582379043102264,-0.01708145998418331,-1.165007472038269,1013.3977,
2021.01.16 15:44:16,10.0,24.0,20.278206,6.1098537,-30.790947,0.0402447,0.5642075,9.791416,0.012673419,-0.0018961048,-0.032860372,-0.05755852907896042,-0.0041101789101958275,-1.20284104347229,1013.39764,
2021.01.16 15:44:16,10.0,24.0,19.894493,6.850464,-31.08503,0.06338801,0.53806394,9.712189,0.010494592,0.007719724,-0.024477288,-0.0553431436419487,-0.006526553072035313,-1.1684613227844238,1013.39764,
2021.01.16 15:44:16,10.0,24.0,20.031204,6.444044,-31.334059,0.06643645,0.5847804,9.695117,0.004956933,9.102705E-4,-0.02091413,-0.060242608189582825,-0.0068524605594575405,-1.1812798976898193,1013.3976,
2021.01.16 15:44:16,10.0,24.0,20.833649,6.684926,-31.283276,0.023459984,0.60432893,9.703357,-0.0024414486,0.009924241,-0.027476767,-0.06219988316297531,-0.002417713636532426,-1.180036187171936,1013.3976,
2021.01.16 15:44:16,10.0,24.0,20.874557,7.302864,-32.526978,-0.042890843,0.55420923,9.728766,-0.015841642,0.009441574,-0.027644983,-0.05690398067235947,0.004408633336424828,-1.1552975177764893,1013.3976,
2021.01.16 15:44:16,10.0,24.0,20.769127,6.8028555,-30.63348,0.021839732,0.6319313,9.841719,-0.013635708,-0.0063069277,0.0016400586,-0.06412126123905182,-0.002219093730673194,-1.173279881477356,1013.3976,
2021.01.16 15:44:16,10.0,24.0,20.436363,6.1076536,-30.088406,0.16450252,0.6131184,9.700333,0.008404583,-0.0018312326,-4.0784478E-4,-0.06311289221048355,-0.016956815496087074,-1.2071278095245361,1013.39764,
2021.01.16 15:44:16,10.0,24.0,19.878494,6.0460825,-29.327366,0.05706911,0.5963569,9.739661,-0.005017473,0.0057394747,-0.030665256,-0.061152346432209015,-0.005859388504177332,-1.1989206075668335,1013.39764,
2021.01.16 15:44:16,10.0,24.0,21.45813,6.2657967,-30.921719,-0.034586832,0.6086628,9.803859,-0.003421211,0.0022450471,-0.024438605,-0.06200403347611427,0.0035278648138046265,-1.2051184177398682,1013.39764,
2021.01.16 15:44:16,10.0,24.0,20.609245,6.5888424,-30.37553,-0.020388402,0.59167033,9.694962,0.008888925,0.002957538,-0.002436881,-0.060952913016080856,0.002102986443787813,-1.1814494132995605,1013.39764,
2021.01.16 15:44:16,10.0,24.0,21.043297,7.6463385,-32.507553,0.06950129,0.6091497,9.720134,-2.8434416E-4,-0.008495894,0.00704692,-0.06258542090654373,-0.007150118239223957,-1.1447713375091553,1013.39764,
2021.01.16 15:44:16,10.0,24.0,20.638306,7.39662,-30.802673,0.05946371,0.6153946,9.711469,-0.008434823,0.008643346,-0.0045022303,-0.06328202784061432,-0.00612296350300312,-1.1499483585357666,1013.39746,
2021.01.16 15:44:16,10.0,24.0,20.283806,6.1006193,-30.162865,0.04649588,0.603306,9.80882,-0.010284482,-0.0039154184,-0.0082147345,-0.061428409069776535,-0.004740176256746054,-1.200278401374817,1013.39716,
2021.01.16 15:44:16,10.0,24.0,20.139664,7.0363407,-30.47832,-0.00709725,0.599276,9.680696,0.0023521022,0.016952561,-0.0073335143,-0.06182532384991646,7.331341621465981E-4,-1.1539878845214844,1013.39716,
2021.01.16 15:44:17,10.0,24.0,20.662102,7.431776,-31.40916,0.009068179,0.5657416,9.814909,-0.011097724,0.016867876,-0.009782298,-0.057577308267354965,-9.239185019396245E-4,-1.1513712406158447,1013.39716,
2021.01.16 15:44:17,10.0,24.0,20.204865,5.580495,-30.459461,0.06357627,0.62344104,9.679904,-0.001645863,0.02718039,-0.0018555634,-0.06431549042463303,-0.006567767821252346,-1.217779517173767,1013.39716,
2021.01.16 15:44:17,10.0,24.0,21.082695,6.7852,-29.931309,0.0067608343,0.5703085,9.786914,7.080703E-4,0.0038460372,-0.010066722,-0.058206718415021896,-6.908033392392099E-4,-1.1873222589492798,1013.39716,
2021.01.16 15:44:17,10.0,24.0,21.261276,7.388592,-30.097683,-0.0057477546,0.5971486,9.705457,-6.1004853E-4,0.005074629,-0.013758354,-0.06144962087273598,5.922188283875585E-4,-1.1611653566360474,1013.39716,
2021.01.16 15:44:17,10.0,24.0,20.185875,6.0099277,-31.540686,0.052968305,0.58453816,9.669392,0.006722296,-0.005490521,0.0040644067,-0.060378044843673706,-0.005477880593389273,-1.2008291482925415,1013.39716,
2021.01.16 15:44:17,10.0,24.0,20.07344,7.6159,-29.64597,0.05306852,0.6332081,9.768956,-0.012327594,-0.007036188,-0.005007934,-0.06472689658403397,-0.005432310048490763,-1.1314210891723633,1013.39716,
2021.01.16 15:44:17,10.0,24.0,18.873947,7.963706,-30.292934,0.02724851,0.6232497,9.753052,0.0027765378,-0.0062569766,-0.021012723,-0.06381601840257645,-0.0027938373386859894,-1.090548038482666,1013.39746,
2021.01.16 15:44:17,10.0,24.0,20.831657,6.5561,-31.186947,0.018163526,0.62822026,9.743144,-9.044757E-4,-0.008840337,-0.026766459,-0.0643889382481575,-0.0018642345676198602,-1.1824404001235962,1013.39746,
2021.01.16 15:44:17,10.0,24.0,20.510376,6.188264,-30.371357,-0.07228584,0.6147113,9.75243,4.715541E-4,-8.7039825E-4,-0.004134143,-0.06294659525156021,0.007411948870867491,-1.1910488605499268,1013.39746,
2021.01.16 15:44:17,10.0,24.0,19.595978,6.85832,-30.504347,-0.028136022,0.6156058,9.748305,-0.008897701,0.0064322813,-0.0069136987,-0.0630660280585289,0.0028862394392490387,-1.1482740640640259,1013.39746,
2021.01.16 15:44:17,10.0,24.0,20.788078,6.6192675,-30.255062,-0.010966763,0.6691807,9.708793,-0.0026111454,0.014887172,0.004330763,-0.06881633400917053,0.0011295697186142206,-1.174439549446106,1013.39746,
2021.01.16 15:44:17,10.0,24.0,19.637833,7.081773,-29.833042,-0.060450185,0.60716075,9.81,-0.010356169,0.009298285,-0.0029116827,-0.06181200221180916,0.0061620199121534824,-1.140936017036438,1013.39746,
2021.01.16 15:44:17,10.0,24.0,20.467506,6.2119484,-30.18476,0.004399473,0.60208154,9.651481,9.651073E-4,0.011897174,0.013612375,-0.06230155751109123,-4.5583394239656627E-4,-1.1950911283493042,1013.39746,
2021.01.16 15:44:18,10.0,24.0,21.604599,6.033201,-30.477055,-0.049015697,0.62235093,9.805604,-0.0018271955,0.012888509,0.0060896794,-0.06338309496641159,0.004998701624572277,-1.2155512571334839,1013.39746,
2021.01.16 15:44:18,10.0,24.0,22.18888,7.5113716,-30.139254,-0.014014858,0.61678255,9.758934,-0.002532028,-0.0031772912,-3.680745E-4,-0.06311782449483871,0.0014361044159159064,-1.1693994998931885,1013.3977,
2021.01.16 15:44:18,10.0,24.0,20.830841,5.765007,-30.29417,0.0032633867,0.618449,9.767715,8.923782E-4,0.002147182,-0.00619637,-0.0632312148809433,-3.340992552693933E-4,-1.2182682752609253,1013.39813,
2021.01.16 15:44:18,10.0,24.0,20.564415,7.3639383,-30.243546,-0.0367944,0.62452465,9.782497,-0.001770647,-0.0035533556,-0.0063731517,-0.06375405192375183,0.0037612305022776127,-1.144775152206421,1013.3988,
2021.01.16 15:44:18,10.0,24.0,20.716377,6.9144983,-31.452984,-0.064187124,0.62167406,9.69134,0.0033966177,-2.958082E-4,-0.010466393,-0.06405820697546005,0.006623045075684786,-1.1604169607162476,1013.3992,
2021.01.16 15:44:18,10.0,24.0,21.125343,7.390313,-30.588902,-0.05644278,0.61983776,9.765659,-0.00426159,-0.004852667,-0.004621907,-0.06338509172201157,0.005779656115919352,-1.1521556377410889,1013.3994,
2021.01.16 15:44:18,10.0,24.0,20.329163,7.1990385,-30.455439,-0.06586699,0.6225608,9.752888,2.8533826E-4,0.0014640929,-0.0059308736,-0.06374554336071014,0.00675348611548543,-1.1447302103042603,1013.4004,
2021.01.16 15:44:18,10.0,24.0,21.091942,7.589452,-29.961668,-0.06110622,0.6373809,9.703749,4.104901E-4,0.008334473,-8.0930954E-4,-0.06558846682310104,0.006297093350440264,-1.1424164772033691,1013.4007,
2021.01.16 15:44:18,10.0,24.0,21.447716,7.3119555,-31.31028,-0.056057572,0.6187043,9.804541,-0.0039890674,4.067812E-4,1.9123033E-4,-0.06301926076412201,0.005717448890209198,-1.159488558769226,1013.4007,
2021.01.16 15:44:18,10.0,24.0,20.012878,7.2731752,-31.434082,-0.017172012,0.61611456,9.708999,-0.003218599,3.5043168E-4,-0.0063594733,-0.06337301433086395,0.0017686679493635893,-1.136716365814209,1013.4007,
2021.01.16 15:44:18,10.0,24.0,20.24228,7.1238394,-31.013355,-0.05675885,0.6002503,9.720248,-0.0051743216,-0.0037564267,0.0029773577,-0.061673205345869064,0.005839172285050154,-1.1478739976882935,1013.4007,
2021.01.16 15:44:18,10.0,24.0,20.859955,7.065468,-30.447685,-0.011590964,0.6104591,9.723699,-0.015810568,2.17036E-5,0.0050000264,-0.06269820779561996,0.0011920318938791752,-1.1644251346588135,1013.4007,
2021.01.16 15:44:18,10.0,24.0,21.438095,6.0946302,-29.871675,-0.07095922,0.614412,9.752266,-0.017423058,8.9155306E-4,-0.005399622,-0.06291715055704117,0.0072760493494570255,-1.211490273475647,1013.4007,
2021.01.16 15:44:19,10.0,24.0,21.46473,6.527152,-28.948776,-0.01214664,0.6272,9.788366,-0.0161604,-0.0010066703,-0.0015621041,-0.06398854404687881,0.001240925514139235,-1.1985597610473633,1013.4007,
2021.01.16 15:44:19,10.0,24.0,20.924316,6.920286,-30.935448,-0.08033595,0.5842383,9.757525,-0.0070545077,-0.006618775,-0.007753572,-0.05980224534869194,0.008233044296503067,-1.1696321964263916,1013.4007,
2021.01.16 15:44:19,10.0,24.0,20.103203,6.0889225,-29.999266,0.024565568,0.61229986,9.736952,-0.007740058,-0.00841856,-0.014427537,-0.06280125677585602,-0.0025229163002222776,-1.1952145099639893,1013.4004,
2021.01.16 15:44:19,10.0,24.0,20.350388,6.526618,-30.541504,-0.10098616,0.59071684,9.788341,0.007711939,8.068024E-4,0.0047244695,-0.06027271971106529,0.010316618718206882,-1.1751792430877686,1013.4001,
2021.01.16 15:44:19,10.0,24.0,21.229996,6.850647,-30.790186,-0.07302667,0.61598045,9.677949,-0.011953989,-0.011640802,0.0014864649,-0.06356028467416763,0.007545533590018749,-1.1738210916519165,1013.3994,
2021.01.16 15:44:19,10.0,24.0,20.246353,6.707836,-30.937819,0.015667783,0.6087614,9.666835,0.004478841,0.0051612305,0.024422431,-0.06289109587669373,-0.0016207755543291569,-1.1684691905975342,1013.3994,
2021.01.16 15:44:19,10.0,24.0,19.232582,6.680703,-30.389332,-0.09636644,0.57244295,9.777233,-0.008714863,-0.005794763,0.003175804,-0.05847896635532379,0.009855888783931732,-1.150715947151184,1013.3994,
2021.01.16 15:44:19,10.0,24.0,19.919487,7.6390457,-29.599613,-0.044289116,0.5921605,9.740384,-0.0031884746,0.0011567031,0.026530992,-0.06071901321411133,0.004546926356852055,-1.1261579990386963,1013.4001,
2021.01.16 15:44:19,10.0,24.0,21.598732,5.8806686,-30.52111,0.024734348,0.6056623,9.784196,-0.005981574,-0.0025557524,0.021923408,-0.06182301416993141,-0.002527984557673335,-1.2273471355438232,1013.4007,
2021.01.16 15:44:19,10.0,24.0,20.217842,6.573454,-30.868652,0.0061298483,0.59636754,9.729412,0.005576173,0.0037554086,0.012348263,-0.061218731105327606,-6.300326203927398E-4,-1.1753015518188477,1013.401,
2021.01.16 15:44:19,10.0,24.0,21.23487,6.198021,-30.363422,-0.026736518,0.5781925,9.746024,0.0021278737,-2.5249564E-4,0.0041974825,-0.05925630405545235,0.0027433186769485474,-1.2096673250198364,1013.4011,
2021.01.16 15:44:19,10.0,24.0,20.615227,7.366946,-30.525444,4.968035E-4,0.62368304,9.774127,0.008314069,0.0013821803,-0.0041554975,-0.06372319161891937,-5.082842835690826E-5,-1.1472069025039673,1013.4011,
2021.01.16 15:44:19,10.0,24.0,20.50505,6.1499653,-31.234398,-0.050926507,0.6201634,9.782523,0.0014652987,-0.0071088197,-0.015604522,-0.0633094534277916,0.005205818917602301,-1.1909844875335693,1013.4011,
2021.01.16 15:44:20,10.0,24.0,21.628372,7.6105976,-30.051033,-0.058879957,0.621064,9.657196,0.014982544,0.0020197015,-0.010424834,-0.06422137469053268,0.006096927914768457,-1.1525359153747559,1013.4011,
2021.01.16 15:44:20,10.0,24.0,20.974327,6.133341,-30.228043,-0.03955878,0.63551795,9.797055,-0.0014902328,-0.005247532,-0.0070411954,-0.06477697938680649,0.004037801176309586,-1.2010091543197632,1013.4011,
2021.01.16 15:44:20,10.0,24.0,21.288086,6.1115475,-29.592125,0.009781656,0.6772414,9.6537285,0.009286284,0.0059152045,-0.009917954,-0.0700385645031929,-0.0010132512543350458,-1.204984188079834,1013.4011,
2021.01.16 15:44:20,10.0,24.0,20.284203,7.4063854,-30.643833,-0.068134084,0.6465215,9.788163,-0.0071368804,-0.0011150801,-0.02235201,-0.06595396250486374,0.006960752885788679,-1.1320043802261353,1013.40186,
2021.01.16 15:44:20,10.0,24.0,21.590004,6.404953,-31.226006,-0.07026059,0.6551111,9.689958,0.0013238674,0.0051504797,-0.0076481635,-0.06750272214412689,0.007250739727169275,-1.1918283700942993,1013.40216,
2021.01.16 15:44:20,10.0,24.0,20.03614,6.838932,-29.871128,-0.043437656,0.64299464,9.743169,-0.0078665055,0.0018308198,0.0010002581,-0.06589819490909576,0.004458238370716572,-1.1546169519424438,1013.40234,
2021.01.16 15:44:20,10.0,24.0,20.903618,6.206846,-30.228619,-0.0378627,0.6466965,9.694074,-4.112085E-4,0.007072071,-0.0049309246,-0.06661129742860794,0.003905737306922674,-1.1945931911468506,1013.40234,
2021.01.16 15:44:20,10.0,24.0,21.160698,6.185629,-29.66476,-0.046920102,0.6385975,9.776696,-0.009263743,0.001264758,-0.0015208377,-0.06522492319345474,0.004799140617251396,-1.2024333477020264,1013.40234,
2021.01.16 15:44:20,10.0,24.0,20.07763,5.7970495,-31.373081,0.010402681,0.6711193,9.776566,-0.003497296,-0.0040671476,-8.4568E-4,-0.06853814423084259,-0.0010640420950949192,-1.1951799392700195,1013.40216,
2021.01.16 15:44:20,10.0,24.0,19.969833,6.121744,-30.63214,-0.01765994,0.62922794,9.724643,5.5535E-4,-0.0010226415,-0.012219095,-0.06461429595947266,0.0018159968312829733,-1.1849536895751953,1013.40216,
2021.01.16 15:44:20,10.0,24.0,20.42144,6.993205,-30.333036,-0.061263055,0.63735336,9.736154,0.0015514714,-0.002219837,-0.0011965022,-0.06536798179149628,0.006292243488132954,-1.1535286903381348,1013.40186,
2021.01.16 15:44:20,10.0,24.0,20.490356,7.360345,-30.318588,-0.023088768,0.64077276,9.737107,4.14558E-4,-0.008848646,-0.008032373,-0.06571236997842789,0.002371209906414151,-1.1418405771255493,1013.4012,
2021.01.16 15:44:20,10.0,24.0,19.986565,6.5353518,-30.752121,-0.030579867,0.65454507,9.710195,9.5088955E-4,-0.0071641128,-0.0042166756,-0.06730587780475616,0.0031492433045059443,-1.1629819869995117,1013.4012,
2021.01.16 15:44:21,10.0,24.0,20.64598,7.8494463,-29.552128,-0.076748975,0.63406754,9.753356,-0.00888457,-0.0010994767,-0.006090858,-0.06491682678461075,0.007868818938732147,-1.1247773170471191,1013.4011,
2021.01.16 15:44:21,10.0,24.0,19.951988,7.4960413,-30.67298,-0.01635514,0.6455715,9.742419,-0.0030981968,-0.009781785,0.009417291,-0.06616715341806412,0.001678753993473947,-1.125005841255188,1013.401,
2021.01.16 15:44:21,10.0,24.0,21.095901,7.864723,-31.084774,-0.037205953,0.6379369,9.7084255,-0.007099132,-0.0012025717,0.006751963,-0.06561480462551117,0.003832317655906081,-1.130177617073059,1013.401,
2021.01.16 15:44:21,10.0,24.0,20.125984,5.6689186,-31.322521,-0.05576272,0.6694506,9.748903,-0.013710606,0.0038202072,0.011521626,-0.06856057047843933,0.005719834007322788,-1.1976299285888672,1013.4007,
2021.01.16 15:44:21,10.0,24.0,21.118347,7.460025,-29.798328,-0.048100267,0.60684603,9.7647,-0.010716736,0.0030514002,0.021778865,-0.06206634268164635,0.004925893619656563,-1.153376817703247,1013.4007,
2021.01.16 15:44:21,10.0,24.0,19.692398,6.0465393,-29.913662,0.007846898,0.6481326,9.713867,-0.006246088,-8.966352E-4,0.011234367,-0.06662364304065704,-8.078035898506641E-4,-1.1843174695968628,1013.401,
2021.01.16 15:44:21,10.0,24.0,19.988327,6.487767,-30.868298,-0.016838564,0.598578,9.688098,0.0019286929,-0.010864993,0.011705983,-0.06170634925365448,0.001738065155223012,-1.1728029251098633,1013.401,
2021.01.16 15:44:21,10.0,24.0,21.440567,6.967681,-30.885162,0.0085347565,0.6449969,9.82062,-0.002718791,-0.008853771,0.011127947,-0.06558360159397125,-8.690647664479911E-4,-1.1747817993164062,1013.401,
2021.01.16 15:44:21,10.0,24.0,21.938454,7.2200327,-30.64537,-0.003400753,0.6355454,9.706972,0.012860879,-0.008270377,-6.7346403E-4,-0.06537975370883942,3.5034125903621316E-4,-1.1732603311538696,1013.401,
2021.01.16 15:44:21,10.0,24.0,21.51104,7.6238356,-29.12262,-0.017840026,0.602158,9.736588,8.484343E-4,-0.003872725,0.0017213034,-0.06176609918475151,0.0018322647083550692,-1.1575391292572021,1013.401,
2021.01.16 15:44:21,10.0,24.0,21.37822,6.644498,-30.487068,0.02165627,0.6401033,9.693199,-0.0011204875,0.006664517,0.0044653863,-0.06594041734933853,-0.0022341676522046328,-1.1879901885986328,1013.401,
2021.01.16 15:44:21,10.0,24.0,21.156181,6.3267117,-30.599575,-0.009516495,0.6302953,9.810811,8.6208805E-4,4.5000485E-4,-0.0036786566,-0.06415677070617676,9.700005757622421E-4,-1.1974003314971924,1013.401,
2021.01.16 15:44:21,10.0,24.0,20.475708,7.0526123,-30.451988,-0.00959889,0.63887024,9.69822,-0.003173374,-0.006105496,-0.0029827384,-0.0657799243927002,9.89757478237152E-4,-1.1544743776321411,1013.401,
2021.01.16 15:44:22,10.0,24.0,20.593742,6.7085886,-29.818958,-0.026614586,0.6249761,9.659603,0.009999668,0.0033289685,-2.699769E-4,-0.06460967659950256,0.002755239373072982,-1.17280912399292,1013.401,
2021.01.16 15:44:22,10.0,24.0,20.17353,7.190509,-30.315506,-0.03702323,0.6309293,9.800686,-0.0023930185,-0.0030801182,0.0026725181,-0.06428686529397964,0.0037775984965264797,-1.1437385082244873,1013.401,
2021.01.16 15:44:22,10.0,24.0,20.489044,6.7896347,-30.566097,-0.0071967584,0.64279574,9.7039175,0.0060028424,0.007223044,0.0083588725,-0.066144198179245,7.416342268697917E-4,-1.1648818254470825,1013.401,
2021.01.16 15:44:22,10.0,24.0,20.534302,7.9912863,-31.13697,-0.01097909,0.6358784,9.747876,9.673494E-4,-0.0011038255,0.0033938484,-0.06514017283916473,0.0011263053165748715,-1.11683189868927,1013.40076,
2021.01.16 15:44:22,10.0,24.0,20.62912,6.9756575,-30.027544,0.0059923506,0.6278,9.736474,-7.867494E-4,-3.3116664E-4,0.0016759448,-0.06439004838466644,-6.154538132250309E-4,-1.1641238927841187,1013.40076,
2021.01.16 15:44:22,10.0,24.0,21.486382,6.1276646,-30.43399,-0.010628908,0.64205223,9.752999,0.0013874375,0.0012957273,-0.004808421,-0.06573636829853058,0.001089808763936162,-1.2091600894927979,1013.4007,
2021.01.16 15:44:22,10.0,24.0,21.806015,7.0786343,-30.32596,0.009209882,0.6351376,9.73106,-6.36257E-4,0.0025260258,-0.0113206,-0.06517662853002548,-9.464414324611425E-4,-1.1783641576766968,1013.4005,
2021.01.16 15:44:22,10.0,24.0,20.358154,6.351508,-31.212559,-0.08685303,0.6434981,9.830676,0.015290516,-3.4056354E-4,0.0063714953,-0.06536237895488739,0.00883466936647892,-1.1751166582107544,1013.4005,
2021.01.16 15:44:22,10.0,24.0,20.797333,7.72663,-31.989107,-0.11593244,0.61506283,9.788869,-0.0077564716,-0.0035852995,-0.014721728,-0.06274600327014923,0.011842739768326283,-1.1259700059890747,1013.4003,
2021.01.16 15:44:22,10.0,24.0,21.171074,5.2787895,-29.796394,-0.050341453,0.6451381,9.684375,5.4871244E-4,-0.0044475053,0.011258891,-0.06651721149682999,0.00519816717132926,-1.2383943796157837,1013.4003,
2021.01.16 15:44:22,10.0,24.0,20.146866,6.704195,-30.80186,0.0066178306,0.6558027,9.777345,-0.011943755,-0.0043553296,0.011015421,-0.06697337329387665,-6.76853465847671E-4,-1.1614596843719482,1013.40015,
2021.01.16 15:44:22,10.0,24.0,21.679115,5.9882746,-30.68181,-0.014712187,0.6662439,9.768761,-0.0032507116,-0.0058419923,0.009694061,-0.06809595227241516,0.001506043248809874,-1.2139732837677002,1013.40015,
2021.01.16 15:44:22,10.0,24.0,20.045021,6.0941734,-30.447998,-0.03676907,0.65034527,9.732137,0.0015622117,-0.00579317,0.0048783766,-0.06672483682632446,0.003778090700507164,-1.1840837001800537,1013.4001,
2021.01.16 15:44:22,10.0,24.0,19.7006,6.259944,-30.307257,-0.019604988,0.65501434,9.792804,5.706834E-4,-0.0066272323,0.011206605,-0.06678769737482071,0.0020019765943288803,-1.1721943616867065,1013.3997,
2021.01.16 15:44:23,10.0,24.0,21.577385,6.5592384,-30.741528,0.018709004,0.66350156,9.70357,0.010443823,-0.002249913,0.010878675,-0.06827066093683243,-0.0019280512351542711,-1.1909441947937012,1013.3996,
2021.01.16 15:44:23,10.0,24.0,21.881546,7.9057083,-31.70643,-0.016835555,0.66110635,9.757091,0.0068213358,-0.0070864456,0.002556915,-0.06765300035476685,0.0017254671547561884,-1.1399130821228027,1013.39935,
2021.01.16 15:44:23,10.0,24.0,21.065674,6.5800657,-30.555073,-0.024629554,0.6448207,9.675789,0.0055300053,6.6072686E-4,0.0022940193,-0.06654408574104309,0.002545477356761694,-1.1818699836730957,1013.3993,
2021.01.16 15:44:23,10.0,24.0,21.293205,6.5414963,-30.765873,0.0037484253,0.65174073,9.750626,-0.006776926,-0.005723275,0.0064494302,-0.06674163043498993,-3.844292077701539E-4,-1.1880173683166504,1013.39905,
2021.01.16 15:44:23,10.0,24.0,20.720161,5.7397823,-30.851614,0.0816625,0.67114955,9.736478,-0.005799887,-0.0066802134,0.006606914,-0.06882017850875854,-0.008387076668441296,-1.2133264541625977,1013.3987,
2021.01.16 15:44:23,10.0,24.0,22.159767,6.9764643,-30.949457,-0.037758347,0.657492,9.71079,-0.004137291,-0.0019452497,-0.013929457,-0.06760367751121521,0.0038882684893906116,-1.180885910987854,1013.3987,
2021.01.16 15:44:23,10.0,24.0,20.191826,6.3574047,-30.16737,0.009767341,0.6613187,9.740699,-0.007739012,9.7200077E-4,-0.0041075046,-0.067788265645504,-0.0010027348762378097,-1.177734136581421,1013.3987,
2021.01.16 15:44:23,10.0,24.0,20.0783,6.3394985,-31.191349,0.04504551,0.6622995,9.7877035,-0.010745023,-0.003976284,-0.015539058,-0.0675627812743187,-0.004602222703397274,-1.1760530471801758,1013.3987,
2021.01.16 15:44:23,10.0,24.0,20.2537,6.8983364,-31.684265,-0.003037274,0.6844053,9.722522,-0.004056443,-0.0028081618,-0.02126754,-0.07027788460254669,3.1239568488672376E-4,-1.1480692625045776,1013.39825,
2021.01.16 15:44:23,10.0,24.0,20.639526,5.7340355,-30.925854,-0.1044495,0.6164406,9.750057,0.002377194,0.0071879565,0.0061476687,-0.06313665211200714,0.010712296701967716,-1.2088967561721802,1013.39825,
2021.01.16 15:44:23,10.0,24.0,21.177681,5.1185246,-31.448277,-0.023540398,0.63720304,9.766219,-0.012152212,1.9084747E-4,-0.0042513357,-0.0651530846953392,0.002410385524854064,-1.2437433004379272,1013.39825,
2021.01.16 15:44:23,10.0,24.0,20.369156,5.9619265,-31.067421,-0.03323896,0.61931163,9.771783,-0.004634896,0.0041567353,0.0045230016,-0.06329253315925598,0.0034015115816146135,-1.1982263326644897,1013.39825,
2021.01.16 15:44:23,10.0,24.0,20.447594,6.128976,-31.656147,0.029432578,0.63175815,9.671544,-0.010736094,-0.006355015,0.0040937336,-0.06522836536169052,-0.0030432045459747314,-1.192063808441162,1013.39825,
2021.01.16 15:44:24,10.0,24.0,20.531883,7.347228,-31.176529,-0.0169707,0.60659885,9.77303,-0.0063355733,0.011114458,-3.6952086E-5,-0.06198904290795326,0.0017364810919389129,-1.1458442211151123,1013.39825,
2021.01.16 15:44:24,10.0,24.0,21.642532,7.415539,-30.794252,0.00811101,0.640784,9.785627,-0.007866914,-0.008729686,-0.0073450077,-0.06538879126310349,-8.288695244118571E-4,-1.1610652208328247,1013.3979,
2021.01.16 15:44:24,10.0,24.0,20.219444,5.284071,-29.825394,0.012013701,0.6114146,9.719174,0.009981854,-0.0010313966,-0.0046551367,-0.06282524764537811,-0.0012360818218439817,-1.2317078113555908,1013.39777,
2021.01.16 15:44:24,10.0,24.0,21.508736,6.8075237,-30.719887,-0.011889492,0.6188454,9.768746,-0.0040475694,-0.003754467,-0.013972753,-0.06326493620872498,0.0012170943664386868,-1.184313178062439,1013.3977,
2021.01.16 15:44:24,10.0,24.0,21.09787,5.690549,-31.550694,-0.045615077,0.64947575,9.754546,0.008864684,0.0059987144,-0.011408074,-0.06648299843072891,0.004676255397498608,-1.2151988744735718,1013.3976,
2021.01.16 15:44:24,10.0,24.0,22.17978,6.0218353,-29.695688,-0.03398687,0.6124966,9.7332945,0.0054458044,-0.005041924,-0.008664587,-0.06284473836421967,0.003491801442578435,-1.2279523611068726,1013.3976,
2021.01.16 15:44:24,10.0,24.0,20.91552,7.441226,-31.33576,-0.04038694,0.64371663,9.699169,0.007542594,0.0062571787,-0.0028693795,-0.06627046316862106,0.004163934849202633,-1.1418548822402954,1013.39746,
2021.01.16 15:44:24,10.0,24.0,21.010635,6.9124165,-29.911526,-0.039925072,0.62848705,9.761437,-0.0029286006,-1.9721164E-4,-0.0011008284,-0.06429539620876312,0.004090058617293835,-1.1710346937179565,1013.3974,
2021.01.16 15:44:24,10.0,24.0,20.772392,6.253474,-30.322514,-0.0024546776,0.647937,9.7095375,-0.0035463395,-0.0028636868,-0.0019248575,-0.06663322448730469,2.52810976235196E-4,-1.1922407150268555,1013.3974,
2021.01.16 15:44:24,10.0,24.0,20.739601,6.0501814,-30.57945,0.010329799,0.6569767,9.7304945,0.001212854,0.0034370369,0.002143303,-0.06741494685411453,-0.0010615900391712785,-1.1991990804672241,1013.3972,
2021.01.16 15:44:24,10.0,24.0,21.114433,6.507677,-30.601406,-0.040853437,0.6422352,9.738191,-0.0010683134,8.3106064E-4,-0.0063922084,-0.06585421413183212,0.004195152781903744,-1.185418963432312,1013.3972,
2021.01.16 15:44:24,10.0,24.0,21.345245,6.1359816,-31.17664,-0.023045063,0.63121504,9.737144,0.005235536,-0.015205054,0.0035292702,-0.06473471969366074,0.0023667123168706894,-1.2051843404769897,1013.3972,
2021.01.16 15:44:24,10.0,24.0,21.24327,6.846118,-30.091488,-0.058478057,0.6490326,9.6972,-0.0020365706,0.010766152,-0.003443318,-0.06682901829481125,0.006030333694070578,-1.1730455160140991,1013.3972,
2021.01.16 15:44:24,10.0,24.0,21.660622,5.510519,-30.377647,0.00957691,0.7038099,9.836404,-0.008460905,0.010156635,0.0047459425,-0.0714297890663147,-9.736187639646232E-4,-1.2311911582946777,1013.3972,
2021.01.16 15:44:25,10.0,24.0,19.933334,6.2933283,-30.007431,-0.08004603,0.6648773,9.709652,0.017480716,0.008450588,-0.007315983,-0.0683668777346611,0.00824377778917551,-1.1700685024261475,1013.3968,
2021.01.16 15:44:25,10.0,24.0,19.8601,7.1040564,-30.736734,-0.096212275,0.65256673,9.742591,0.009416623,0.007341256,4.7392212E-5,-0.06687767803668976,0.009875109419226646,-1.1329394578933716,1013.3963,
2021.01.16 15:44:25,10.0,24.0,20.648247,7.038311,-31.104015,-0.20510979,0.7163866,9.403552,0.02271318,0.023977423,0.009498492,-0.07601767778396606,0.02180849015712738,-1.130196452140808,1013.3961,
2021.01.16 15:44:25,10.0,24.0,20.357918,6.792803,-31.00816,0.2500122,0.5743467,9.996694,-0.112259164,-0.2062861,0.0074031986,-0.05737267807126045,-0.025004275143146515,-1.18706214427948,1013.3961,
