Time,X-cord,Y-cord,Mag_x,Mag_y,Mag_z,Acc_x,Acc_y,Acc_z,Gyro_x,Gyro_y,Gyro_z,Orn_x,Orn_y,Orn_z,Pressure,
2021.01.16 15:46:50,20.0,24.0,28.218102,10.8842125,-28.309229,0.026521465,0.7537393,10.236698,-0.043464497,-0.080399066,0.0010203028,-0.07349821925163269,-0.002590816468000412,-1.1421624422073364,1013.2635,
2021.01.16 15:46:50,20.0,24.0,28.743965,10.946669,-28.173168,-0.17045708,0.7372096,9.571523,-0.032197345,0.02518652,-0.050421856,-0.07685724645853043,0.017806891351938248,-1.1359483003616333,1013.2615,
2021.01.16 15:46:50,20.0,24.0,28.725952,11.0656185,-28.548565,0.05344865,0.5666143,9.856457,-0.093162574,-0.07885625,-0.025716912,-0.057422567158937454,-0.005422651302069426,-1.1571745872497559,1013.2613,
2021.01.16 15:46:50,20.0,24.0,28.476059,12.466182,-30.333044,-0.12418679,0.585818,9.81919,-0.042217825,-0.056177072,-0.004721297,-0.05958513170480728,0.012646681629121304,-1.1007161140441895,1013.2612,
2021.01.16 15:46:50,20.0,24.0,28.03228,11.461758,-28.803917,0.16084541,0.5498357,9.897888,0.030486358,-0.04638371,0.06791329,-0.05548645928502083,-0.016249047592282295,-1.1423364877700806,1013.26044,
2021.01.16 15:46:50,20.0,24.0,27.095947,10.122627,-29.188347,0.35184813,0.669785,9.731915,0.0598668,0.023581602,0.027241312,-0.06867047399282455,-0.03613830730319023,-1.1666207313537598,1013.26044,
2021.01.16 15:46:50,20.0,24.0,28.61142,10.957485,-28.319744,0.07188101,0.6647572,9.633159,0.04525175,0.029394045,-0.0032230886,-0.06889605522155762,-0.00746169313788414,-1.1509343385696411,1013.2604,
2021.01.16 15:46:50,20.0,24.0,27.738914,9.00033,-27.575745,-0.1639585,0.4873619,9.834783,0.03033555,-0.031234603,0.025976162,-0.04950755089521408,0.0166697446256876,-1.2072651386260986,1013.25903,
2021.01.16 15:46:50,20.0,24.0,28.81253,10.047262,-29.474823,0.25083944,0.62310684,9.710223,0.024450377,-0.027240403,0.040359065,-0.0640610083937645,-0.025826765224337578,-1.189134120941162,1013.25903,
2021.01.16 15:46:50,20.0,24.0,28.407028,11.201464,-28.841637,0.11356432,0.6713896,9.7833605,0.035136078,-0.030056976,-0.0011074519,-0.06851363927125931,-0.01160738430917263,-1.142342209815979,1013.259,
2021.01.16 15:46:50,20.0,24.0,26.89003,9.836711,-29.397833,-0.14108501,0.5869009,9.701512,0.0068440326,-0.02235571,0.006759312,-0.060415808111429214,0.014541554264724255,-1.1570836305618286,1013.259,
2021.01.16 15:46:51,20.0,24.0,28.065475,10.904699,-28.299726,0.10326758,0.75746995,9.693753,0.01111464,-0.029032014,0.079174824,-0.07797714322805405,-0.010652599856257439,-1.1395241022109985,1013.2588,
2021.01.16 15:46:51,20.0,24.0,27.610489,9.272065,-28.545626,0.3318223,0.5149384,9.484649,0.019994212,-0.022660602,0.0434971,-0.05420542508363724,-0.034970931708812714,-1.2111093997955322,1013.25824,
2021.01.16 15:46:51,20.0,24.0,28.272186,10.149464,-29.455402,0.07546082,0.5784773,9.648249,-0.03149821,0.016897019,0.003009227,-0.059883199632167816,-0.007821034640073776,-1.1758524179458618,1013.25824,
2021.01.16 15:46:51,20.0,24.0,27.921822,10.086453,-27.89979,0.18627053,0.6028844,9.458581,0.024064014,0.016013704,-0.033363126,-0.06364099681377411,-0.01969074085354805,-1.1776714324951172,1013.2579,
2021.01.16 15:46:51,20.0,24.0,26.403435,10.482602,-28.681887,-0.039364766,0.53837746,9.992312,-0.03125769,-0.018401746,-0.022214167,-0.053826704621315,0.003939484711736441,-1.142090082168579,1013.2579,
2021.01.16 15:46:51,20.0,24.0,27.422585,11.160955,-29.43843,0.18091281,0.6407711,9.6886635,0.01734645,0.0018975697,0.02326483,-0.06602852046489716,-0.0186704583466053,-1.1343622207641602,1013.2579,
2021.01.16 15:46:51,20.0,24.0,27.418343,11.166588,-29.883545,0.1065512,0.6099964,9.637771,1.0329299E-4,-0.008763026,0.0017589373,-0.06320410221815109,-0.011055135168135166,-1.1322790384292603,1013.2579,
2021.01.16 15:46:51,20.0,24.0,27.38752,10.225525,-28.88842,-0.0066505545,0.56719136,9.786807,-0.019970227,-0.014371878,0.020338077,-0.057889919728040695,6.795427179895341E-4,-1.1612281799316406,1013.2579,
2021.01.16 15:46:51,20.0,24.0,27.451065,10.312618,-28.524868,0.18259819,0.63395447,9.667656,-0.011206171,0.009952146,0.045689136,-0.06546939164400101,-0.018885290250182152,-1.1620182991027832,1013.257,
2021.01.16 15:46:51,20.0,24.0,28.178123,11.036652,-29.308012,0.30035615,0.6950683,9.791909,-0.022085046,0.0038748214,0.030485697,-0.07083187997341156,-0.030664296820759773,-1.1495884656906128,1013.2562,
2021.01.16 15:46:51,20.0,24.0,26.795525,9.98701,-28.540413,0.1641462,0.6747996,9.828332,0.010189767,-3.9862003E-5,-0.011499364,-0.0685414969921112,-0.01669977605342865,-1.1596981287002563,1013.2562,
2021.01.16 15:46:51,20.0,24.0,27.136055,8.709549,-28.66658,0.18273573,0.6002727,9.671971,0.028383654,0.0041970806,-6.284149E-4,-0.06197258457541466,-0.01889107935130596,-1.2101608514785767,1013.2562,
2021.01.16 15:46:51,20.0,24.0,27.982414,10.229561,-29.168255,0.15081838,0.5673587,9.876107,0.01864534,-0.0076543596,-0.010425736,-0.057377852499485016,-0.015269848518073559,-1.1754907369613647,1013.2562,
2021.01.16 15:46:52,20.0,24.0,28.833252,9.877505,-29.47366,0.19506975,0.49970362,9.849862,0.042417306,-0.011227739,0.011935627,-0.050678666681051254,-0.019801722839474678,-1.2031290531158447,1013.2562,
2021.01.16 15:46:52,20.0,24.0,28.549812,9.232634,-29.282265,0.04801376,0.7261987,9.6340475,0.054584425,0.017245661,0.031596277,-0.07523514330387115,-0.004983716644346714,-1.192737340927124,1013.2562,
2021.01.16 15:46:52,20.0,24.0,27.648727,7.952303,-28.257822,0.08251039,0.9732168,9.700249,0.047965884,0.045065217,0.013701466,-0.0999908521771431,-0.008505802601575851,-1.2041337490081787,1013.2562,
2021.01.16 15:46:52,20.0,24.0,28.084,8.411029,-28.179363,0.05347973,0.6375964,9.849013,0.045448266,0.022072904,-0.0036514304,-0.0646459236741066,-0.005429904907941818,-1.2240242958068848,1013.2558,
2021.01.16 15:46:52,20.0,24.0,28.022942,9.735539,-29.294254,0.25084218,0.7630814,9.442218,-0.014202429,-0.015262294,-0.04819368,-0.08061232417821884,-0.026559777557849884,-1.1758326292037964,1013.25555,
2021.01.16 15:46:52,20.0,24.0,28.575882,8.694109,-27.645655,0.05058248,0.7638376,9.67797,0.0049979924,0.00391022,-0.04400061,-0.07876104861497879,-0.005226511042565107,-1.210179090499878,1013.25507,
2021.01.16 15:46:52,20.0,24.0,28.029968,9.005912,-28.725069,-0.05117546,0.719737,9.6900215,-0.0061560557,-0.0093783345,-0.032508753,-0.07413892447948456,0.0052812048234045506,-1.1912596225738525,1013.25494,
2021.01.16 15:46:52,20.0,24.0,27.49894,9.9378805,-28.07941,0.021451972,0.75457716,9.759259,-0.011520695,-0.0141496025,0.008501269,-0.0771653801202774,-0.002198111265897751,-1.1580665111541748,1013.25494,
2021.01.16 15:46:52,20.0,24.0,29.086243,10.298297,-29.500511,0.02737522,0.75986034,9.73211,-0.010267159,0.008528024,0.01435464,-0.07791926711797714,-0.002812868682667613,-1.1642849445343018,1013.25494,
2021.01.16 15:46:52,20.0,24.0,27.176384,8.805583,-28.964909,0.10562825,0.8080986,9.803176,-0.007990915,-0.004396925,0.027218316,-0.08224162459373474,-0.010774483904242516,-1.186022162437439,1013.25494,
2021.01.16 15:46:52,20.0,24.0,28.918785,9.550017,-29.396873,0.009967711,0.7300415,9.729073,0.0025120121,0.012896478,0.037802257,-0.07489671558141708,-0.0010245280573144555,-1.186094045639038,1013.25494,
2021.01.16 15:46:52,20.0,24.0,26.785294,9.642126,-29.261139,0.09750367,0.7496086,9.693923,0.0012033058,0.008673871,0.018373165,-0.07717021554708481,-0.010057886131107807,-1.1583342552185059,1013.25494,
2021.01.16 15:46:52,20.0,24.0,26.850342,9.819813,-28.799683,0.1874922,0.8101457,9.850511,0.016862866,0.010810598,-0.0029102848,-0.08204454928636551,-0.019031457602977753,-1.1547147035598755,1013.25494,
2021.01.16 15:46:53,20.0,24.0,27.843193,8.953561,-28.175821,0.050346885,0.7603715,9.817012,0.0018213068,-0.010381786,0.02075081,-0.07729913294315338,-0.0051284898072481155,-1.193477749824524,1013.2541,
2021.01.16 15:46:53,20.0,24.0,27.728569,9.9064045,-28.60305,0.17373891,0.7798694,9.680566,0.013896467,0.0033236183,0.01610655,-0.08037382364273071,-0.01794525980949402,-1.1650420427322388,1013.25354,
2021.01.16 15:46:53,20.0,24.0,28.026146,8.814652,-27.942587,0.12117454,0.8125927,9.707376,-3.3675507E-4,-5.780483E-4,-0.0050580287,-0.08350761234760284,-0.012482080608606339,-1.1983311176300049,1013.2535,
2021.01.16 15:46:53,20.0,24.0,27.142128,10.362245,-28.910011,-0.025658391,0.8220405,9.853015,-0.00100645,-0.01130299,-0.009443733,-0.08323729783296585,0.0026041099335998297,-1.1309974193572998,1013.2535,
2021.01.16 15:46:53,20.0,24.0,28.261963,10.078138,-28.018408,0.122228645,0.77467185,9.719092,0.02096344,-0.009112639,0.012866182,-0.07953178137540817,-0.012575474567711353,-1.1664490699768066,1013.2535,
2021.01.16 15:46:53,20.0,24.0,27.62561,9.614176,-27.884869,0.050467912,0.76879215,9.632119,0.014696896,0.0049793185,-0.003947838,-0.0796455442905426,-0.005239496007561684,-1.1692949533462524,1013.2535,
2021.01.16 15:46:53,20.0,24.0,28.272476,9.450266,-28.036484,-0.0072880816,0.80971915,9.772578,-0.0024430286,0.009446955,-0.0032262695,-0.08266738802194595,7.457684259861708E-4,-1.177112102508545,1013.2535,
2021.01.16 15:46:53,20.0,24.0,29.505745,9.952846,-28.4879,0.025830189,0.815423,9.702029,0.0010061567,0.027012967,0.009263774,-0.08384928852319717,-0.0026623427402228117,-1.1768245697021484,1013.25354,
2021.01.16 15:46:53,20.0,24.0,28.61618,9.588453,-28.47097,0.038429763,0.8100596,9.756626,-0.003947132,0.0064058537,0.021073341,-0.08283597230911255,-0.003938816953450441,-1.1780264377593994,1013.25354,
2021.01.16 15:46:53,20.0,24.0,27.083908,9.192628,-29.64706,0.0878677,0.81291527,9.719452,0.0031685373,0.0091883615,0.017773978,-0.0834403708577156,-0.009040150791406631,-1.1693302392959595,1013.25354,
2021.01.16 15:46:53,20.0,24.0,27.647812,8.990421,-29.206526,0.051048633,0.81020945,9.711157,0.002384161,0.007896892,0.006020235,-0.08323687314987183,-0.005256650969386101,-1.1824064254760742,1013.25354,
2021.01.16 15:46:53,20.0,24.0,26.625748,8.701542,-29.400417,-0.0073980005,0.7846715,9.735038,-0.004938871,-0.0064278464,0.009911075,-0.08042892813682556,7.59935297537595E-4,-1.1775312423706055,1013.2535,
2021.01.16 15:46:53,20.0,24.0,27.767235,9.664138,-27.63909,0.061759293,0.80320853,9.753915,-0.0016810168,-0.0047080177,0.024142992,-0.08216027915477753,-0.006331659387797117,-1.1686185598373413,1013.25323,
2021.01.16 15:46:53,20.0,24.0,26.907005,8.603099,-29.256863,0.05992527,0.81335926,9.68155,-0.0012366897,-0.0068686614,0.009279172,-0.08381285518407822,-0.006189556792378426,-1.1847928762435913,1013.25323,
2021.01.16 15:46:54,20.0,24.0,27.168877,7.25399,-29.420567,0.08130122,0.81153345,9.748744,6.834583E-4,-0.012026073,0.007742958,-0.08305055648088455,-0.008339467458426952,-1.2323013544082642,1013.25287,
2021.01.16 15:46:54,20.0,24.0,27.544449,8.106621,-29.264736,0.03056152,0.7983151,9.8236475,0.019982485,-0.0014261317,0.013517397,-0.08108605444431305,-0.0031110055278986692,-1.2094858884811401,1013.25275,
2021.01.16 15:46:54,20.0,24.0,28.299759,9.849298,-28.210735,0.03477168,0.8268085,9.74524,0.004608644,-9.435206E-4,-0.019091379,-0.0846390575170517,-0.0035680527798831463,-1.16534423828125,1013.2521,
2021.01.16 15:46:54,20.0,24.0,27.932663,9.325674,-29.27094,0.01182653,0.81965727,9.679564,0.011446266,-0.003065723,-0.0045242636,-0.08447755128145218,-0.0012218033662065864,-1.1727852821350098,1013.25195,
2021.01.16 15:46:54,20.0,24.0,28.999908,8.743713,-29.371643,0.08021361,0.80056214,9.690097,-0.0012526736,-0.008165609,0.010149233,-0.0824265107512474,-0.008277706801891327,-1.2076354026794434,1013.2521,
2021.01.16 15:46:54,20.0,24.0,27.855133,9.60861,-28.348843,0.120589375,0.8396384,9.682555,-0.012108108,-8.558753E-4,-0.0140412,-0.08649355173110962,-0.012453648261725903,-1.168808102607727,1013.2526,
2021.01.16 15:46:54,20.0,24.0,27.659447,9.555107,-28.518366,0.0305557,0.8096399,9.75859,0.001029047,0.0037843196,2.6156195E-4,-0.08277689665555954,-0.003131149336695671,-1.1664854288101196,1013.2526,
2021.01.16 15:46:54,20.0,24.0,27.31913,8.720994,-29.191372,0.037824772,0.80691504,9.772738,0.010035641,0.0032998258,0.008333,-0.08238046616315842,-0.0038704180624336004,-1.186774730682373,1013.2521,
2021.01.16 15:46:54,20.0,24.0,28.621841,8.2652,-28.274918,0.09520178,0.8386497,9.76495,0.026533801,-0.011805614,0.030634277,-0.0856693834066391,-0.009749026969075203,-1.2182847261428833,1013.25134,
2021.01.16 15:46:54,20.0,24.0,29.215088,7.8601923,-28.637589,0.17848961,0.8532665,9.726375,0.022924386,-0.007926237,0.016285032,-0.08748840540647507,-0.01834903471171856,-1.2377912998199463,1013.2511,
2021.01.16 15:46:54,20.0,24.0,28.141182,8.221668,-29.38093,0.14862481,0.84250146,9.662114,0.026835961,4.4983477E-4,0.002260304,-0.08696617186069489,-0.015381012111902237,-1.2125325202941895,1013.2511,
2021.01.16 15:46:54,20.0,24.0,29.007507,8.556769,-28.63116,0.06478006,0.8528645,9.808302,0.0051722396,-0.009618634,-0.01040192,-0.08673328906297684,-0.0066045187413692474,-1.2108361721038818,1013.2511,
2021.01.16 15:46:54,20.0,24.0,26.836388,8.25782,-29.366154,0.111382775,0.8683552,9.642623,0.021508547,-5.4600823E-5,-0.0012879214,-0.08980561047792435,-0.011550573632121086,-1.1915355920791626,1013.2511,
2021.01.16 15:46:55,20.0,24.0,27.208221,9.568919,-28.785797,0.08589844,0.86905855,9.749123,0.008734824,0.009159855,-0.009758893,-0.08890379220247269,-0.008810660801827908,-1.156814455986023,1013.2511,
2021.01.16 15:46:55,20.0,24.0,28.408455,9.015809,-28.581846,0.025688747,0.8786192,9.729762,-0.0023624497,0.0071441787,-0.030575186,-0.09005765616893768,-0.0026402175426483154,-1.1857726573944092,1013.2511,
2021.01.16 15:46:55,20.0,24.0,28.258774,9.170074,-29.348928,0.08620596,0.90712357,9.76119,0.002644964,0.0028589875,-0.010333215,-0.09266190975904465,-0.008831270970404148,-1.177764892578125,1013.2514,
2021.01.16 15:46:55,20.0,24.0,27.252014,8.742223,-29.24466,0.02951741,0.8990614,9.63666,0.007849392,0.014504006,-0.016344737,-0.09302624315023422,-0.0030630240216851234,-1.175351619720459,1013.2514,
2021.01.16 15:46:55,20.0,24.0,28.37529,8.4316025,-27.871618,-0.036728386,0.83731985,9.734982,-0.009632794,0.0010821553,-0.0036962614,-0.0857996717095375,0.003772807540372014,-1.2059314250946045,1013.2514,
2021.01.16 15:46:55,20.0,24.0,27.270233,8.487011,-26.966728,0.07963807,0.88857746,9.695426,-0.009158643,0.0090067675,0.018628024,-0.09139075130224228,-0.008213799446821213,-1.1935609579086304,1013.2514,
2021.01.16 15:46:55,20.0,24.0,27.842255,8.05122,-28.494453,0.10479873,0.9420562,9.770019,-0.009008821,0.0025072074,0.011268025,-0.09612049907445908,-0.01072615198791027,-1.206894040107727,1013.2514,
2021.01.16 15:46:55,20.0,24.0,28.521881,9.478165,-28.180382,-0.05584241,0.82841116,9.72108,0.0013326486,-0.0039021084,0.012204142,-0.08501122891902924,0.0057444022968411446,-1.1749811172485352,1013.2514,
2021.01.16 15:46:55,20.0,24.0,28.212036,9.338061,-28.638582,0.036411405,0.8838214,9.709238,0.0030161706,-0.0017009773,0.043936305,-0.09077809751033783,-0.0037501638289541006,-1.1734051704406738,1013.2514,
2021.01.16 15:46:55,20.0,24.0,27.475655,8.213838,-28.208132,0.13517243,0.91294247,9.799758,0.001626496,-0.01586178,0.043118153,-0.09288279712200165,-0.013792570680379868,-1.2022745609283447,1013.2514,
2021.01.16 15:46:55,20.0,24.0,27.981758,8.043774,-28.376,-0.0026442113,0.8550911,9.658981,0.022075923,-0.020338275,0.046424337,-0.08829789608716965,2.7375674108043313E-4,-1.2112375497817993,1013.2514,
2021.01.16 15:46:55,20.0,24.0,27.85527,7.6247044,-29.949593,0.12376734,0.8962581,9.824832,0.012107499,-0.033798736,0.075480916,-0.09096479415893555,-0.0125967338681221,-1.2215209007263184,1013.2514,
2021.01.16 15:46:55,20.0,24.0,29.648735,8.114974,-29.459114,0.40514335,0.996732,9.674504,0.01811855,0.0037723305,0.044767626,-0.10257519036531448,-0.04185297340154648,-1.2295163869857788,1013.2514,
2021.01.16 15:46:55,20.0,24.0,27.829605,8.5786705,-29.041794,0.17949502,0.9010598,9.673167,-0.0011634529,0.011853277,-0.045105085,-0.09286652505397797,-0.0185538437217474,-1.1951303482055664,1013.2514,
2021.01.16 15:46:55,20.0,24.0,29.154938,9.275153,-28.44731,0.003673179,0.87975353,9.713702,-0.009843975,0.014813863,-0.052374087,-0.09032188355922699,-3.7814409006386995E-4,-1.1862766742706299,1013.2514,
2021.01.16 15:46:56,20.0,24.0,26.621574,7.1720037,-28.166267,-0.024861373,0.8584104,9.706775,-0.015205262,0.021713194,-0.034473386,-0.08820440620183945,0.002561233937740326,-1.222791314125061,1013.2511,
2021.01.16 15:46:56,20.0,24.0,27.304932,8.800942,-28.95499,0.07529456,0.8789694,9.726171,-0.011772428,0.003970326,-0.011910267,-0.09012406319379807,-0.0077412850223481655,-1.1796623468399048,1013.2511,
2021.01.16 15:46:56,20.0,24.0,28.292534,8.450495,-28.281971,0.037895117,0.87432843,9.737025,-0.012620548,0.0056263367,-0.007853856,-0.0895533561706543,-0.003891838015988469,-1.2032504081726074,1013.2511,
2021.01.16 15:46:56,20.0,24.0,27.547493,8.317845,-28.905994,0.034650624,0.8671096,9.756484,-0.011888145,0.0025380077,-0.003556367,-0.08864175528287888,-0.0035515334457159042,-1.1973106861114502,1013.251,
2021.01.16 15:46:56,20.0,24.0,27.388466,8.04558,-28.567944,0.021277437,0.8577268,9.685319,3.146641E-4,0.0075479774,0.0012437636,-0.08832883834838867,-0.0021968716755509377,-1.204547643661499,1013.2507,
2021.01.16 15:46:56,20.0,24.0,28.328705,8.529634,-27.821972,0.052905023,0.8687764,9.762052,-0.009204742,0.0016916795,0.0030048573,-0.0887601301074028,-0.005419404711574316,-1.203770399093628,1013.2498,
2021.01.16 15:46:56,20.0,24.0,27.321198,8.487329,-27.981554,0.03245397,0.85153335,9.708652,-5.560592E-4,-4.6664814E-4,6.6670007E-4,-0.08748435229063034,-0.003342776093631983,-1.1926231384277344,1013.24976,
2021.01.16 15:46:56,20.0,24.0,28.591667,7.892725,-28.876793,0.008073165,0.8236649,9.748665,2.5222916E-4,-0.0031134924,0.015551341,-0.0842898041009903,-8.281301707029343E-4,-1.2254807949066162,1013.24976,
2021.01.16 15:46:56,20.0,24.0,28.236313,8.937833,-27.79014,0.080997795,0.87364453,9.73583,0.005101909,-0.0056429496,0.007951872,-0.08949220180511475,-0.008319364860653877,-1.1909546852111816,1013.24963,
2021.01.16 15:46:56,20.0,24.0,28.242966,8.813925,-27.800476,0.0656817,0.82426053,9.712373,9.970474E-4,-4.835804E-4,0.022855919,-0.08466226607561111,-0.006762580014765263,-1.1980501413345337,1013.2496,
2021.01.16 15:46:56,20.0,24.0,26.544083,7.711441,-28.527882,0.08048719,0.8577896,9.73688,-0.001492044,-0.0020845598,0.015513773,-0.0878671184182167,-0.008266030810773373,-1.2079830169677734,1013.249,
2021.01.16 15:46:56,20.0,24.0,28.034325,9.227809,-28.75508,0.033921022,0.8188402,9.740153,0.002563268,9.455217E-4,0.010919726,-0.0838707908987999,-0.0034825822804123163,-1.1798442602157593,1013.2489,
2021.01.16 15:46:56,20.0,24.0,28.493202,9.294586,-27.95088,0.079085656,0.83689976,9.705054,0.0031387918,-0.0015899993,0.013246239,-0.08601775020360947,-0.008148733526468277,-1.1856911182403564,1013.2489,
2021.01.16 15:46:57,20.0,24.0,27.92434,9.599044,-28.52549,0.08051422,0.8481682,9.760829,-6.2030647E-4,-0.003401754,0.010212797,-0.08667443692684174,-0.008248520083725452,-1.1675763130187988,1013.2488,
2021.01.16 15:46:57,20.0,24.0,28.991783,10.214564,-29.461609,0.102269806,0.8779356,9.73542,0.0069011347,-0.0019585264,0.0045607476,-0.08993132412433624,-0.010504533536732197,-1.1591556072235107,1013.2482,
2021.01.16 15:46:57,20.0,24.0,26.779251,8.83618,-28.443726,0.07980235,0.8335068,9.706613,0.005797543,-0.0047412454,-0.00815613,-0.08565699309110641,-0.008221256546676159,-1.177166223526001,1013.2478,
2021.01.16 15:46:57,20.0,24.0,27.079842,9.375591,-29.56062,0.05841221,0.84931684,9.705743,-0.0070917686,-0.00560171,-0.008275434,-0.08728271722793579,-0.00601824140176177,-1.1590803861618042,1013.2473,
2021.01.16 15:46:57,20.0,24.0,27.886902,8.787199,-28.746737,0.085852355,0.87420654,9.734735,0.0018998624,-0.007247844,-2.9441155E-4,-0.08955911546945572,-0.008818949572741985,-1.1889045238494873,1013.24677,
2021.01.16 15:46:57,20.0,24.0,28.036888,8.785341,-28.883186,0.06276274,0.8525813,9.702445,0.0024613496,-0.0069707157,-0.002807723,-0.08764588087797165,-0.006468664389103651,-1.1910632848739624,1013.2458,
2021.01.16 15:46:57,20.0,24.0,28.32,7.024561,-27.771519,0.082183555,0.8750691,9.7827835,7.584004E-4,-0.003276165,0.004583615,-0.08920934796333313,-0.008400636725127697,-1.2511873245239258,1013.24567,
2021.01.16 15:46:57,20.0,24.0,28.26593,9.339705,-29.370068,0.08375167,0.8556029,9.701585,0.005164149,-0.0031427005,-8.626259E-5,-0.08796123415231705,-0.008632568642497063,-1.1766180992126465,1013.2452,
2021.01.16 15:46:57,20.0,24.0,28.639183,8.71467,-29.004852,0.14369278,0.8877349,9.635671,0.010090008,0.009425229,0.010171751,-0.0918605625629425,-0.01491148117929697,-1.2000633478164673,1013.2452,
2021.01.16 15:46:57,20.0,24.0,28.11097,9.091596,-29.216957,0.12547328,0.88407534,9.83405,-0.004871668,-0.0062479274,-0.012989044,-0.08965114504098892,-0.01275837142020464,-1.182865858078003,1013.2452,
2021.01.16 15:46:57,20.0,24.0,28.670967,7.9921207,-28.881872,0.007418329,0.8181198,9.607434,0.011513003,0.008899587,-0.014576742,-0.08494990319013596,-7.721444708295166E-4,-1.2227004766464233,1013.2452,
2021.01.16 15:46:57,20.0,24.0,27.795273,8.693708,-29.066143,0.13584036,0.8902512,9.76518,-0.008665059,-0.00904691,0.0071747517,-0.0909058228135109,-0.01390979066491127,-1.1908296346664429,1013.2452,
2021.01.16 15:46:57,20.0,24.0,28.269875,9.436112,-29.394201,0.10573692,0.90069056,9.746284,0.001039631,-0.0050279326,-0.011355808,-0.0921466127038002,-0.010848521254956722,-1.1712113618850708,1013.2452,
2021.01.16 15:46:58,20.0,24.0,27.897018,10.081626,-27.745735,0.072854824,0.8828433,9.736745,0.0032894723,-0.0063477275,-0.0070086285,-0.09042152017354965,-0.00748232239857316,-1.1514933109283447,1013.2452,
2021.01.16 15:46:58,20.0,24.0,28.229721,9.426034,-28.758316,0.115928225,0.9074896,9.695901,0.008522531,-0.0010376992,-0.0075539057,-0.09331667423248291,-0.011955847032368183,-1.1721845865249634,1013.2452,
2021.01.16 15:46:58,20.0,24.0,28.831833,10.331223,-28.576965,0.005462911,0.8644505,9.698819,-0.0026654676,-0.0031849504,0.0045594997,-0.0888945534825325,-5.632552201859653E-4,-1.1524364948272705,1013.2452,
2021.01.16 15:46:58,20.0,24.0,28.283745,9.250155,-29.231094,0.1361054,0.8890896,9.702159,-0.002121671,0.0033759212,-0.0049524913,-0.09137415885925293,-0.014027442783117294,-1.1793427467346191,1013.2452,
2021.01.16 15:46:58,20.0,24.0,27.155998,8.749704,-29.52237,0.06460182,0.89622855,9.758841,-3.2540876E-4,0.0011821868,-0.0031526822,-0.09157872200012207,-0.006619729101657867,-1.1759988069534302,1013.2452,
2021.01.16 15:46:58,20.0,24.0,28.346642,7.877941,-28.79495,0.06997398,0.8691542,9.67858,0.004838115,0.0017923843,-3.5770168E-4,-0.08955926448106766,-0.007229651790112257,-1.2214044332504272,1013.2452,
2021.01.16 15:46:58,20.0,24.0,27.820595,9.494066,-28.998413,0.11016557,0.847354,9.746869,-0.0045945807,0.0017133977,0.0044508902,-0.08671247214078903,-0.011302181519567966,-1.169524908065796,1013.245,
2021.01.16 15:46:58,20.0,24.0,28.501572,9.506808,-28.043758,0.12365087,0.88668996,9.661094,-0.0034426535,0.0018379325,-6.382577E-4,-0.09151560068130493,-0.012798149138689041,-1.1768286228179932,1013.245,
2021.01.16 15:46:58,20.0,24.0,28.716766,8.552382,-28.254059,0.10142686,0.8760772,9.780446,-0.004366417,0.0018738422,-0.010351371,-0.08933115750551224,-0.010370000265538692,-1.20797860622406,1013.24457,
2021.01.16 15:46:58,20.0,24.0,28.183205,9.190221,-29.564703,0.10080237,0.87814444,9.705115,-0.007602735,0.0030849709,-0.015821356,-0.09023206681013107,-0.010386145673692226,-1.1783981323242188,1013.24457,
2021.01.16 15:46:58,20.0,24.0,27.057175,9.39745,-29.127739,0.05864199,0.8771259,9.750259,-0.0050586206,0.001349897,-0.00785322,-0.0897161215543747,-0.0060143303126096725,-1.1571288108825684,1013.2444,
2021.01.16 15:46:58,20.0,24.0,27.965942,9.308795,-29.02269,0.03151981,0.8748779,9.6990385,-0.010530204,-0.0049273716,0.0036049588,-0.08995860815048218,-0.003249775618314743,-1.170594573020935,1013.2439,
2021.01.16 15:46:58,20.0,24.0,26.679314,9.387629,-29.25457,0.013785727,0.84291655,9.741689,-0.0062918845,0.0039686747,0.011911929,-0.08631167560815811,-0.0014151261420920491,-1.152714490890503,1013.2439,
2021.01.16 15:46:59,20.0,24.0,29.216896,8.443184,-27.95467,0.008738146,0.81372625,9.725773,-0.007121351,-8.1997213E-4,4.1564764E-4,-0.08347255736589432,-8.984524174593389E-4,-1.218740701675415,1013.2439,
2021.01.16 15:46:59,20.0,24.0,27.121773,8.328209,-28.802254,0.050425876,0.7868232,9.725743,-0.00874378,0.0051144823,0.0161426,-0.08072419464588165,-0.005184737499803305,-1.1996837854385376,1013.2437,
2021.01.16 15:46:59,20.0,24.0,27.434143,8.986511,-28.823446,0.16802448,0.8239703,9.761692,-0.0105781965,0.0033785766,0.017660562,-0.08419652283191681,-0.017210939899086952,-1.1851108074188232,1013.24365,
2021.01.16 15:46:59,20.0,24.0,27.579727,9.238177,-27.91386,0.16644305,0.83597594,9.799141,4.6365894E-6,-4.2153662E-4,-0.0034577884,-0.08509287238121033,-0.016983840614557266,-1.180583119392395,1013.24365,
2021.01.16 15:46:59,20.0,24.0,28.784882,10.235426,-27.975033,0.05639872,0.76220375,9.686521,0.002958051,0.001553924,-0.0067156157,-0.07852392643690109,-0.005822326056659222,-1.166512370109558,1013.24365,
2021.01.16 15:46:59,20.0,24.0,28.088142,9.547701,-28.597998,0.09861558,0.8107044,9.72947,-8.709822E-5,-0.004579977,-0.01756122,-0.08312833309173584,-0.010135413147509098,-1.1747454404830933,1013.2437,
2021.01.16 15:46:59,20.0,24.0,27.916656,8.683867,-28.687222,0.029455597,0.8107832,9.770041,-0.009433538,-0.0065150573,-0.00822111,-0.08279657363891602,-0.003014880698174238,-1.1958919763565063,1013.2439,
2021.01.16 15:46:59,20.0,24.0,27.73436,9.228751,-29.04726,0.07837009,0.7975178,9.698479,-0.0064124805,2.4593592E-4,-0.0016216782,-0.08204396069049835,-0.008080482482910156,-1.1788619756698608,1013.2439,
2021.01.16 15:46:59,20.0,24.0,28.260338,9.228561,-29.445581,0.07894066,0.8275413,9.780473,-0.008647732,-9.742775E-4,0.0013885214,-0.08440779894590378,-0.00807107612490654,-1.182447910308838,1013.2439,
2021.01.16 15:46:59,20.0,24.0,28.291046,9.884353,-29.224602,0.037241276,0.78869957,9.728803,0.0010079492,0.0013367053,-7.404332E-4,-0.08089102059602737,-0.0038279215805232525,-1.164949893951416,1013.2439,
2021.01.16 15:46:59,20.0,24.0,27.374115,9.542685,-28.040497,0.07292867,0.81925386,9.735892,0.0035697853,0.009533137,0.011629848,-0.08394768089056015,-0.007490561809390783,-1.1652449369430542,1013.2439,
2021.01.16 15:46:59,20.0,24.0,28.667496,9.684343,-28.356533,0.07667157,0.8014593,9.733003,0.0034362597,0.012020057,0.010094054,-0.08215661346912384,-0.007877320982515812,-1.1782889366149902,1013.2439,
2021.01.16 15:46:59,20.0,24.0,28.120285,9.114389,-29.133251,0.12498926,0.83076507,9.677468,0.0074060196,0.02607331,0.014639241,-0.08562823385000229,-0.012914774008095264,-1.185951828956604,1013.2444,
2021.01.16 15:47:00,20.0,24.0,28.410126,9.076427,-29.42841,-0.08312915,0.7940796,9.7609005,-0.0032019466,0.004307567,0.002846952,-0.08117140829563141,0.008516339585185051,-1.184523105621338,1013.2445,
2021.01.16 15:47:00,20.0,24.0,28.734688,8.25127,-28.213245,0.19784492,0.8534518,9.74033,0.0018710096,0.004744253,0.024135035,-0.08737928420305252,-0.020309140905737877,-1.2227697372436523,1013.2445,
2021.01.16 15:47:00,20.0,24.0,28.464066,9.483626,-29.386158,0.011216454,0.8035454,9.718422,-4.989258E-4,-0.0030953763,-0.02121637,-0.08249499648809433,-0.0011541431304067373,-1.1761255264282227,1013.24457,
2021.01.16 15:47:00,20.0,24.0,27.900368,9.533371,-29.133139,0.0047135614,0.80246896,9.772632,0.0041555795,-0.019584645,0.0024543446,-0.08193007856607437,-4.8232258995994925E-4,-1.1682924032211304,1013.2452,
2021.01.16 15:47:00,20.0,24.0,28.429153,9.247433,-28.530746,0.068403274,0.8068084,9.69782,0.0072686393,-0.016480021,0.00846382,-0.08300162106752396,-0.007053352426737547,-1.1869094371795654,1013.2452,
2021.01.16 15:47:00,20.0,24.0,27.908104,8.904477,-28.699253,0.067171074,0.8024042,9.7071085,-0.0019243574,-0.0074266046,0.0034254086,-0.08247203379869461,-0.006919671315699816,-1.1909023523330688,1013.2452,
2021.01.16 15:47:00,20.0,24.0,27.936768,9.224656,-28.255362,0.066102125,0.8220399,9.7542,0.005656178,0.006359867,0.0026708776,-0.08407489210367203,-0.00677668210119009,-1.18119478225708,1013.24457,
2021.01.16 15:47:00,20.0,24.0,29.2481,8.906894,-29.141449,-0.02713584,0.78037876,9.646001,0.009143924,-0.0062725493,-0.007813762,-0.08072566241025925,0.002813162514939904,-1.2031229734420776,1013.2445,
2021.01.16 15:47:00,20.0,24.0,28.965546,9.353028,-27.839546,-0.009250653,0.7767437,9.706374,-0.0169727,0.03499493,0.007789435,-0.07985388487577438,9.530489915050566E-4,-1.1911672353744507,1013.2444,
2021.01.16 15:47:00,20.0,24.0,28.9225,9.516653,-29.773794,0.1797114,0.9096895,9.794823,-0.010313878,0.0021774485,0.0191482,-0.09259336441755295,-0.018345531076192856,-1.1788225173950195,1013.2441,
2021.01.16 15:47:00,20.0,24.0,27.827812,9.543854,-27.994545,0.06527453,0.79642564,9.728418,-0.005950241,-0.039673377,-8.309422E-4,-0.08168190717697144,-0.006709574721753597,-1.1727269887924194,1013.244,
