Time,X-cord,Y-cord,Mag_x,Mag_y,Mag_z,Acc_x,Acc_y,Acc_z,Gyro_x,Gyro_y,Gyro_z,Orn_x,Orn_y,Orn_z,Pressure,
2021.01.16 15:59:49,65.0,24.0,36.824623,19.972378,-23.349953,-0.24375425,0.56003815,9.639098,-0.06996483,0.0026608186,0.07688416,-0.05801692605018616,0.025282688438892365,-1.0382755994796753,1013.46,
2021.01.16 15:59:49,65.0,24.0,36.69004,19.505981,-22.825182,0.3256812,0.7544258,9.758308,-0.045435116,-0.028346129,0.026914965,-0.07711488008499146,-0.03336237743496895,-1.057266354560852,1013.4587,
2021.01.16 15:59:49,65.0,24.0,36.05871,18.322666,-22.812334,0.3399125,0.7074065,10.011201,0.016133023,-0.002298445,0.021029226,-0.07050376385450363,-0.03394018113613129,-1.0773779153823853,1013.4583,
2021.01.16 15:59:49,65.0,24.0,36.1809,19.034525,-24.39645,0.27986515,0.5361275,9.796144,-0.010934748,-0.0011132748,0.051356927,-0.05465162545442581,-0.028561141341924667,-1.067803144454956,1013.45807,
2021.01.16 15:59:49,65.0,24.0,37.148445,19.529156,-23.838812,0.41844544,0.6036244,9.718434,0.0056027668,-0.005265893,0.0346658,-0.06197432056069374,-0.043030302971601486,-1.070149302482605,1013.4573,
2021.01.16 15:59:49,65.0,24.0,37.65307,17.186773,-23.828472,0.2489772,0.5097656,9.825066,0.003449202,-0.013782218,-0.0032231591,-0.05182110518217087,-0.02533559873700142,-1.1234731674194336,1013.4573,
2021.01.16 15:59:49,65.0,24.0,37.426033,18.13225,-23.65521,0.2526481,0.48957124,9.616508,0.019537868,-0.012194091,0.02120082,-0.05084803327918053,-0.02626628987491131,-1.102039098739624,1013.4572,
2021.01.16 15:59:49,65.0,24.0,36.51394,19.303696,-23.18167,0.3004079,0.51515055,9.776325,-0.0061411993,-0.020734016,0.024578812,-0.05262019857764244,-0.030718432739377022,-1.0685333013534546,1013.4572,
2021.01.16 15:59:49,65.0,24.0,36.287056,17.19639,-23.740118,0.18494199,0.47328964,9.614947,-0.007375458,-0.01146891,-0.0018329404,-0.049175579100847244,-0.01923247054219246,-1.1084649562835693,1013.4572,
2021.01.16 15:59:49,65.0,24.0,38.16268,17.40501,-23.307468,0.38298056,0.5159817,9.782951,-0.02241786,-0.008765904,-0.011905164,-0.05265386402606964,-0.03912777081131935,-1.1277331113815308,1013.4573,
2021.01.16 15:59:49,65.0,24.0,36.92562,18.400995,-22.311295,0.09371457,0.4124759,9.644404,-0.008576585,0.003103306,-0.01748868,-0.0427403599023819,-0.009716683067381382,-1.0910868644714355,1013.4573,
2021.01.16 15:59:49,65.0,24.0,35.657677,18.186443,-23.552427,0.17921925,0.42639604,9.764404,-0.03396049,-0.002338272,0.011967028,-0.043633341789245605,-0.018352285027503967,-1.0825012922286987,1013.4573,
2021.01.16 15:59:50,65.0,24.0,36.811058,17.876726,-22.606026,0.18367447,0.49306223,9.903091,-0.02262614,-0.007894,0.020965803,-0.04973909631371498,-0.018545059487223625,-1.1000292301177979,1013.4583,
2021.01.16 15:59:50,65.0,24.0,37.526512,18.187532,-22.90298,0.2961215,0.385,9.70729,0.008658245,-0.008188938,0.026789233,-0.03962172940373421,-0.03049560822546482,-1.1085938215255737,1013.4587,
2021.01.16 15:59:50,65.0,24.0,37.483086,18.254353,-24.45001,0.24995725,0.4108247,9.821286,-0.0018339427,-0.023864409,-0.0011777543,-0.0417921356856823,-0.02544506825506687,-1.1035168170928955,1013.4587,
2021.01.16 15:59:50,65.0,24.0,37.247063,18.652641,-24.178757,0.1725984,0.42020366,9.786872,0.016033163,0.010733042,-0.0057801995,-0.042902424931526184,-0.01763387955725193,-1.0900866985321045,1013.4587,
2021.01.16 15:59:50,65.0,24.0,37.78356,18.28465,-23.900738,0.23894806,0.41926005,9.727761,0.016986432,0.0090632355,0.004643448,-0.043059710413217545,-0.02455858141183853,-1.1055492162704468,1013.4587,
2021.01.16 15:59:50,65.0,24.0,36.440483,18.254395,-23.06601,0.16111663,0.4104023,9.762286,0.010010774,0.009830058,-0.0023099107,-0.04200911894440651,-0.016502486541867256,-1.0904819965362549,1013.4587,
2021.01.16 15:59:50,65.0,24.0,37.006737,18.23709,-23.542194,0.19594578,0.4495946,9.66042,0.004650094,0.009665949,0.020078713,-0.04649674892425537,-0.02028057910501957,-1.095725178718567,1013.4587,
2021.01.16 15:59:50,65.0,24.0,36.167244,18.623827,-24.15574,0.19529645,0.46554017,9.79861,-0.007959625,0.011914907,0.01080531,-0.0474657267332077,-0.019928397610783577,-1.077181339263916,1013.4587,
2021.01.16 15:59:50,65.0,24.0,36.7996,19.364668,-23.046272,0.1838003,0.4286566,9.700107,-1.9924436E-4,0.003666913,0.01387848,-0.04415426775813103,-0.018946008756756783,-1.070931315422058,1013.45996,
2021.01.16 15:59:50,65.0,24.0,37.077766,18.882723,-23.671799,0.18941323,0.45292172,9.793643,-0.013717059,-0.0035848583,0.022793146,-0.04620494693517685,-0.019338015466928482,-1.0827624797821045,1013.45996,
2021.01.16 15:59:50,65.0,24.0,36.645638,17.194826,-23.210154,0.2453693,0.46831867,9.758022,-0.0013057934,0.0030596554,0.025613533,-0.047941263765096664,-0.025140095502138138,-1.115044355392456,1013.4603,
2021.01.16 15:59:50,65.0,24.0,36.997276,18.138498,-23.713541,0.30924737,0.46736202,9.914838,0.033158895,-0.0026061018,0.0011441046,-0.0470799095928669,-0.031180253252387047,-1.100378155708313,1013.4607,
2021.01.16 15:59:50,65.0,24.0,36.3088,19.08052,-23.76522,0.2274223,0.4505323,9.685241,0.019111848,-0.020572385,0.017655108,-0.04647110775113106,-0.023477012291550636,-1.0710235834121704,1013.4607,
2021.01.16 15:59:50,65.0,24.0,35.62461,17.519785,-23.95508,0.17628585,0.45708653,9.687943,0.0026147235,5.4167677E-4,0.019676618,-0.04713821783661842,-0.01819440722465515,-1.0945570468902588,1013.4607,
2021.01.16 15:59:51,65.0,24.0,36.50402,17.167166,-23.427011,0.35124826,0.53144264,9.765956,-0.005155086,-0.007202235,0.0023695878,-0.05432920157909393,-0.03595110774040222,-1.1140168905258179,1013.4607,
2021.01.16 15:59:51,65.0,24.0,35.979942,17.456203,-23.30485,0.22182162,0.44764337,9.721135,-0.004817642,-0.008355943,-0.010212805,-0.046004001051187515,-0.02281453087925911,-1.1023313999176025,1013.4607,
2021.01.16 15:59:51,65.0,24.0,35.733406,18.007631,-23.400488,0.2808126,0.5230236,9.742355,-0.0068515376,-0.0030825152,-0.0016578883,-0.05361182615160942,-0.028815913945436478,-1.0857609510421753,1013.4607,
2021.01.16 15:59:51,65.0,24.0,36.273216,19.041082,-23.91581,0.22390704,0.50340515,9.814879,-0.010797387,-0.004131916,-0.006595963,-0.051231786608695984,-0.022809062153100967,-1.0689328908920288,1013.4607,
2021.01.16 15:59:51,65.0,24.0,36.859367,17.926699,-24.296482,0.25532964,0.4790827,9.686275,0.004838192,-0.0014086086,0.009804209,-0.04940254986286163,-0.02635383978486061,-1.100494146347046,1013.4607,
2021.01.16 15:59:51,65.0,24.0,36.1744,18.8035,-24.212147,0.24761225,0.47612122,9.838819,-0.007155377,-0.015172902,0.009444545,-0.048339106142520905,-0.025161556899547577,-1.0746068954467773,1013.4615,
2021.01.16 15:59:51,65.0,24.0,36.909798,17.926964,-23.337603,0.27467212,0.46100008,9.719203,0.008094564,-0.0036885373,0.014903143,-0.04737747088074684,-0.02825324609875679,-1.1032130718231201,1013.46185,
2021.01.16 15:59:51,65.0,24.0,36.67251,18.031698,-23.657753,0.2627972,0.4628818,9.750945,0.0018958088,0.0028645382,0.012443105,-0.04741765186190605,-0.026944424957036972,-1.0978131294250488,1013.46204,
2021.01.16 15:59:51,65.0,24.0,38.009346,18.132965,-24.391079,0.28992847,0.46827927,9.768313,0.0077702813,0.002541257,0.010179261,-0.0478808730840683,-0.029671793803572655,-1.109900712966919,1013.46216,
2021.01.16 15:59:51,65.0,24.0,37.23385,17.206343,-23.153795,0.25454578,0.44531047,9.677247,0.006649932,-0.0019226293,0.009444787,-0.04596791788935661,-0.026297468692064285,-1.122235655784607,1013.46216,
2021.01.16 15:59:51,65.0,24.0,36.596382,17.984365,-24.53897,0.2465549,0.4872563,9.840919,-0.0070719845,-0.002734462,0.012780315,-0.04945739731192589,-0.025048812851309776,-1.0958144664764404,1013.46216,
2021.01.16 15:59:51,65.0,24.0,37.198708,17.638058,-24.114372,0.3057655,0.45928597,9.737934,0.008412473,0.003992955,0.013422031,-0.047106511890888214,-0.031389109790325165,-1.112860918045044,1013.4634,
2021.01.16 15:59:51,65.0,24.0,36.949318,18.011814,-23.325499,0.2858108,0.49883303,9.774465,0.0039072786,0.010402119,0.010334064,-0.05096832662820816,-0.02923223003745079,-1.100501298904419,1013.4634,
2021.01.16 15:59:51,65.0,24.0,36.98809,17.719444,-23.373446,0.21283706,0.4657582,9.746497,0.007884461,0.0118986815,0.0018888745,-0.04773955047130585,-0.021833816543221474,-1.1064856052398682,1013.4634,
2021.01.16 15:59:51,65.0,24.0,37.808205,18.307503,-22.901577,0.24737453,0.44943285,9.782722,0.0065711616,-0.0061414703,0.022865186,-0.0458945594727993,-0.025281492620706558,-1.1049162149429321,1013.4634,
2021.01.16 15:59:52,65.0,24.0,36.808754,18.15458,-23.341257,0.29219216,0.49292827,9.768166,0.010804869,-0.010114279,0.025509568,-0.05039745196700096,-0.029903778806328773,-1.0964031219482422,1013.4634,
2021.01.16 15:59:52,65.0,24.0,36.304787,17.742207,-23.822432,0.3108662,0.47109863,9.711187,0.012277672,-0.007988119,0.02392425,-0.048448141664266586,-0.03200021758675575,-1.1008193492889404,1013.4634,
2021.01.16 15:59:52,65.0,24.0,36.27317,18.72622,-23.40393,0.26631185,0.48476294,9.734626,0.0026716907,-0.013867645,0.0152497105,-0.049738116562366486,-0.027350353077054024,-1.0779509544372559,1013.4634,
2021.01.16 15:59:52,65.0,24.0,37.418526,18.114674,-24.333681,0.28850183,0.49101898,9.76907,0.001530861,-0.006526272,0.015393972,-0.0501985028386116,-0.029523590579628944,-1.1030306816101074,1013.4634,
2021.01.16 15:59:52,65.0,24.0,36.770103,17.89671,-23.347425,0.31243953,0.48179105,9.739013,0.00588914,-0.0074473526,0.01806272,-0.04940454289317131,-0.032070234417915344,-1.1024845838546753,1013.4634,
2021.01.16 15:59:52,65.0,24.0,35.412727,17.845648,-24.391136,0.32382372,0.479591,9.721176,-0.0046111853,6.8527163E-4,0.005134579,-0.04926742613315582,-0.033298853784799576,-1.0882424116134644,1013.4634,
2021.01.16 15:59:52,65.0,24.0,36.29516,17.519512,-23.819895,0.3115997,0.5010941,9.769319,0.0069584865,-0.004180552,0.008120062,-0.05122172087430954,-0.03188493475317955,-1.1041680574417114,1013.4634,
2021.01.16 15:59:52,65.0,24.0,35.492912,17.162079,-23.779694,0.26399314,0.48448762,9.80862,1.2964895E-4,-0.0054067024,0.007040902,-0.049336113035678864,-0.02690790593624115,-1.102586030960083,1013.4634,
2021.01.16 15:59:52,65.0,24.0,35.92045,17.259703,-23.608925,0.33908764,0.50152236,9.706756,0.020538133,-0.0013945731,0.014618102,-0.05159003660082817,-0.03491896018385887,-1.1065523624420166,1013.4634,
2021.01.16 15:59:52,65.0,24.0,36.011833,16.81102,-23.000141,0.26304087,0.44884586,9.695619,0.005025184,-0.0010585131,-0.0037035514,-0.046243660151958466,-0.027123218402266502,-1.1181401014328003,1013.4634,
2021.01.16 15:59:52,65.0,24.0,36.191475,16.517666,-24.356436,0.40890953,0.5853867,9.768628,-0.0019191862,0.004694563,0.012087984,-0.05980135127902031,-0.04183504357933998,-1.1231359243392944,1013.46216,
2021.01.16 15:59:52,65.0,24.0,36.211937,17.63868,-23.610678,0.27515057,0.48637542,9.744011,0.0049304683,0.0021210967,-0.021812536,-0.0498540885746479,-0.028230415657162666,-1.1004443168640137,1013.4615,
2021.01.16 15:59:52,65.0,24.0,36.16697,17.8692,-23.276684,0.27614698,0.4957436,9.733836,0.0024493842,-6.2008965E-4,-0.0047638016,-0.0508655346930027,-0.02836219221353531,-1.094823956489563,1013.4607,
2021.01.16 15:59:53,65.0,24.0,36.280876,17.604174,-24.064878,0.33128747,0.54027694,9.781686,0.0055393702,0.0042254673,-0.016361414,-0.05514590069651604,-0.033855196088552475,-1.1007381677627563,1013.46027,
2021.01.16 15:59:53,65.0,24.0,37.138145,17.577847,-23.969992,0.25726175,0.5018327,9.765327,0.010090417,0.004357743,-0.009139191,-0.051326293498277664,-0.02633831463754177,-1.1102133989334106,1013.4581,
2021.01.16 15:59:53,65.0,24.0,36.619804,17.536114,-23.817078,0.21579248,0.4897132,9.693031,0.009939894,-0.0018966442,-0.015919816,-0.050466787070035934,-0.02225896343588829,-1.1049236059188843,1013.45795,
2021.01.16 15:59:53,65.0,24.0,36.688545,17.073158,-24.223963,0.28468516,0.50672585,9.755448,-0.005329766,-0.010627056,-0.0067195534,-0.05187417194247246,-0.029173891991376877,-1.1166006326675415,1013.4575,
2021.01.16 15:59:53,65.0,24.0,37.753273,17.631983,-23.076143,0.32516626,0.534333,9.772325,8.064925E-4,0.0016090905,0.003251322,-0.05459364131093025,-0.03326192498207092,-1.1166313886642456,1013.457,
2021.01.16 15:59:53,65.0,24.0,37.20356,18.210142,-23.861935,0.297502,0.51724577,9.667708,9.402458E-4,0.0032706938,-0.0059649395,-0.053426217287778854,-0.030763044953346252,-1.0979771614074707,1013.4567,
2021.01.16 15:59:53,65.0,24.0,36.291985,17.640541,-23.476652,0.22888891,0.5640835,9.87173,-0.010839706,-0.020736784,-0.0028081567,-0.05706392973661423,-0.02318214811384678,-1.0965776443481445,1013.4567,
2021.01.16 15:59:53,65.0,24.0,36.750557,18.695766,-23.990952,0.31719762,0.5127923,9.707751,0.011430253,-0.0033127547,0.010523753,-0.05274583026766777,-0.03266305848956108,-1.083687424659729,1013.4567,
2021.01.16 15:59:53,65.0,24.0,36.952522,17.160633,-23.923512,0.3496841,0.5083833,9.697447,7.103584E-4,0.008905073,0.005381789,-0.05234254151582718,-0.03604378178715706,-1.1194381713867188,1013.45654,
2021.01.16 15:59:53,65.0,24.0,37.24247,17.75207,-24.18345,0.3006461,0.5210162,9.793419,-0.004711229,0.002532123,-0.0023196922,-0.05312555655837059,-0.030689150094985962,-1.1078568696975708,1013.4564,
2021.01.16 15:59:53,65.0,24.0,35.038124,20.406982,-23.187782,0.3320268,0.5220769,9.746085,0.0047505056,0.019779384,-0.0039565577,-0.05348573625087738,-0.03405454382300377,-1.02897047996521,1013.45636,
2021.01.16 15:59:53,65.0,24.0,38.19819,18.184137,-23.136902,0.3000386,0.4874182,9.738522,2.0066602E-4,0.008733941,-0.008544356,-0.049985121935606,-0.03079971857368946,-1.111026644706726,1013.45636,
2021.01.16 15:59:53,65.0,24.0,36.90412,17.989332,-22.59617,0.2638743,0.50601023,9.759246,3.7079025E-4,0.010966488,-0.005835424,-0.05178403854370117,-0.027031801640987396,-1.1000899076461792,1013.45636,
2021.01.16 15:59:53,65.0,24.0,36.078606,18.109194,-23.623959,0.2570122,0.5171216,9.775834,0.0027754651,0.01890141,-0.0025279487,-0.05283047631382942,-0.026284508407115936,-1.0869171619415283,1013.4561,
2021.01.16 15:59:54,65.0,24.0,36.947197,18.014154,-23.504206,0.26984975,0.5190062,9.699783,-0.0023772442,0.0021695348,0.0030505531,-0.05343537777662277,-0.027813008055090904,-1.0987733602523804,1013.456,
2021.01.16 15:59:54,65.0,24.0,36.014397,18.22819,-23.42869,0.22816908,0.52043605,9.819057,0.011103893,0.0077535463,0.009809834,-0.05293884128332138,-0.023233190178871155,-1.0828652381896973,1013.456,
2021.01.16 15:59:54,65.0,24.0,37.136223,18.92724,-23.011295,0.28860533,0.48518834,9.707629,-0.0013967501,0.0013832578,0.006229206,-0.04991653561592102,-0.029720989987254143,-1.0842572450637817,1013.456,
2021.01.16 15:59:54,65.0,24.0,36.551125,17.377872,-23.581902,0.3680161,0.57722735,9.781029,-0.0044033877,0.0063443263,0.044752218,-0.058905042707920074,-0.03760776296257973,-1.10825777053833,1013.456,
2021.01.16 15:59:54,65.0,24.0,37.22857,17.859348,-24.127352,0.3124604,0.51527774,9.695081,0.0019286205,0.008905969,0.009072969,-0.053070906549692154,-0.0322176031768322,-1.105958104133606,1013.456,
2021.01.16 15:59:54,65.0,24.0,37.15937,17.876596,-23.26758,0.13515757,0.44139194,9.813492,-0.011710454,0.008750383,-4.3670996E-4,-0.04494352266192436,-0.01377175748348236,-1.1041072607040405,1013.456,
2021.01.16 15:59:54,65.0,24.0,37.061317,18.842146,-24.631462,0.29379746,0.5185673,9.690849,-0.00219901,0.012114557,0.029686669,-0.053435537964105606,-0.030307713896036148,-1.0825878381729126,1013.456,
2021.01.16 15:59:54,65.0,24.0,37.66227,17.380564,-23.94545,0.2423201,0.4716266,9.80526,-0.014302019,0.0054522855,0.013525352,-0.048047661781311035,-0.024708246812224388,-1.1209579706192017,1013.456,
2021.01.16 15:59:54,65.0,24.0,36.253883,18.507807,-23.283293,0.23588948,0.45086685,9.680934,-0.0069248467,0.0012308047,0.020281076,-0.04652523994445801,-0.02436157502233982,-1.0830178260803223,1013.456,
2021.01.16 15:59:54,65.0,24.0,36.031075,16.691946,-23.328144,0.21316783,0.44031242,9.76986,-0.020317044,-4.4496363E-4,0.011387238,-0.045027267187833786,-0.021815462037920952,-1.1198471784591675,1013.456,
2021.01.16 15:59:54,65.0,24.0,36.718193,17.509035,-22.901907,0.27137324,0.4421853,9.722695,-0.021203207,-8.302122E-4,0.01846851,-0.04543071985244751,-0.027904072776436806,-1.111169457435608,1013.456,
2021.01.16 15:59:54,65.0,24.0,37.19445,17.580095,-24.316708,0.24225187,0.4431049,9.773215,-0.026756488,-8.0035004E-4,0.009316285,-0.04529378190636635,-0.024782251566648483,-1.1129194498062134,1013.456,
2021.01.16 15:59:54,65.0,24.0,36.998695,18.053183,-23.546642,0.21798162,0.42485693,9.779457,-0.024301501,-9.32406E-4,0.008492771,-0.043405745178461075,-0.022286055609583855,-1.1015182733535767,1013.456,
2021.01.16 15:59:54,65.0,24.0,37.444954,18.08283,-24.310266,0.24718551,0.44329956,9.8005,-0.019122388,0.0012233309,0.010360478,-0.04518718272447586,-0.025216378271579742,-1.105121374130249,1013.456,
2021.01.16 15:59:54,65.0,24.0,36.70652,19.462505,-22.312262,0.15817864,0.38928565,9.770172,-0.0062124203,-0.007657622,0.009167328,-0.03981802240014076,-0.016188541427254677,-1.069468379020691,1013.4561,
2021.01.16 15:59:55,65.0,24.0,37.610542,17.223824,-23.771803,0.30813026,0.41809145,9.834872,-0.0049567693,-0.00712339,0.028366558,-0.042464729398489,-0.031320132315158844,-1.1282609701156616,1013.45636,
2021.01.16 15:59:55,65.0,24.0,36.837624,17.786999,-23.950325,0.31283495,0.47125673,9.87115,0.013008529,-0.0049910815,0.004528435,-0.04768068715929985,-0.03168123960494995,-1.105803370475769,1013.45654,
2021.01.16 15:59:55,65.0,24.0,37.79368,17.533472,-23.279306,0.20065439,0.3947438,9.699387,0.038068175,-0.007097847,-0.009077739,-0.040666669607162476,-0.0206843763589859,-1.121891975402832,1013.45703,
2021.01.16 15:59:55,65.0,24.0,37.48098,16.752232,-23.620893,0.22589733,0.4000437,9.72848,0.025150008,-0.0133241275,0.0033853608,-0.04108666628599167,-0.023216035217046738,-1.1356816291809082,1013.4571,
2021.01.16 15:59:55,65.0,24.0,37.824318,17.07816,-22.624523,0.28835717,0.4529735,9.698417,0.013971595,-0.008528546,0.0024492093,-0.04665141925215721,-0.0297236405313015,-1.131942629814148,1013.4573,
2021.01.16 15:59:55,65.0,24.0,35.653877,17.911837,-22.797447,0.21861963,0.43807468,9.713922,0.007945402,-0.0037085328,-0.004112813,-0.04505568742752075,-0.022502006962895393,-1.0894930362701416,1013.45734,
2021.01.16 15:59:55,65.0,24.0,35.395515,16.468721,-23.36382,0.23932594,0.46917915,9.767041,-0.0040426045,-0.012224522,0.005951171,-0.04798570275306702,-0.02449852041900158,-1.1172122955322266,1013.45734,
2021.01.16 15:59:55,65.0,24.0,36.324287,16.405357,-23.569366,0.3118228,0.4931791,9.740532,0.002903969,-0.0069237007,0.012589334,-0.05056258291006088,-0.032001983374357224,-1.1292686462402344,1013.4586,
2021.01.16 15:59:55,65.0,24.0,37.04673,16.49859,-23.424,0.24779373,0.43331036,9.712593,-0.005653909,-0.0033415307,0.015527055,-0.04456920549273491,-0.025507092475891113,-1.1358776092529297,1013.4587,
2021.01.16 15:59:55,65.0,24.0,36.056633,17.292622,-23.901712,0.3166655,0.45850694,9.716549,-0.008925617,0.0015501571,0.0017584893,-0.047128286212682724,-0.03257879614830017,-1.1085513830184937,1013.4588,
2021.01.16 15:59:55,65.0,24.0,36.850853,17.285921,-23.13439,0.3292593,0.46574426,9.74013,-0.0056706215,-0.0015615504,-0.008961115,-0.047753412276506424,-0.03379153832793236,-1.1177376508712769,1013.4602,
2021.01.16 15:59:55,65.0,24.0,35.87063,17.739964,-23.894459,0.27770418,0.40192556,9.719411,0.0020434083,-0.00692834,-0.012495088,-0.041312482208013535,-0.028564348816871643,-1.098434567451477,1013.46027,
2021.01.16 15:59:55,65.0,24.0,36.681145,17.884907,-23.038946,0.27658713,0.44100425,9.790818,-8.197692E-4,0.0015212817,-0.0053289225,-0.044994283467531204,-0.02824213355779648,-1.1029232740402222,1013.46027,
2021.01.16 15:59:55,65.0,24.0,36.154472,18.11923,-23.203976,0.33617926,0.43641743,9.728645,0.0048201303,0.004585581,-0.0023810768,-0.04480225592851639,-0.034541863948106766,-1.0938819646835327,1013.4604,
2021.01.16 15:59:56,65.0,24.0,36.308144,17.09055,-23.78562,0.28269866,0.39329454,9.801274,8.995882E-4,-4.1425513E-4,-0.011788211,-0.0400887094438076,-0.028835058212280273,-1.1180603504180908,1013.4607,
2021.01.16 15:59:56,65.0,24.0,35.703743,18.087818,-23.240149,0.33503118,0.44171286,9.688947,0.008184342,0.005096466,-0.0050427746,-0.045530639588832855,-0.03456492722034454,-1.0891743898391724,1013.46094,
2021.01.16 15:59:56,65.0,24.0,36.16253,17.387678,-23.156096,0.21441011,0.41349635,9.789076,1.14516355E-4,0.0046539907,0.0025017723,-0.042205385863780975,-0.021899495273828506,-1.1074737310409546,1013.46124,
2021.01.16 15:59:56,65.0,24.0,35.566536,16.906788,-23.524862,0.263577,0.4367647,9.823154,-0.009093,0.0026273122,-0.007892758,-0.04441754147410393,-0.026825780048966408,-1.1115895509719849,1013.4616,
2021.01.16 15:59:56,65.0,24.0,36.186913,18.200218,-23.80713,0.3019091,0.42896923,9.733695,0.0041608694,0.006005435,-0.0017968277,-0.04402090609073639,-0.031006963923573494,-1.09152352809906,1013.4617,
2021.01.16 15:59:56,65.0,24.0,36.648735,17.750473,-22.951288,0.30180916,0.42804003,9.765847,-3.347518E-4,0.00174139,-0.0072166426,-0.04378138855099678,-0.030894722789525986,-1.1067663431167603,1013.46173,
2021.01.16 15:59:56,65.0,24.0,37.222008,16.778986,-22.856123,0.24502385,0.42715517,9.766732,0.0054421574,0.0073689115,-0.011162094,-0.0436941459774971,-0.025082336738705635,-1.1322598457336426,1013.46185,
2021.01.16 15:59:56,65.0,24.0,37.146584,17.376053,-23.551691,0.33504757,0.44724444,9.760268,0.0077323904,0.0024514047,-0.005359372,-0.0457640178501606,-0.03431422635912895,-1.1196688413619995,1013.4622,
2021.01.16 15:59:56,65.0,24.0,36.892616,18.12273,-23.408724,0.22304122,0.40882158,9.7684965,0.0037527261,0.005772079,-0.019868659,-0.041815727949142456,-0.022828740999102592,-1.0998778343200684,1013.4625,
2021.01.16 15:59:56,65.0,24.0,37.75808,18.622671,-23.292282,0.24244606,0.4409488,9.731866,0.0025429176,0.007614762,-0.0055507747,-0.045264795422554016,-0.024907445535063744,-1.0977699756622314,1013.4626,
2021.01.16 15:59:56,65.0,24.0,36.649406,17.151714,-23.080654,0.22067149,0.44609126,9.787869,2.4010101E-4,0.0016469366,0.006879288,-0.04553285986185074,-0.022541586309671402,-1.1165252923965454,1013.46265,
2021.01.16 15:59:56,65.0,24.0,36.145332,18.372232,-23.594183,0.2939973,0.45981503,9.713,-5.165939E-4,0.0023750656,0.009872348,-0.047283221036195755,-0.03025919198989868,-1.085811734199524,1013.46265,
2021.01.16 15:59:56,65.0,24.0,36.910744,17.024944,-23.141485,0.21430059,0.4383538,9.797436,-0.0049641686,0.019732635,-0.0017427315,-0.044701192528009415,-0.021869642660021782,-1.1221927404403687,1013.4627,
2021.01.16 15:59:57,65.0,24.0,37.213493,17.79813,-23.811079,0.28548014,0.45127308,9.787763,0.01204495,0.010056083,0.005012565,-0.04605366289615631,-0.029158780351281166,-1.1097043752670288,1013.46295,
2021.01.16 15:59:57,65.0,24.0,36.536522,17.693129,-22.923174,0.27778143,0.49038246,9.710723,0.02273968,0.008446294,-0.011167931,-0.05043561011552811,-0.028597839176654816,-1.1031838655471802,1013.46313,
2021.01.16 15:59:57,65.0,24.0,37.138252,19.137268,-22.56171,0.16387789,0.40996382,9.763425,0.0020955328,7.3637656E-4,-0.015024026,-0.04195920377969742,-0.016783300787210464,-1.0801270008087158,1013.46313,
2021.01.16 15:59:57,65.0,24.0,37.31359,18.554054,-25.321278,0.2863836,0.49222612,9.703545,0.004647923,0.010941356,0.0041341777,-0.050660960376262665,-0.02950473316013813,-1.0918328762054443,1013.4635,
2021.01.16 15:59:57,65.0,24.0,35.746376,17.264536,-22.46661,0.20103405,0.44983134,9.7990465,0.0056634997,0.0035003729,-0.0025261291,-0.04586378484964371,-0.020512796938419342,-1.1039988994598389,1013.4635,
2021.01.16 15:59:57,65.0,24.0,37.141304,16.896318,-23.560791,0.24012946,0.45983014,9.794053,-0.0056172307,0.0033593401,-0.0025023313,-0.046901408582925797,-0.024512972682714462,-1.126737356185913,1013.4635,
2021.01.16 15:59:57,65.0,24.0,37.407433,18.243444,-23.283709,0.2325062,0.47276673,9.764264,0.007913155,0.0037417877,-0.0033195347,-0.04836658760905266,-0.023807452991604805,-1.100239634513855,1013.4636,
2021.01.16 15:59:57,65.0,24.0,37.071877,18.818087,-23.107096,0.1703108,0.40459165,9.758761,0.004687601,-0.0030919546,-0.008168105,-0.04142928868532181,-0.01745031774044037,-1.0860826969146729,1013.4637,
2021.01.16 15:59:57,65.0,24.0,36.097282,18.10721,-24.904192,0.24967623,0.47797117,9.7407875,0.007050158,0.0049980204,0.0062898826,-0.0490136481821537,-0.025626424700021744,-1.087775707244873,1013.46387,
2021.01.16 15:59:57,65.0,24.0,35.863853,18.403496,-23.909185,0.16787054,0.4505864,9.791615,0.0040925597,0.008769218,-0.011493851,-0.04597838968038559,-0.017142636701464653,-1.0784510374069214,1013.464,
2021.01.16 15:59:57,65.0,24.0,37.10775,18.695381,-23.686186,0.16714065,0.4356319,9.712651,0.00884452,0.013219311,0.0018841056,-0.044815339148044586,-0.01720685325562954,-1.0870076417922974,1013.4642,
2021.01.16 15:59:57,65.0,24.0,35.976402,19.051815,-22.965788,0.19196947,0.4588996,9.734982,-3.090594E-5,0.005355439,0.006131218,-0.047095224261283875,-0.01971699483692646,-1.0669827461242676,1013.4642,
2021.01.16 15:59:57,65.0,24.0,36.978676,19.070707,-22.870604,0.16782288,0.47246984,9.737405,6.03087E-4,-0.0015224041,0.009485184,-0.04847591370344162,-0.017233161255717278,-1.0767585039138794,1013.4642,
2021.01.16 15:59:57,65.0,24.0,36.763878,18.706682,-23.87216,0.19800194,0.4703336,9.79474,-0.0022792262,-0.0041063814,0.0101460535,-0.047972358763217926,-0.02021237649023533,-1.0822336673736572,1013.4642,
2021.01.16 15:59:58,65.0,24.0,36.16854,17.345509,-22.366447,0.2101378,0.4801458,9.749682,0.0036311736,-0.0021830779,0.010745286,-0.049196165055036545,-0.02154996059834957,-1.105735182762146,1013.46436,
2021.01.16 15:59:58,65.0,24.0,36.41816,17.819754,-23.84713,0.22118862,0.47695318,9.794759,7.284898E-5,-0.0069211232,0.008909785,-0.048643916845321655,-0.022578507661819458,-1.097574234008789,1013.4645,
2021.01.16 15:59:58,65.0,24.0,37.10685,17.151508,-23.001247,0.2222306,0.48329768,9.69724,0.009204784,-0.003947174,0.009942682,-0.04978443309664726,-0.022912880405783653,-1.1195518970489502,1013.4645,
2021.01.16 15:59:58,65.0,24.0,35.91282,18.541227,-23.555511,0.1719182,0.47279957,9.781075,-3.3998862E-4,-0.010140029,0.0027218144,-0.048293158411979675,-0.01757480762898922,-1.0753939151763916,1013.4645,
2021.01.16 15:59:58,65.0,24.0,37.31089,17.524548,-22.724083,0.21720155,0.50631243,9.692508,0.008410208,-0.0017059883,0.010536351,-0.05217699334025383,-0.0224054716527462,-1.1127365827560425,1013.4645,
2021.01.16 15:59:58,65.0,24.0,36.775993,18.154705,-23.811766,0.1712328,0.4546086,9.812891,-0.007531998,5.511689E-4,0.0047240187,-0.046287551522254944,-0.01744800992310047,-1.094020962715149,1013.4645,
2021.01.16 15:59:58,65.0,24.0,36.354164,18.18612,-23.963223,0.2692156,0.5196294,9.694131,0.0036106661,0.0030900587,0.019565577,-0.053530629724264145,-0.02776385471224785,-1.0881990194320679,1013.46454,
2021.01.16 15:59:58,65.0,24.0,37.792305,18.247353,-23.79999,0.20635699,0.49205986,9.806302,-0.0056692073,-0.010539401,-5.880868E-4,-0.050124794244766235,-0.02104019746184349,-1.1022610664367676,1013.46454,
2021.01.16 15:59:58,65.0,24.0,36.20643,17.163733,-23.30005,0.23690309,0.47595784,9.695376,0.0037753158,-0.0011363921,0.0055652615,-0.04903722181916237,-0.02442978508770466,-1.11021888256073,1013.46454,
2021.01.16 15:59:58,65.0,24.0,36.987175,16.935328,-23.39406,0.20974128,0.44753328,9.6996565,-0.009456218,-0.0040671057,-0.0030034694,-0.046095628291368484,-0.021620208397507668,-1.1240187883377075,1013.46454,
2021.01.16 15:59:58,65.0,24.0,37.301872,19.45284,-24.112726,0.24271785,0.4868208,9.795013,-0.018322386,0.0017891689,-0.0024387126,-0.049644798040390015,-0.024774666875600815,-1.0732172727584839,1013.46454,
2021.01.16 15:59:58,65.0,24.0,37.750313,17.114275,-23.49314,0.28197604,0.47806463,9.70924,-0.014773635,-0.007055769,-0.023885278,-0.04917767643928528,-0.029033871367573738,-1.1284890174865723,1013.46454,
2021.01.16 15:59:58,65.0,24.0,36.395607,17.229507,-24.335144,0.22831656,0.42767182,9.748218,-0.006843077,-0.0016083103,-0.007526626,-0.04383167624473572,-0.02341708540916443,-1.1122723817825317,1013.46454,
2021.01.16 15:59:58,65.0,24.0,37.65679,17.282717,-22.933165,0.23053049,0.42887184,9.780337,-0.010099734,0.0016068642,-0.011222031,-0.04381018877029419,-0.02356644719839096,-1.125369668006897,1013.46454,
2021.01.16 15:59:59,65.0,24.0,35.826973,19.361095,-23.888529,0.19640528,0.42189714,9.775043,-0.0013101136,0.0034832833,-0.009631383,-0.043125178664922714,-0.02008982002735138,-1.0600155591964722,1013.46454,
2021.01.16 15:59:59,65.0,24.0,35.86573,18.236637,-24.581308,0.26462176,0.4366571,9.788891,0.0017915694,-0.0042461515,-0.008708749,-0.04456160217523575,-0.027026284486055374,-1.0852347612380981,1013.46454,
2021.01.16 15:59:59,65.0,24.0,36.18931,18.324806,-24.12046,0.1439236,0.41431454,9.693633,0.007181297,0.009964358,-0.010290947,-0.04271019622683525,-0.014846138656139374,-1.0845725536346436,1013.4648,
2021.01.16 15:59:59,65.0,24.0,36.30387,17.279531,-23.884855,0.18557428,0.38899544,9.7664995,-0.006425814,-0.002132939,0.004235113,-0.03980134800076485,-0.01899881847202778,-1.1112256050109863,1013.465,
2021.01.16 15:59:59,65.0,24.0,36.325447,17.97047,-23.157766,0.23758171,0.47160533,9.756314,-0.0038454589,0.001476831,0.006054736,-0.04828658327460289,-0.02434677444398403,-1.0945377349853516,1013.4651,
2021.01.16 15:59:59,65.0,24.0,36.965233,19.175291,-23.883104,0.16533762,0.38540974,9.735688,-0.008689041,-8.2972687E-4,0.01275032,-0.0395609550178051,-0.01698100008070469,-1.0776838064193726,1013.4651,
2021.01.16 15:59:59,65.0,24.0,36.94732,17.907488,-24.499367,0.22962141,0.42453817,9.771268,-0.0038796198,0.021635668,-0.0014801702,-0.04340832680463791,-0.023495331406593323,-1.103753924369812,1013.4651,
2021.01.16 15:59:59,65.0,24.0,38.079506,19.510954,-22.256178,0.26357058,0.44157255,9.7398405,0.010151133,0.012243853,0.008278785,-0.04528915509581566,-0.027054473757743835,-1.0842918157577515,1013.4651,
2021.01.16 15:59:59,65.0,24.0,37.500633,19.096033,-23.963251,0.1751707,0.44872606,9.834061,0.010018447,0.015575677,-0.015467454,-0.04559093341231346,-0.017810769379138947,-1.0826283693313599,1013.4651,
2021.01.16 15:59:59,65.0,24.0,37.73809,18.036058,-22.808516,0.10786667,0.41840032,9.663361,0.029171437,0.015180754,-0.0049018627,-0.043267883360385895,-0.011161974631249905,-1.1073107719421387,1013.4651,
2021.01.16 15:59:59,65.0,24.0,37.081398,18.269566,-23.304949,0.17748009,0.4988427,9.800269,0.013536208,0.013978901,-0.0014354973,-0.05084870010614395,-0.018107738345861435,-1.0934300422668457,1013.4651,
2021.01.16 15:59:59,65.0,24.0,36.07189,17.936419,-23.546892,0.16463245,0.47608635,9.717217,0.019035855,0.005795912,-0.010969311,-0.04894794523715973,-0.016940724104642868,-1.0896620750427246,1013.4651,
2021.01.16 15:59:59,65.0,24.0,37.32879,18.796135,-23.308867,0.034257095,0.45778385,9.473214,0.015950117,-0.0048923404,-0.004580123,-0.04828614741563797,-0.00361619028262794,-1.082103967666626,1013.4651,
