Time,X-cord,Y-cord,Mag_x,Mag_y,Mag_z,Acc_x,Acc_y,Acc_z,Gyro_x,Gyro_y,Gyro_z,Orn_x,Orn_y,Orn_z,Pressure,
2021.01.16 15:49:37,29.0,24.0,27.612198,12.518451,-25.540522,-0.13886258,0.8406105,9.223599,0.061972503,0.013330076,-0.009332322,-0.09087561070919037,0.015054002404212952,-1.0722343921661377,1013.17,
2021.01.16 15:49:37,29.0,24.0,28.038383,12.053573,-26.018736,0.079479486,0.8714123,9.671155,-0.12807854,-0.120188564,-0.0077876,-0.08985857665538788,-0.008218015544116497,-1.1016865968704224,1013.17,
2021.01.16 15:49:37,29.0,24.0,27.573692,11.985269,-26.243864,0.077241175,0.89218885,9.843887,-0.11529389,-0.07657712,-0.032186396,-0.09038406610488892,-0.007846452295780182,-1.0958048105239868,1013.16394,
2021.01.16 15:49:38,29.0,24.0,27.338692,11.398383,-26.288317,-0.0043300525,0.81820613,9.771501,-0.07463072,-0.06613311,-0.024688601,-0.08353904634714127,4.4313076068647206E-4,-1.1103837490081787,1013.16394,
2021.01.16 15:49:38,29.0,24.0,28.29615,11.189617,-26.106976,0.087019555,0.72840863,9.780773,-0.0487411,-0.04957867,0.014194101,-0.07433336228132248,-0.008896767161786556,-1.1409249305725098,1013.16534,
2021.01.16 15:49:38,29.0,24.0,27.254501,12.826192,-26.108032,0.23778121,0.8084875,9.906114,0.02452448,-0.0059821885,-0.0033949313,-0.08141116052865982,-0.023998873308300972,-1.081191897392273,1013.1656,
2021.01.16 15:49:38,29.0,24.0,26.272293,11.993205,-26.182875,0.072797276,0.7090485,9.719253,0.005176276,-0.013374692,-0.006846209,-0.07282193750143051,-0.0074898675084114075,-1.0886377096176147,1013.16565,
2021.01.16 15:49:38,29.0,24.0,25.728233,11.416968,-26.050104,0.09350112,0.75889564,9.762859,0.006398241,-0.0010363205,0.0013410135,-0.07757338136434555,-0.009576934389770031,-1.0950899124145508,1013.16565,
2021.01.16 15:49:38,29.0,24.0,25.94429,11.903392,-26.75673,0.18499492,0.73792416,9.726758,0.020034933,-0.018042905,-0.0025927522,-0.07570669800043106,-0.01901688426733017,-1.0882408618927002,1013.16565,
2021.01.16 15:49:38,29.0,24.0,26.17871,12.18258,-25.299128,0.02554801,0.7531232,9.736031,0.008631954,-0.03321614,-0.018356526,-0.07720023393630981,-0.002624062355607748,-1.0780307054519653,1013.16565,
2021.01.16 15:49:38,29.0,24.0,26.48397,12.386243,-26.09989,0.117392085,0.7805031,9.732873,0.008108744,-0.023642903,-0.004199071,-0.08001543581485748,-0.012060815468430519,-1.0774905681610107,1013.16565,
2021.01.16 15:49:38,29.0,24.0,26.670326,11.911453,-24.92739,0.1857273,0.8082843,9.694327,0.015877716,0.011473145,1.8618768E-4,-0.08316944539546967,-0.01915600523352623,-1.0975629091262817,1013.1656,
2021.01.16 15:49:38,29.0,24.0,26.710396,12.046674,-25.786465,0.11413384,0.8420647,9.7955065,0.026280226,0.004840375,-0.009758124,-0.08574776351451874,-0.011651125736534595,-1.0872244834899902,1013.16534,
2021.01.16 15:49:38,29.0,24.0,28.41787,12.016049,-25.427736,0.043307673,0.8173081,9.811681,0.042617254,-0.018491888,0.006651123,-0.08310683816671371,-0.004413860850036144,-1.112490177154541,1013.16534,
2021.01.16 15:49:38,29.0,24.0,26.070053,12.529398,-26.311947,0.13081743,0.804894,9.671964,0.04598803,-0.037358444,0.047280557,-0.08302041888237,-0.013524601235985756,-1.0648844242095947,1013.16406,
2021.01.16 15:49:38,29.0,24.0,26.200958,11.6467705,-25.593649,0.14731126,0.74830204,9.673181,0.023114808,-0.015322344,0.026708167,-0.07719574868679047,-0.01522765588015318,-1.09932541847229,1013.16406,
2021.01.16 15:49:38,29.0,24.0,26.839104,11.927027,-25.550846,0.08485005,0.8045246,9.695305,0.017977076,0.017896915,0.026631074,-0.08278800547122955,-0.008751440793275833,-1.093971848487854,1013.16394,
2021.01.16 15:49:39,29.0,24.0,26.530281,11.305891,-26.880394,0.16989231,0.86612636,9.695693,0.0032911997,0.012319399,0.050768603,-0.08908095210790634,-0.017520658671855927,-1.1038312911987305,1013.16345,
2021.01.16 15:49:39,29.0,24.0,28.247398,10.954685,-25.81985,0.21588613,0.8561352,9.76077,-0.01343888,0.018009309,0.030329546,-0.08746667206287384,-0.02211412973701954,-1.1436773538589478,1013.16345,
2021.01.16 15:49:39,29.0,24.0,26.81839,11.126926,-26.611256,0.13150315,0.85588855,9.682587,-0.002396727,0.029538363,0.010360523,-0.08815737068653107,-0.013580571860074997,-1.1128838062286377,1013.16345,
2021.01.16 15:49:39,29.0,24.0,27.310768,10.615889,-26.362476,0.16008267,0.8823953,9.812263,-0.009293629,0.016588828,0.008008571,-0.0896747037768364,-0.016313103958964348,-1.1356537342071533,1013.16345,
2021.01.16 15:49:39,29.0,24.0,26.432045,11.240582,-26.190239,0.103613526,0.8965437,9.695514,5.5824267E-4,-0.01102349,0.0030079472,-0.09220249950885773,-0.010686342604458332,-1.10049569606781,1013.16345,
2021.01.16 15:49:39,29.0,24.0,26.81186,11.285185,-26.7112,0.06861177,0.91184944,9.676015,0.02209033,8.0202357E-4,0.0064101303,-0.093958280980587,-0.007090792991220951,-1.1005555391311646,1013.16327,
2021.01.16 15:49:39,29.0,24.0,26.550568,10.895484,-26.259443,0.0874477,0.86457425,9.685969,0.010339454,-0.011689238,0.005895785,-0.08902094513177872,-0.009028040803968906,-1.1139748096466064,1013.16327,
2021.01.16 15:49:39,29.0,24.0,26.351341,11.376199,-25.012018,0.17041077,0.9202385,9.678562,0.0017168882,-0.010134466,0.0056198277,-0.09478050470352173,-0.017605215311050415,-1.0995864868164062,1013.1626,
2021.01.16 15:49:39,29.0,24.0,26.956314,11.037877,-26.426125,0.06601188,0.88566947,9.759881,-0.0042929496,-0.019209247,-0.0076117087,-0.0904960036277771,-0.006763491779565811,-1.1131469011306763,1013.16254,
2021.01.16 15:49:39,29.0,24.0,27.297363,10.344896,-26.00541,0.10960957,0.88989544,9.701791,0.005564173,-0.008574127,0.007216396,-0.0914631113409996,-0.011297388933598995,-1.1409317255020142,1013.1626,
2021.01.16 15:49:39,29.0,24.0,26.409012,10.714448,-26.723553,0.114778005,0.8500612,9.620299,-3.402913E-5,-0.0051022796,0.008013976,-0.08812607079744339,-0.011930247768759727,-1.1181644201278687,1013.16327,
2021.01.16 15:49:39,29.0,24.0,27.17498,9.509198,-25.733618,0.16050144,0.8960729,9.78709,-0.017453838,-0.004530772,0.010143453,-0.09128986299037933,-0.016397830098867416,-1.1674692630767822,1013.16327,
2021.01.16 15:49:39,29.0,24.0,26.715073,11.366305,-26.245754,0.08089457,0.84106225,9.657177,-0.0066150776,4.9981277E-4,-0.0058102617,-0.08686970919370651,-0.008376430720090866,-1.103766679763794,1013.1633,
2021.01.16 15:49:39,29.0,24.0,27.421326,11.496782,-24.844837,0.07921107,0.82807016,9.795757,-0.019122481,0.008001573,0.009347386,-0.08433031290769577,-0.008086086250841618,-1.115314245223999,1013.16345,
2021.01.16 15:49:40,29.0,24.0,26.837318,10.924866,-25.277235,0.20313914,0.85915095,9.696973,-0.004512341,0.0049075065,0.0119857155,-0.08834988623857498,-0.020945653319358826,-1.1253784894943237,1013.1642,
2021.01.16 15:49:40,29.0,24.0,27.666382,11.131047,-25.57401,0.13554193,0.8427329,9.775929,-0.0114429165,-0.002120566,-0.009178469,-0.08598407357931137,-0.013863975182175636,-1.1289699077606201,1013.1642,
2021.01.16 15:49:40,29.0,24.0,26.618797,10.554584,-25.415884,0.10724852,0.8250499,9.676255,-0.0021101516,0.0078054015,-0.011212143,-0.08505447208881378,-0.011083226650953293,-1.131194829940796,1013.1651,
2021.01.16 15:49:40,29.0,24.0,26.157364,11.033493,-26.319042,0.12955426,0.84421855,9.750865,-0.014513219,-0.0030029148,-0.006749417,-0.08635588735342026,-0.013285655528306961,-1.1077576875686646,1013.16345,
2021.01.16 15:49:40,29.0,24.0,28.083954,11.847443,-26.53621,0.099084884,0.8204534,9.688229,-0.006123598,0.0050564883,-0.009915248,-0.08447961509227753,-0.010226991958916187,-1.1115880012512207,1013.16345,
2021.01.16 15:49:40,29.0,24.0,26.149399,10.320805,-26.81686,0.15075362,0.8131664,9.741345,-0.015620843,-0.0014744289,-0.010950892,-0.0832727700471878,-0.015474410727620125,-1.1315009593963623,1013.16345,
2021.01.16 15:49:40,29.0,24.0,26.52864,11.072758,-25.705818,0.11218402,0.8090659,9.717147,-0.020468382,0.0028611715,-0.007956515,-0.08306455612182617,-0.011544441804289818,-1.1152335405349731,1013.16345,
2021.01.16 15:49:40,29.0,24.0,27.826958,11.138524,-26.36046,0.13397439,0.78170854,9.773333,-0.031531077,-0.0044237487,0.0034735838,-0.07980644702911377,-0.013707299716770649,-1.133567452430725,1013.1633,
2021.01.16 15:49:40,29.0,24.0,25.157784,11.426269,-26.420563,0.13293672,0.7976218,9.769287,-0.027451064,-0.0042371135,0.0010179842,-0.08145765215158463,-0.013606777414679527,-1.0838298797607422,1013.16327,
2021.01.16 15:49:40,29.0,24.0,25.588326,11.653402,-26.538013,0.13206108,0.75348383,9.73445,-0.013678502,-0.0022709535,0.0016027449,-0.07724273204803467,-0.013565530069172382,-1.0868092775344849,1013.1626,
2021.01.16 15:49:40,29.0,24.0,27.221954,11.452428,-26.289803,0.09431971,0.70404553,9.735916,-0.016778547,-0.0033624861,0.0126898885,-0.0721852257847786,-0.009687507525086403,-1.1199859380722046,1013.16254,
2021.01.16 15:49:40,29.0,24.0,27.040024,11.76608,-25.250887,0.12039056,0.6892398,9.738733,-0.011026578,-0.0013795011,-0.0035758372,-0.07064984738826752,-0.012361404486000538,-1.1124147176742554,1013.16223,
2021.01.16 15:49:40,29.0,24.0,26.649658,12.222136,-27.472736,0.14042266,0.6880786,9.743976,-0.0061912187,-3.729245E-4,0.006117164,-0.0704914778470993,-0.014410230331122875,-1.0901923179626465,1013.16223,
2021.01.16 15:49:41,29.0,24.0,27.374573,11.262269,-25.334028,0.15756865,0.69538313,9.779035,-0.0041856086,-0.0040949387,-0.0052280957,-0.07098091393709183,-0.01611150987446308,-1.133120059967041,1013.16205,
2021.01.16 15:49:41,29.0,24.0,26.933083,11.365188,-25.41365,0.13829081,0.6553741,9.743687,0.0014816627,-0.004789157,-0.0029171684,-0.06715350598096848,-0.014191909693181515,-1.1256797313690186,1013.1618,
2021.01.16 15:49:41,29.0,24.0,27.88469,10.852494,-25.58533,0.19146483,0.71798444,9.751075,0.0010194094,-0.0059035616,-0.009135501,-0.07348456233739853,-0.0196327306330204,-1.151188611984253,1013.1612,
2021.01.16 15:49:41,29.0,24.0,27.305878,11.69381,-25.169996,0.114787124,0.683497,9.734702,0.008462386,-0.012429845,-0.023839988,-0.07009252160787582,-0.011790993623435497,-1.1186679601669312,1013.161,
2021.01.16 15:49:41,29.0,24.0,25.669815,11.458047,-26.183117,0.08217761,0.6679898,9.688065,-6.803237E-4,-3.937102E-5,-0.021716002,-0.06883833557367325,-0.008482151664793491,-1.098799228668213,1013.161,
2021.01.16 15:49:41,29.0,24.0,27.07241,12.746921,-25.409725,0.14397354,0.69891953,9.749778,-0.008950951,-0.010601191,-0.019776206,-0.07155550271272659,-0.014765781350433826,-1.0846754312515259,1013.161,
2021.01.16 15:49:41,29.0,24.0,26.516846,12.526658,-26.603115,0.13373889,0.68827456,9.730065,-0.0042849244,-0.0012728358,-0.0077828784,-0.07061260938644409,-0.013744046911597252,-1.0805342197418213,1013.161,
2021.01.16 15:49:41,29.0,24.0,26.978539,12.178821,-25.994144,0.13080515,0.6669796,9.736369,-0.006601799,-0.005757942,-0.010909585,-0.06839092820882797,-0.013433887623250484,-1.1001715660095215,1013.161,
2021.01.16 15:49:41,29.0,24.0,26.255936,11.586097,-25.206184,0.120471954,0.6736023,9.801106,-0.007916311,-0.0035916115,-0.0073787775,-0.06861408799886703,-0.01229104958474636,-1.1076655387878418,1013.161,
2021.01.16 15:49:41,29.0,24.0,25.687637,10.899001,-25.654764,0.13244705,0.6564273,9.711822,0.0049287225,-4.1613626E-4,-2.2858451E-4,-0.0674816444516182,-0.013636869378387928,-1.1206735372543335,1013.1607,
2021.01.16 15:49:41,29.0,24.0,26.241982,12.83425,-25.688099,0.13751243,0.668531,9.760189,-0.005215863,7.808198E-4,3.850048E-4,-0.06838211417198181,-0.014088183641433716,-1.0707465410232544,1013.1597,
2021.01.16 15:49:41,29.0,24.0,27.127014,11.381279,-25.983383,0.12449511,0.668504,9.794197,0.0020535248,0.0029602854,0.0044156546,-0.06814391911029816,-0.012710425071418285,-1.1255865097045898,1013.15967,
2021.01.16 15:49:41,29.0,24.0,27.649109,12.680047,-24.872107,0.21983252,0.6941311,9.705539,0.01248843,0.0032543929,0.011275698,-0.07137925177812576,-0.022646339610219002,-1.0994107723236084,1013.15924,
2021.01.16 15:49:41,29.0,24.0,27.213806,12.947523,-25.317575,0.078058176,0.687459,9.811291,0.004616459,2.028406E-4,-0.005763646,-0.0699516162276268,-0.00795578584074974,-1.079441785812378,1013.159,
2021.01.16 15:49:42,29.0,24.0,25.845238,12.126077,-25.023037,0.14143686,0.704459,9.710552,0.02172427,1.6008358E-4,0.02052128,-0.0724112018942833,-0.014564244076609612,-1.0838080644607544,1013.159,
2021.01.16 15:49:42,29.0,24.0,27.67273,11.580618,-24.924458,0.13500677,0.69144815,9.732585,0.009767805,-0.0016571851,0.010796426,-0.07091869413852692,-0.01387073565274477,-1.1278496980667114,1013.159,
2021.01.16 15:49:42,29.0,24.0,25.945786,11.236636,-25.067204,0.14700355,0.7109082,9.702304,0.012715258,-0.007841872,0.02103513,-0.07313302904367447,-0.015150247141718864,-1.1117792129516602,1013.159,
2021.01.16 15:49:42,29.0,24.0,26.056885,11.391048,-25.512217,0.13681766,0.7541814,9.763671,0.0038390006,-2.8826934E-4,0.011163241,-0.07708301395177841,-0.014012015424668789,-1.1044979095458984,1013.1585,
2021.01.16 15:49:42,29.0,24.0,27.015198,12.035619,-26.93211,0.110075735,0.7296918,9.712051,0.011137604,0.0016081412,0.011381908,-0.07498691976070404,-0.011333446949720383,-1.0973273515701294,1013.1585,
2021.01.16 15:49:42,29.0,24.0,27.753357,10.838601,-26.584023,0.11293159,0.743745,9.670075,0.003980821,0.006068305,0.016145857,-0.07675568759441376,-0.011677928268909454,-1.1422579288482666,1013.1585,
2021.01.16 15:49:42,29.0,24.0,26.732285,11.526866,-26.434877,0.13302086,0.7957122,9.81704,0.01279927,0.0118006505,0.0070963074,-0.08086998015642166,-0.013549166731536388,-1.1056376695632935,1013.15814,
2021.01.16 15:49:42,29.0,24.0,26.550606,11.103472,-26.205477,0.11494704,0.74002033,9.664671,-0.0013360106,7.804615E-4,0.005879714,-0.07641514390707016,-0.011892967857420444,-1.1186153888702393,1013.1581,
2021.01.16 15:49:42,29.0,24.0,27.117798,11.885498,-26.266949,0.086024374,0.7260351,9.678291,-0.009359313,-0.001259329,0.011561299,-0.0748736783862114,-0.008888150565326214,-1.103532314300537,1013.15686,
2021.01.16 15:49:42,29.0,24.0,26.85736,11.453526,-25.81702,0.20387276,0.76511985,9.708358,0.001562513,-0.004245043,-4.9643824E-4,-0.07863060384988785,-0.02099662832915783,-1.1158133745193481,1013.1568,
2021.01.16 15:49:42,29.0,24.0,25.880554,10.227368,-25.131315,0.061862305,0.7472437,9.729967,-0.002922379,-0.0043729525,-0.019309027,-0.07664617896080017,-0.006357829086482525,-1.1355221271514893,1013.1568,
2021.01.16 15:49:42,29.0,24.0,27.049187,11.498503,-25.563898,0.07279941,0.7103855,9.737351,-0.0026533683,-0.005134631,-0.0069478964,-0.0728236511349678,-0.007476165425032377,-1.116190791130066,1013.1568,
2021.01.16 15:49:42,29.0,24.0,25.966263,11.335885,-26.16603,0.16523121,0.738344,9.708215,-0.0062460634,0.0016802961,-0.0065052006,-0.07589644938707352,-0.017018089070916176,-1.105648159980774,1013.1568,
2021.01.16 15:49:42,29.0,24.0,26.86618,12.691347,-26.167606,0.09768534,0.73369056,9.749118,-0.00684357,4.2964425E-4,-0.01562058,-0.07511177659034729,-0.010019580833613873,-1.0770819187164307,1013.1568,
2021.01.16 15:49:43,29.0,24.0,27.07611,11.859869,-24.44736,0.09774101,0.71726054,9.750759,-0.005158882,0.0016360232,-0.0151165705,-0.07342353463172913,-0.010023603215813637,-1.1088656187057495,1013.1568,
2021.01.16 15:49:43,29.0,24.0,26.018707,12.320824,-25.210133,0.108246304,0.71081764,9.738636,-0.0035063252,-0.0045646057,-0.010387784,-0.07285575568675995,-0.011114683002233505,-1.0785671472549438,1013.1568,
2021.01.16 15:49:43,29.0,24.0,27.873558,11.224244,-25.412325,0.10345631,0.7002743,9.752313,-0.0036526173,-0.007531749,-0.006689838,-0.07167891412973404,-0.010607989504933357,-1.1382216215133667,1013.15686,
2021.01.16 15:49:43,29.0,24.0,27.58094,13.280179,-26.197586,0.12413705,0.7145054,9.733619,-0.0026619025,-3.4909137E-4,-0.0035241845,-0.0732685774564743,-0.012752741575241089,-1.0739037990570068,1013.15717,
2021.01.16 15:49:43,29.0,24.0,25.9609,11.696325,-25.331404,0.12465817,0.6885039,9.738963,-0.0030655474,-0.010338077,-0.0039338977,-0.070572629570961,-0.012799243442714214,-1.0984101295471191,1013.1572,
2021.01.16 15:49:43,29.0,24.0,25.355331,12.923268,-25.829205,0.109982036,0.70533866,9.725596,-0.0019594533,0.0012524078,-0.00228411,-0.07239258289337158,-0.011308031156659126,-1.0492420196533203,1013.1579,
2021.01.16 15:49:43,29.0,24.0,28.27182,12.797316,-25.316936,0.14772536,0.6817455,9.743164,1.238198E-4,-0.0010413761,2.721682E-4,-0.06984981894493103,-0.015160787850618362,-1.10222589969635,1013.1581,
2021.01.16 15:49:43,29.0,24.0,26.968445,10.999018,-25.453823,0.16609837,0.71213156,9.734729,-0.0020007314,1.588621E-4,0.0020704651,-0.0730130523443222,-0.01706079952418804,-1.1339712142944336,1013.15814,
2021.01.16 15:49:43,29.0,24.0,26.811646,11.711952,-26.183437,0.10905183,0.7008453,9.773579,0.0029213545,0.0017355669,-0.004979049,-0.07158118486404419,-0.011157357133924961,-1.1076791286468506,1013.15845,
2021.01.16 15:49:43,29.0,24.0,26.04583,12.058812,-26.474195,0.14146388,0.70968527,9.750356,0.008980933,0.0014093858,-8.200074E-5,-0.07264982908964157,-0.014507567510008812,-1.0859627723693848,1013.1585,
2021.01.16 15:49:43,29.0,24.0,27.19065,11.942297,-26.313526,0.11825049,0.6904809,9.698848,0.008917152,8.135215E-4,-0.0021902488,-0.07106687873601913,-0.012191615998744965,-1.1070843935012817,1013.1585,
2021.01.16 15:49:43,29.0,24.0,25.745003,11.909092,-25.59054,0.09765515,0.6919858,9.7423525,0.0034045535,7.363612E-4,0.005423063,-0.07090598344802856,-0.010023439303040504,-1.0866354703903198,1013.1585,
2021.01.16 15:49:43,29.0,24.0,26.468765,13.032359,-25.44827,0.16303019,0.7173355,9.729427,-0.0010375204,0.0056938855,0.0078641195,-0.07358499616384506,-0.016754833981394768,-1.066672921180725,1013.1585,
2021.01.16 15:49:43,29.0,24.0,26.5941,11.928841,-25.843788,0.11503205,0.7062299,9.748959,0.0020744107,1.634676E-4,-4.110419E-4,-0.07231024652719498,-0.011798870749771595,-1.0984594821929932,1013.1585,
2021.01.16 15:49:44,29.0,24.0,25.87439,10.827877,-26.070528,0.10434034,0.6885724,9.712108,-0.004818892,7.738951E-4,0.004475557,-0.07077585160732269,-0.010742913000285625,-1.1210658550262451,1013.1587,
2021.01.16 15:49:44,29.0,24.0,26.778,12.650738,-25.56105,0.13229,0.695782,9.727669,0.00693074,-0.0017830302,0.004455552,-0.07139790058135986,-0.013598515652120113,-1.082270622253418,1013.1594,
2021.01.16 15:49:44,29.0,24.0,26.26094,12.504798,-25.619667,0.098330766,0.67832977,9.720827,0.005123998,-0.0026714564,8.3616213E-4,-0.06966459006071091,-0.010115128010511398,-1.0780278444290161,1013.1594,
2021.01.16 15:49:44,29.0,24.0,27.293945,10.267617,-26.050028,0.14403726,0.71595246,9.760211,-4.821485E-4,-7.4454385E-4,0.0050544715,-0.07321510463953018,-0.014756525866687298,-1.1581426858901978,1013.15967,
2021.01.16 15:49:44,29.0,24.0,27.038177,11.923838,-26.40704,0.11149841,0.6658849,9.727509,9.795385E-4,-6.4825255E-4,-0.004837527,-0.06834270060062408,-0.011461673304438591,-1.106899619102478,1013.1598,
2021.01.16 15:49:44,29.0,24.0,26.2538,12.339048,-26.494389,0.12229979,0.6870113,9.718297,2.3092609E-5,-1.2797769E-5,0.0029033478,-0.07056958228349686,-0.012583823874592781,-1.0815914869308472,1013.1616,
2021.01.16 15:49:44,29.0,24.0,27.075424,12.873638,-25.63533,0.09903511,0.713617,9.779582,6.167819E-4,0.0039517363,-0.0035181423,-0.07283726334571838,-0.01012637559324503,-1.0777939558029175,1013.1632,
2021.01.16 15:49:44,29.0,24.0,26.8749,12.991329,-26.598528,0.11834097,0.6917332,9.740331,0.008430724,2.0962092E-5,0.0030041854,-0.07089317589998245,-0.01214898657053709,-1.071866512298584,1013.16425,
2021.01.16 15:49:44,29.0,24.0,26.519096,11.477386,-25.874224,0.09882445,0.67781717,9.728549,0.007137513,0.004523659,0.007895295,-0.06955700367689133,-0.010157840326428413,-1.1119749546051025,1013.16473,
2021.01.16 15:49:44,29.0,24.0,27.479156,12.985928,-26.519354,0.11049378,0.69067574,9.742203,0.005080547,8.831987E-4,0.005203826,-0.07077228277921677,-0.011341279372572899,-1.081076741218567,1013.16473,
2021.01.16 15:49:44,29.0,24.0,27.13836,12.149258,-26.427593,0.14985073,0.69210714,9.736739,0.008290077,-0.001686059,-3.5875186E-4,-0.07095429301261902,-0.01538902148604393,-1.1016011238098145,1013.1651,
2021.01.16 15:49:44,29.0,24.0,27.048294,11.428505,-24.947292,0.12565358,0.69213456,9.73125,0.0018681842,-0.0014880787,-3.4032657E-4,-0.07099946588277817,-0.012911660596728325,-1.1230435371398926,1013.1653,
2021.01.16 15:49:44,29.0,24.0,27.64177,11.914786,-25.20839,0.11118162,0.6976257,9.727847,0.0037173822,0.0016366027,0.0015418867,-0.07158707082271576,-0.011428712867200375,-1.1157622337341309,1013.1653,
2021.01.16 15:49:44,29.0,24.0,26.923477,10.8194,-24.72789,0.1211831,0.70495397,9.774567,-0.0018048082,0.0010372255,-3.1664397E-4,-0.07199107855558395,-0.0123971626162529,-1.139020562171936,1013.1654,
2021.01.16 15:49:45,29.0,24.0,25.22187,12.568744,-25.228481,0.11680007,0.70128226,9.734286,0.008184288,-4.2124337E-4,0.0024927375,-0.07191308587789536,-0.011998256668448448,-1.0592843294143677,1013.1661,
2021.01.16 15:49:45,29.0,24.0,25.9357,12.549568,-25.539787,0.12012482,0.7016203,9.731299,0.009805074,0.0013278609,0.0028905421,-0.07196933776140213,-0.012343543581664562,-1.0710738897323608,1013.1665,
2021.01.16 15:49:45,29.0,24.0,25.883034,11.079232,-26.213161,0.13037115,0.71587485,9.744896,0.0070439507,4.2648165E-4,0.0011709444,-0.07332325726747513,-0.013377605937421322,-1.1123912334442139,1013.1665,
2021.01.16 15:49:45,29.0,24.0,26.58371,12.763059,-25.183073,0.11295267,0.68679506,9.730767,0.012759307,-0.007228871,-1.4528586E-4,-0.07045816630125046,-0.01160726509988308,-1.0765174627304077,1013.1665,
2021.01.16 15:49:45,29.0,24.0,26.734085,10.859635,-25.24117,0.14103532,0.70822364,9.74063,0.0058766496,-0.0048687444,0.0032900558,-0.07257289439439774,-0.014478063210844994,-1.134536623954773,1013.1665,
2021.01.16 15:49:45,29.0,24.0,26.845642,11.835743,-25.681679,0.13698617,0.7368357,9.781741,0.014689496,-0.004051504,0.005176222,-0.07517832517623901,-0.014003356918692589,-1.104169249534607,1013.1665,
2021.01.16 15:49:45,29.0,24.0,26.6772,11.652413,-25.121765,0.09722849,0.69915444,9.670169,9.0760784E-4,-0.0029508672,0.0040286076,-0.07217090576887131,-0.01005413755774498,-1.1086375713348389,1013.1665,
2021.01.16 15:49:45,29.0,24.0,27.04747,11.638462,-25.042992,0.114194684,0.7099607,9.756595,0.004160329,-0.0030728541,0.006441407,-0.07263427972793579,-0.011703824624419212,-1.1150010824203491,1013.1665,
2021.01.16 15:49:45,29.0,24.0,25.854866,10.877981,-25.202873,0.12028348,0.6990986,9.673009,0.005751119,0.0029315893,0.012097967,-0.07214212417602539,-0.012434318661689758,-1.1206955909729004,1013.1665,
2021.01.16 15:49:45,29.0,24.0,26.30075,12.778479,-25.78116,0.13978596,0.7195088,9.782689,0.0045636967,-1.9882573E-5,0.01270952,-0.07340952754020691,-0.014288142323493958,-1.069663166999817,1013.1665,
2021.01.16 15:49:45,29.0,24.0,28.817818,11.4657545,-26.640305,0.17455466,0.7104609,9.700603,-0.0043339515,-0.003023855,0.004931321,-0.07309652119874954,-0.01799226552248001,-1.1433829069137573,1013.1665,
2021.01.16 15:49:45,29.0,24.0,27.910599,12.076768,-25.532574,0.18155731,0.72583956,9.725446,0.009314768,-9.6215634E-5,0.009880244,-0.07448199391365051,-0.018666109070181847,-1.1152710914611816,1013.1665,
2021.01.16 15:49:45,29.0,24.0,27.847466,11.688719,-26.192444,0.1364054,0.6992045,9.730092,7.1807764E-4,-0.007758395,6.0001854E-4,-0.07172967493534088,-0.014018002897500992,-1.1242574453353882,1013.1665,
2021.01.16 15:49:46,29.0,24.0,26.149353,12.052813,-25.467329,0.1626273,0.7262225,9.74388,0.004190091,7.574976E-4,0.0067007253,-0.07438327372074127,-0.016688648611307144,-1.089423656463623,1013.1665,
2021.01.16 15:49:46,29.0,24.0,27.083359,11.704215,-24.633732,0.14507715,0.7110977,9.724557,8.982192E-4,-0.0029041395,-0.0019047812,-0.07298590242862701,-0.014917531982064247,-1.1154659986495972,1013.1665,
2021.01.16 15:49:46,29.0,24.0,26.088509,12.366816,-25.97224,0.1169377,0.71642685,9.768388,0.0026783836,0.001145453,0.003380525,-0.07320505380630493,-0.011970462277531624,-1.0769646167755127,1013.1665,
2021.01.16 15:49:46,29.0,24.0,26.462593,12.287181,-25.800236,0.19491057,0.7053921,9.734917,0.009466393,2.6216486E-4,0.001403993,-0.0723191499710083,-0.020019127056002617,-1.0896941423416138,1013.1665,
2021.01.16 15:49:46,29.0,24.0,27.496094,11.517442,-25.494522,0.17758368,0.69827914,9.689017,0.014920164,-5.860935E-4,0.008520198,-0.07193271070718765,-0.018326295539736748,-1.1272581815719604,1013.1662,
2021.01.16 15:49:46,29.0,24.0,26.828346,11.328567,-25.284187,0.115766115,0.7042021,9.780969,0.0025545112,-0.004535744,-7.1458635E-5,-0.07186813652515411,-0.011835301294922829,-1.121132731437683,1013.1661,
2021.01.16 15:49:46,29.0,24.0,26.248466,12.2202015,-25.373672,0.18084584,0.7140598,9.718101,0.014010781,-0.0030561131,0.009806745,-0.07333284616470337,-0.01860702782869339,-1.0878071784973145,1013.16583,
2021.01.16 15:49:46,29.0,24.0,26.54972,13.799328,-26.861404,0.19853036,0.7365203,9.726853,0.0053021703,-0.004244302,0.0040217866,-0.07556040585041046,-0.02040771022439003,-1.0443068742752075,1013.16547,
2021.01.16 15:49:46,29.0,24.0,26.321167,11.127127,-25.818684,0.13228707,0.6972011,9.717865,0.0023724935,-0.0023122933,-0.0055683358,-0.07161493599414825,-0.0136119294911623,-1.119670033454895,1013.1654,
2021.01.16 15:49:46,29.0,24.0,26.256554,11.62788,-26.194443,0.21623658,0.73916775,9.704421,-0.0023169285,0.0022733253,7.0248195E-4,-0.0760025680065155,-0.022278588265180588,-1.1035313606262207,1013.1653,
2021.01.16 15:49:46,29.0,24.0,26.933403,11.603578,-25.968208,0.1378242,0.72399855,9.75935,-0.004033854,7.7058084E-4,-0.0145509085,-0.07404212653636932,-0.014121334068477154,-1.1125633716583252,1013.1653,
2021.01.16 15:49:46,29.0,24.0,26.535072,11.367534,-26.936722,0.17720838,0.7183203,9.727319,-0.0013859281,0.0017870954,-0.004862886,-0.07369968295097351,-0.01821558177471161,-1.1138759851455688,1013.1653,
2021.01.16 15:49:46,29.0,24.0,26.91922,12.631948,-26.725422,0.1438974,0.7177057,9.765414,4.7277473E-4,0.0026506623,-0.0119846985,-0.0733548179268837,-0.014734345488250256,-1.0819226503372192,1013.1653,
2021.01.16 15:49:46,29.0,24.0,27.17791,11.93392,-26.56459,0.14713793,0.7060876,9.709339,0.0024015568,0.007400817,-0.006071896,-0.07258641719818115,-0.015153108164668083,-1.106850266456604,1013.1653,
2021.01.16 15:49:47,29.0,24.0,25.971779,11.64519,-26.163237,0.14357193,0.709677,9.760097,-0.0016249754,0.0057178936,-0.0061865733,-0.07257652282714844,-0.014709033071994781,-1.0978758335113525,1013.1653,
2021.01.16 15:49:47,29.0,24.0,26.969604,11.8797865,-25.616282,0.14628406,0.70427966,9.711502,0.0021925662,0.013844906,-0.0017819903,-0.07238524407148361,-0.01506182923913002,-1.1072793006896973,1013.1653,
2021.01.16 15:49:47,29.0,24.0,28.158012,12.425579,-25.926933,0.15233733,0.70230633,9.802323,0.009446308,0.007478003,-0.0029751677,-0.07151609659194946,-0.015539689920842648,-1.1089377403259277,1013.16516,
2021.01.16 15:49:47,29.0,24.0,27.139442,12.505722,-25.939262,0.18016434,0.68927735,9.7357235,0.0057933964,1.6604073E-4,-0.008344147,-0.0706687867641449,-0.018503379076719284,-1.0938273668289185,1013.16516,
2021.01.16 15:49:47,29.0,24.0,27.167076,11.690975,-25.462011,0.13691145,0.6991594,9.713551,0.010067994,0.0012253759,-0.004546876,-0.07184671610593796,-0.014093959704041481,-1.1159265041351318,1013.1648,
2021.01.16 15:49:47,29.0,24.0,27.37735,12.991222,-26.501396,0.07357476,0.69386506,9.757615,-4.500365E-4,-0.0024720468,-0.010933039,-0.07098860293626785,-0.007540096994489431,-1.0775665044784546,1013.1648,
2021.01.16 15:49:47,29.0,24.0,27.517792,13.063832,-25.234116,0.11227089,0.6938143,9.704282,0.00827603,0.0068212673,0.0012217108,-0.0713694840669632,-0.011568695306777954,-1.0815025568008423,1013.1648,
2021.01.16 15:49:47,29.0,24.0,27.222351,13.266741,-25.851547,0.082326874,0.6834356,9.752007,-0.0044461545,-1.9511022E-4,-0.002328616,-0.06996465474367142,-0.008441844023764133,-1.0698132514953613,1013.1648,
2021.01.16 15:49:47,29.0,24.0,26.934433,11.445046,-24.27531,0.093800165,0.7150156,9.773747,0.0053800214,0.010130643,0.010646268,-0.07302330434322357,-0.00959686003625393,-1.11948561668396,1013.1648,
2021.01.16 15:49:47,29.0,24.0,27.194267,13.142618,-26.056875,0.13383071,0.7001856,9.703113,-8.3447434E-4,0.012201995,0.0019728292,-0.0720292329788208,-0.013791680335998535,-1.0734444856643677,1013.1648,
2021.01.16 15:49:47,29.0,24.0,27.670311,11.647605,-25.308634,0.07143622,0.68919045,9.8087845,0.01399635,0.01519318,0.010557824,-0.07014543563127518,-0.007282753009349108,-1.1230210065841675,1013.16455,
2021.01.16 15:49:47,29.0,24.0,26.619316,11.84432,-24.797554,0.11626792,0.7258334,9.786313,0.0011940789,-0.003958806,-0.005462542,-0.07402746379375458,-0.011880108155310154,-1.10221529006958,1013.16455,
2021.01.16 15:49:47,29.0,24.0,26.283966,12.925409,-26.033588,0.04557248,0.69423485,9.74195,0.01710733,-0.0046429057,-0.0042197993,-0.07114136964082718,-0.004677928518503904,-1.0618257522583008,1013.16455,
2021.01.16 15:49:48,29.0,24.0,27.592453,11.666862,-27.043163,0.15697642,0.7341173,9.717298,0.0146331545,0.016789636,0.0018316153,-0.07539443671703339,-0.016152923926711082,-1.11793851852417,1013.16455,
2021.01.16 15:49:48,29.0,24.0,26.738556,12.705308,-26.764141,-0.012033183,0.73318577,9.744348,0.01775411,0.006636785,-0.0073799235,-0.0751006007194519,0.0012348879827186465,-1.0681811571121216,1013.16455,
2021.01.16 15:49:48,29.0,24.0,25.870712,11.23016,-26.280268,0.09287558,0.7793019,9.741992,0.020998316,0.013121775,0.006941787,-0.07982051372528076,-0.009533241391181946,-1.1007349491119385,1013.165,
2021.01.16 15:49:48,29.0,24.0,25.729752,11.892792,-26.754192,0.1385551,0.77423054,9.756547,0.03407746,-0.0058494746,-0.021743342,-0.07918108254671097,-0.01420028880238533,-1.080276608467102,1013.16516,
2021.01.16 15:49:48,29.0,24.0,27.137932,11.180417,-27.08641,0.02206372,0.7909208,9.38364,-0.04921589,-0.032927256,-0.018479947,-0.08408822119235992,-0.0023512921761721373,-1.1127599477767944,1013.1652,
