Time,X-cord,Y-cord,Mag_x,Mag_y,Mag_z,Acc_x,Acc_y,Acc_z,Gyro_x,Gyro_y,Gyro_z,Orn_x,Orn_y,Orn_z,Pressure,
2021.01.16 15:40:46,1.0,27.0,20.901955,-31.053045,-18.082048,-0.010770797,0.61208534,9.941165,0.016955104,0.031911395,2.6936457E-4,-0.061493124812841415,0.0010834537679329515,-2.5316503047943115,1013.3467,
2021.01.16 15:40:47,1.0,27.0,20.067978,-30.844572,-18.760323,-0.038004916,0.64441836,9.708474,5.6130555E-4,-0.03040338,0.027588656,-0.06627916544675827,0.0039145927876234055,-2.5463969707489014,1013.347,
2021.01.16 15:40:47,1.0,27.0,20.062248,-31.870962,-18.84095,0.0646747,0.633014,9.70457,0.013768688,-0.02647361,0.031574123,-0.06513472646474838,-0.006664256565272808,-2.5582025051116943,1013.34705,
2021.01.16 15:40:47,1.0,27.0,19.846718,-31.570616,-17.82136,0.11023455,0.64952546,9.672908,0.0012628473,-0.020598272,0.018531362,-0.06704394519329071,-0.011395723558962345,-2.557378053665161,1013.34705,
2021.01.16 15:40:47,1.0,27.0,21.19593,-31.470346,-18.71103,0.05936353,0.6611014,9.810314,-0.005753593,-0.01741845,0.0065991553,-0.0672854408621788,-0.006051060743629932,-2.526341438293457,1013.3475,
2021.01.16 15:40:47,1.0,27.0,20.225082,-31.665915,-17.697687,0.06749493,0.6299455,9.733546,0.017336972,-0.017505469,0.003879303,-0.06462732702493668,-0.006934147793799639,-2.5527567863464355,1013.3475,
2021.01.16 15:40:47,1.0,27.0,20.847305,-30.64042,-17.973442,0.10197403,0.6315038,9.57389,-0.0021892851,-0.004376097,0.010139964,-0.06586191803216934,-0.010650862008333206,-2.5205905437469482,1013.3478,
2021.01.16 15:40:47,1.0,27.0,20.57367,-31.326765,-19.024265,0.09684538,0.6281338,9.91394,-0.015980363,-0.008959357,0.006746049,-0.06327105313539505,-0.009768295101821423,-2.5374410152435303,1013.3478,
2021.01.16 15:40:47,1.0,27.0,21.195045,-32.115303,-18.87458,0.08221022,0.6722743,9.716569,0.047095872,-0.0036360903,0.015246423,-0.06907588988542557,-0.008460626006126404,-2.5345847606658936,1013.34814,
2021.01.16 15:40:47,1.0,27.0,19.851059,-31.587282,-17.836409,0.16021751,0.66389465,9.6923895,0.01687481,-0.0022614128,0.01407587,-0.06838035583496094,-0.01652873121201992,-2.5551538467407227,1013.34845,
2021.01.16 15:40:47,1.0,27.0,20.920303,-31.527754,-19.2514,0.06182851,0.6937458,9.79716,0.0229233,-0.020054655,0.010749128,-0.07069150358438492,-0.006310776341706514,-2.5314829349517822,1013.34863,
2021.01.16 15:40:47,1.0,27.0,20.09243,-32.083855,-18.382942,0.16042964,0.7094608,9.636954,0.028147073,-0.0135173015,0.03532394,-0.07347606122493744,-0.016645800322294235,-2.554780960083008,1013.3492,
2021.01.16 15:40:47,1.0,27.0,20.806465,-32.2218,-16.882511,0.13521583,0.7126503,9.723029,-0.0057492317,0.0018971327,0.01823325,-0.07315721362829208,-0.013905863277614117,-2.544158697128296,1013.3495,
2021.01.16 15:40:47,1.0,27.0,20.757057,-32.325108,-17.964321,0.15951581,0.74132913,9.721044,-0.00816565,0.009033153,0.010284652,-0.07610271871089935,-0.016407858580350876,-2.5434741973876953,1013.3495,
2021.01.16 15:40:47,1.0,27.0,20.878822,-31.087145,-16.854408,0.11675992,0.7078871,9.772428,-0.0056560286,0.015535383,-0.011540081,-0.07230573892593384,-0.011947324499487877,-2.526059865951538,1013.3495,
2021.01.16 15:40:47,1.0,27.0,20.008217,-31.771582,-17.838665,0.08310758,0.72206044,9.701779,-0.0024743974,0.0060506533,-0.014709416,-0.07428589463233948,-0.008566010743379593,-2.5556039810180664,1013.3495,
2021.01.16 15:40:48,1.0,27.0,20.408714,-32.407833,-19.42158,0.03001382,0.69745046,9.775882,0.005648964,0.001955991,-0.0021887997,-0.07122298330068588,-0.0030701810028403997,-2.557262897491455,1013.34955,
2021.01.16 15:40:48,1.0,27.0,20.463387,-31.61238,-17.42663,0.1008855,0.7126033,9.68698,0.0097709345,0.011987388,0.011867106,-0.073426753282547,-0.010414169169962406,-2.542973279953003,1013.3501,
2021.01.16 15:40:48,1.0,27.0,19.573158,-32.06318,-16.83928,0.10802881,0.71633005,9.736102,0.006734281,0.0023003633,0.006850606,-0.07343779504299164,-0.011095238849520683,-2.570570945739746,1013.35016,
2021.01.16 15:40:48,1.0,27.0,20.063103,-33.094368,-18.00867,0.1056202,0.7248724,9.69925,0.0060500004,0.001181152,9.876154E-4,-0.07459180802106857,-0.010889091528952122,-2.5726165771484375,1013.3504,
2021.01.16 15:40:48,1.0,27.0,19.65593,-32.681446,-17.830818,0.078191474,0.7054284,9.715062,-0.0046356777,-0.0021629739,-0.0041595288,-0.07248227298259735,-0.008048305287957191,-2.5778114795684814,1013.3505,
2021.01.16 15:40:48,1.0,27.0,19.362633,-32.11794,-17.76767,0.08562523,0.71038723,9.696191,-0.0067821,-0.0058604437,0.0027127257,-0.07313106209039688,-0.008830581791698933,-2.5759551525115967,1013.35065,
2021.01.16 15:40:48,1.0,27.0,19.467445,-31.496794,-16.836735,0.037999835,0.71687746,9.790608,-0.007216754,-0.0027905959,-0.0011712867,-0.07308994978666306,-0.003881234209984541,-2.567316770553589,1013.3509,
2021.01.16 15:40:48,1.0,27.0,20.113388,-31.816172,-17.972471,0.10715783,0.74284774,9.706113,0.008851035,0.0017562541,0.012488473,-0.07638046890497208,-0.01103979256004095,-2.5521199703216553,1013.3509,
2021.01.16 15:40:48,1.0,27.0,19.675789,-32.6209,-18.93426,0.04741214,0.70781773,9.766361,0.012977827,0.004247804,0.011956029,-0.0723477303981781,-0.004854599013924599,-2.576472759246826,1013.35187,
2021.01.16 15:40:48,1.0,27.0,19.659279,-33.474007,-18.11128,0.0896608,0.73718786,9.670598,7.248274E-5,-0.004458121,0.0010125432,-0.07607941329479218,-0.009271218441426754,-2.5871083736419678,1013.3519,
2021.01.16 15:40:48,1.0,27.0,18.90409,-33.100323,-16.620474,0.07412769,0.7312488,9.775596,0.005366144,0.004459981,0.0057534706,-0.07466230541467667,-0.007582787424325943,-2.6020495891571045,1013.3519,
2021.01.16 15:40:48,1.0,27.0,21.007484,-31.989378,-17.650206,0.07760319,0.72124606,9.723209,7.292044E-4,-0.003206354,0.0037170146,-0.07403982430696487,-0.00798106286674738,-2.5369951725006104,1013.3522,
2021.01.16 15:40:48,1.0,27.0,20.345032,-32.174778,-17.193605,0.09836342,0.7366986,9.712497,-6.494827E-4,-0.0012845743,0.006703728,-0.0757017582654953,-0.010127164423465729,-2.553901433944702,1013.35236,
2021.01.16 15:40:48,1.0,27.0,20.412842,-31.820059,-17.570015,0.023984715,0.705393,9.764329,-0.00862661,0.004228466,-0.0022977022,-0.07211633771657944,-0.0024563558399677277,-2.5504324436187744,1013.35236,
2021.01.16 15:40:49,1.0,27.0,19.963898,-33.501633,-17.647636,0.08859391,0.76221085,9.690979,0.004936625,0.010906078,0.011642769,-0.07848672568798065,-0.009141639806330204,-2.580613613128662,1013.3525,
2021.01.16 15:40:49,1.0,27.0,20.9646,-31.90965,-17.284246,0.05120942,0.71802956,9.711512,-0.008037442,0.0024138852,0.0020258273,-0.07380061596632004,-0.005273014772683382,-2.538243055343628,1013.3535,
2021.01.16 15:40:49,1.0,27.0,20.629913,-32.980377,-16.43636,0.04916368,0.7557941,9.802667,0.007887084,0.0022660973,0.002365734,-0.07694767415523529,-0.005015295464545488,-2.5617940425872803,1013.35364,
2021.01.16 15:40:49,1.0,27.0,19.298042,-32.71339,-17.020023,0.0704123,0.7430704,9.734686,0.004100741,-8.002504E-4,-0.0040840367,-0.076182521879673,-0.007233009207993746,-2.586742401123047,1013.3538,
2021.01.16 15:40:49,1.0,27.0,19.344627,-31.586664,-17.375937,0.044843886,0.752332,9.705192,0.007064677,0.008606277,-0.0045660455,-0.07736296951770782,-0.004620575346052647,-2.569350481033325,1013.35547,
2021.01.16 15:40:49,1.0,27.0,21.337685,-32.08677,-16.175863,0.019452974,0.7118953,9.74618,-0.0020770961,-6.477549E-4,-0.00392687,-0.07291389256715775,-0.0019959560595452785,-2.53541898727417,1013.3558,
2021.01.16 15:40:49,1.0,27.0,21.663399,-32.09856,-17.72093,0.060066078,0.74247247,9.674979,-0.005618531,6.54857E-4,-0.0018244556,-0.0765899121761322,-0.006208313629031181,-2.524073839187622,1013.356,
2021.01.16 15:40:49,1.0,27.0,21.428207,-32.55773,-16.91022,0.033265498,0.7267503,9.782222,0.0038706176,6.2206574E-4,-0.0049213464,-0.07415630668401718,-0.003400594461709261,-2.5388424396514893,1013.3561,
2021.01.16 15:40:49,1.0,27.0,19.760048,-32.208782,-17.425993,0.011600461,0.7126979,9.692859,-0.0022947276,-0.0038255653,-0.008443603,-0.07339601218700409,-0.0011968043399974704,-2.5713720321655273,1013.3561,
2021.01.16 15:40:49,1.0,27.0,19.949814,-32.91855,-18.19377,0.076958425,0.7492545,9.74896,-0.013105083,-0.0051687555,-0.002350701,-0.07670164853334427,-0.007893851026892662,-2.5729258060455322,1013.3561,
2021.01.16 15:40:49,1.0,27.0,20.417435,-31.654093,-17.89191,-8.6351717E-4,0.7172335,9.807612,-8.2879607E-4,-0.006351012,-0.008586566,-0.07300033420324326,8.804560638964176E-5,-2.5481338500976562,1013.3568,
2021.01.16 15:40:49,1.0,27.0,20.928986,-31.754858,-16.893385,0.042713847,0.7337425,9.667436,0.005359751,6.807108E-4,0.0030810153,-0.0757523849606514,-0.004418293479830027,-2.5368804931640625,1013.35736,
2021.01.16 15:40:49,1.0,27.0,21.226257,-32.37696,-18.633722,0.044431943,0.7358224,9.755531,-0.0033042124,-0.004071366,6.341445E-4,-0.07528284192085266,-0.004554506856948137,-2.53769588470459,1013.35736,
2021.01.16 15:40:50,1.0,27.0,20.003807,-32.513554,-16.710302,0.06223659,0.7149086,9.735257,-0.00237903,-0.003690826,0.004353226,-0.07330192625522614,-0.006392819341272116,-2.5692248344421387,1013.3581,
2021.01.16 15:40:50,1.0,27.0,18.957565,-32.409817,-16.67649,0.050687637,0.7235759,9.723204,-0.0034880238,-0.0027308865,0.002103452,-0.07427950948476791,-0.005213011987507343,-2.5919978618621826,1013.35913,
2021.01.16 15:40:50,1.0,27.0,20.979935,-31.900358,-17.46062,0.076170824,0.745431,9.697853,0.009382715,-0.0036959483,0.0074437084,-0.07671236246824265,-0.007854239083826542,-2.5357344150543213,1013.35986,
2021.01.16 15:40:50,1.0,27.0,21.385323,-31.496107,-17.906258,0.007252296,0.68368125,9.757291,-0.0028029787,-0.009614116,-0.0037818868,-0.06995440274477005,-7.43269338272512E-4,-2.524651288986206,1013.35986,
2021.01.16 15:40:50,1.0,27.0,20.372513,-31.969126,-16.93625,0.080281526,0.7384102,9.678635,-0.0014868369,-0.002678901,0.016960109,-0.07614267617464066,-0.008294526487588882,-2.551069974899292,1013.36017,
2021.01.16 15:40:50,1.0,27.0,20.911911,-32.327885,-17.212456,0.030012688,0.71291804,9.752646,-0.008927304,-0.012359936,0.0023186672,-0.07296981662511826,-0.0030773794278502464,-2.546837329864502,1013.3605,
2021.01.16 15:40:50,1.0,27.0,19.317513,-32.04304,-17.956104,0.10048636,0.7229631,9.720425,-0.012257205,7.541943E-5,0.012103124,-0.07423502951860428,-0.010337283834815025,-2.574741840362549,1013.3605,
2021.01.16 15:40:50,1.0,27.0,19.701385,-31.873999,-18.036318,0.034151588,0.7196994,9.72623,-0.009087587,0.0022673334,-5.587251E-4,-0.07386066019535065,-0.0035112728364765644,-2.566030740737915,1013.3608,
2021.01.16 15:40:50,1.0,27.0,21.05146,-32.962784,-15.873589,0.054664094,0.71009713,9.803078,0.00491885,0.0016105569,0.015250627,-0.0723087266087532,-0.005576159339398146,-2.5540101528167725,1013.36084,
2021.01.16 15:40:50,1.0,27.0,19.838165,-32.276913,-17.269533,0.13476442,0.74634093,9.699399,0.0039506047,-0.0032908102,0.0029424531,-0.07678842544555664,-0.013893205672502518,-2.565096855163574,1013.3609,
2021.01.16 15:40:50,1.0,27.0,19.345978,-32.124386,-17.752708,0.032250494,0.7031631,9.689678,-0.0029829135,0.003228377,0.0071272077,-0.07244088500738144,-0.0033283226657658815,-2.578795909881592,1013.3613,
2021.01.16 15:40:50,1.0,27.0,19.601486,-32.3316,-17.922842,0.105209686,0.7351923,9.770125,-0.0067798323,-0.012667129,0.020853037,-0.07510312646627426,-0.010768093168735504,-2.572051525115967,1013.36194,
2021.01.16 15:40:50,1.0,27.0,20.065536,-31.979097,-17.571394,0.08815098,0.6837559,9.711037,-8.7310746E-4,-7.4545416E-4,0.008619058,-0.07029128819704056,-0.009077152237296104,-2.5587613582611084,1013.36194,
2021.01.16 15:40:51,1.0,27.0,20.71669,-31.229506,-17.62582,0.043192428,0.68381,9.733836,-0.00608986,-0.009736337,0.009806824,-0.07013490796089172,-0.0044373199343681335,-2.5342864990234375,1013.362,
2021.01.16 15:40:51,1.0,27.0,19.627121,-31.983572,-17.424757,0.1100528,0.7080149,9.706008,7.5116125E-4,0.0069747153,0.020827804,-0.07281240820884705,-0.011338140815496445,-2.567455768585205,1013.3624,
2021.01.16 15:40:51,1.0,27.0,19.950912,-30.686003,-19.272118,0.08185562,0.6654728,9.750594,-0.00312962,-0.0011969832,0.010741318,-0.0681413933634758,-0.008394738659262657,-2.540264844894409,1013.36365,
2021.01.16 15:40:51,1.0,27.0,19.283333,-32.523666,-17.085308,0.092407525,0.6852362,9.690227,-0.0061273514,-4.3373293E-4,0.0052868295,-0.0705934464931488,-0.009535868652164936,-2.584980010986328,1013.3639,
2021.01.16 15:40:51,1.0,27.0,19.5924,-32.720184,-16.058958,0.15711658,0.70781237,9.753914,0.007512844,0.004287775,-1.18541066E-4,-0.07243067026138306,-0.016106661409139633,-2.5792582035064697,1013.36536,
2021.01.16 15:40:51,1.0,27.0,21.070595,-32.33243,-17.314987,0.088444,0.69147015,9.694496,0.008644095,-0.00286543,-0.018094122,-0.07120251655578613,-0.009122861549258232,-2.5416526794433594,1013.3655,
2021.01.16 15:40:51,1.0,27.0,20.632454,-33.408466,-17.683441,0.028945884,0.6570461,9.706773,0.0025387642,-0.0015477999,-0.017216526,-0.06758604943752289,-0.0029820208437740803,-2.5697641372680664,1013.3656,
2021.01.16 15:40:51,1.0,27.0,19.9833,-32.675884,-17.563992,0.08208713,0.6893494,9.64251,4.7112838E-4,-0.008086503,-0.005721987,-0.07136666774749756,-0.008512839674949646,-2.5707757472991943,1013.3662,
2021.01.16 15:40:51,1.0,27.0,19.417969,-31.362398,-17.165953,0.103575714,0.684004,9.639061,-0.009308515,-0.008240523,-0.007929079,-0.07083886116743088,-0.010745001956820488,-2.5641207695007324,1013.36646,
2021.01.16 15:40:51,1.0,27.0,19.72042,-32.615173,-17.416466,0.069668345,0.6958867,9.785367,-0.024413936,-0.0058700778,-0.015202032,-0.07099371403455734,-0.007119525223970413,-2.5766634941101074,1013.36676,
2021.01.16 15:40:51,1.0,27.0,20.526009,-32.648796,-19.08074,0.02992799,0.70606613,9.863563,0.0070055528,-0.0069332947,-1.17860734E-4,-0.07146105915307999,-0.0030341874808073044,-2.558513879776001,1013.3668,
2021.01.16 15:40:51,1.0,27.0,19.89878,-31.774267,-18.041443,0.08887696,0.69332606,9.777276,0.009710964,-0.0010769702,-0.005400396,-0.07079057395458221,-0.009089904837310314,-2.558741569519043,1013.367,
2021.01.16 15:40:51,1.0,27.0,19.431923,-31.63991,-17.393904,0.116485864,0.72457474,9.796567,0.021168487,-0.0028645191,-0.012697635,-0.07382248342037201,-0.011889917775988579,-2.5663747787475586,1013.367,
2021.01.16 15:40:52,1.0,27.0,21.059273,-33.182602,-17.046326,0.046189204,0.665327,9.679014,0.0086037945,-0.00579086,-0.007619126,-0.0686303898692131,-0.004772061947733164,-2.5569474697113037,1013.3673,
2021.01.16 15:40:52,1.0,27.0,21.405472,-31.033224,-17.90145,0.030429348,0.6928127,9.76258,-0.008494586,-0.008439223,-0.0055339057,-0.0708470270037651,-0.003116927109658718,-2.5157470703125,1013.3674,
2021.01.16 15:40:52,1.0,27.0,20.23922,-31.977526,-17.673021,0.10487661,0.71415305,9.741104,-0.001627869,-0.006102479,0.007734786,-0.07317820936441422,-0.010765982791781425,-2.5531885623931885,1013.3674,
2021.01.16 15:40:52,1.0,27.0,19.528915,-31.860891,-18.26013,0.0990023,0.7002888,9.747182,-0.0014036987,-0.0054270104,-6.156834E-5,-0.07171833515167236,-0.010156668722629547,-2.5675675868988037,1013.3682,
2021.01.16 15:40:52,1.0,27.0,19.978157,-32.91604,-17.0386,0.1337221,0.7022226,9.713496,0.005627221,-0.008939523,0.0014252458,-0.07216113060712814,-0.013765759766101837,-2.572889566421509,1013.3683,
2021.01.16 15:40:52,1.0,27.0,18.679626,-30.674826,-16.187216,0.07020003,0.6943991,9.791268,0.012060484,-0.0018851268,0.0059369113,-0.07079987972974777,-0.007169533520936966,-2.5737431049346924,1013.3683,
2021.01.16 15:40:52,1.0,27.0,19.402168,-32.802544,-18.785616,0.08243806,0.6955772,9.73951,0.0022380562,-6.153366E-4,-0.0030702644,-0.07129448652267456,-0.008464090526103973,-2.58436918258667,1013.3683,
2021.01.16 15:40:52,1.0,27.0,19.973206,-32.28076,-18.639803,0.11644072,0.7158287,9.7070875,0.0047084684,0.004158319,-0.0013656479,-0.07360438257455826,-0.011994858272373676,-2.561825752258301,1013.3683,
2021.01.16 15:40:52,1.0,27.0,18.65921,-30.819948,-17.587065,0.07953208,0.68772763,9.770221,-0.0012437324,0.0022205082,-0.0071632024,-0.07027195394039154,-0.008140074089169502,-2.5744664669036865,1013.3683,
2021.01.16 15:40:52,1.0,27.0,19.789452,-32.68936,-17.602327,0.11003596,0.70933986,9.723628,0.0055158352,4.4236705E-4,5.9921853E-4,-0.07281647622585297,-0.011315865442156792,-2.5738494396209717,1013.3683,
2021.01.16 15:40:52,1.0,27.0,19.866577,-32.553585,-17.239296,0.07695389,0.730573,9.7123995,0.005214975,7.8366965E-4,-0.005824541,-0.07507691532373428,-0.007923096418380737,-2.5712127685546875,1013.3683,
2021.01.16 15:40:52,1.0,27.0,19.389221,-31.962332,-18.069729,-0.0032331522,0.6776099,9.732462,0.0037187098,-0.006372713,0.0051707886,-0.06951151043176651,3.3220290788449347E-4,-2.577385902404785,1013.3683,
2021.01.16 15:40:52,1.0,27.0,19.826653,-31.712427,-18.120209,0.17951377,0.7474169,9.773085,0.0025571475,-0.0014779421,0.020781025,-0.07631567865610123,-0.018366113305091858,-2.5540854930877686,1013.3683,
2021.01.16 15:40:52,1.0,27.0,19.482307,-32.560043,-18.041039,0.15907499,0.769077,9.700765,0.0066750543,-0.0020019822,-0.0031537183,-0.0791039690375328,-0.016396721825003624,-2.5746047496795654,1013.3683,
2021.01.16 15:40:53,1.0,27.0,20.947128,-32.155647,-18.326843,-0.0059077763,0.6928006,9.75093,0.0075013284,-8.475641E-4,-0.008930738,-0.07093048840761185,6.058679427951574E-4,-2.5442163944244385,1013.3683,
2021.01.16 15:40:53,1.0,27.0,19.67894,-31.879278,-17.357988,0.1358955,0.75169593,9.719925,0.0034331884,-0.0044749416,0.011417825,-0.07717443257570267,-0.013980215415358543,-2.562549591064453,1013.3683,
2021.01.16 15:40:53,1.0,27.0,20.091133,-31.702986,-17.865034,0.15966244,0.7644418,9.741337,0.004350721,-0.0056172535,-8.4633706E-4,-0.07830303907394409,-0.016388731077313423,-2.5484559535980225,1013.3683,
2021.01.16 15:40:53,1.0,27.0,20.313538,-34.044746,-17.275194,0.045656145,0.74765223,9.702859,0.0054166093,-7.2161807E-4,-0.021906827,-0.07690203189849854,-0.004705397877842188,-2.5828959941864014,1013.3682,
2021.01.16 15:40:53,1.0,27.0,20.389175,-33.033466,-17.58788,0.058872912,0.73619777,9.736934,2.0772195E-4,-0.0021348645,-0.0031070814,-0.07546383142471313,-0.006046276539564133,-2.566545009613037,1013.3676,
2021.01.16 15:40:53,1.0,27.0,18.957031,-32.750797,-18.411554,0.100038655,0.7783453,9.685304,0.0018253353,-6.7001395E-4,1.8652715E-4,-0.08018694072961807,-0.010328546166419983,-2.5909974575042725,1013.3674,
2021.01.16 15:40:53,1.0,27.0,19.974594,-32.921116,-16.830336,0.055642217,0.73572826,9.731077,-0.007965349,-0.0012660677,-0.0073017464,-0.075461246073246,-0.005717928986996412,-2.575263261795044,1013.3674,
2021.01.16 15:40:53,1.0,27.0,20.002892,-31.92851,-16.568064,0.11836811,0.76977736,9.725368,-0.0015376988,-0.001017661,0.010369501,-0.07898099720478058,-0.012170466594398022,-2.5571727752685547,1013.3674,
2021.01.16 15:40:53,1.0,27.0,20.599525,-31.976027,-15.980818,0.0903019,0.7481918,9.728354,-0.0014150958,-0.005759085,-0.0016760828,-0.07675396651029587,-0.009282073937356472,-2.5468602180480957,1013.3673,
2021.01.16 15:40:53,1.0,27.0,20.693657,-32.060318,-16.322191,0.08743843,0.7443549,9.727902,0.0011224742,-2.5589718E-4,0.0018416694,-0.076365627348423,-0.008988173678517342,-2.545771598815918,1013.3673,
2021.01.16 15:40:53,1.0,27.0,19.60537,-32.48363,-17.394299,0.08726763,0.7641795,9.755358,1.2901868E-4,4.2874878E-4,-0.0019212719,-0.07817158102989197,-0.008945371024310589,-2.5746898651123047,1013.3672,
2021.01.16 15:40:53,1.0,27.0,20.054848,-31.55536,-17.679625,0.07171776,0.7345691,9.730212,0.0042837593,0.0015390986,9.685401E-4,-0.07534866034984589,-0.007370492909103632,-2.5515902042388916,1013.3668,
2021.01.16 15:40:53,1.0,27.0,18.961578,-32.253227,-18.064224,0.10877001,0.7463519,9.678063,-0.009411633,7.192313E-5,-0.0071993982,-0.0769607201218605,-0.011238346807658672,-2.5848047733306885,1013.36664,
2021.01.16 15:40:53,1.0,27.0,19.350372,-32.530334,-17.20857,0.03759926,0.72445464,9.75082,-0.0040414515,0.0038819062,0.0103273485,-0.07415998727083206,-0.003855990944430232,-2.5845072269439697,1013.36664,
2021.01.16 15:40:54,1.0,27.0,20.359642,-32.56568,-18.11627,0.05580683,0.6979542,9.728111,-0.008659864,0.008536678,-0.0034085312,-0.07162221521139145,-0.005736593622714281,-2.56101393699646,1013.3649,
2021.01.16 15:40:54,1.0,27.0,20.405571,-32.32306,-17.582897,0.09478807,0.7163941,9.716866,-0.0060533364,-7.5868866E-4,0.009798315,-0.0735902339220047,-0.009754694998264313,-2.554982900619507,1013.3649,
2021.01.16 15:40:54,1.0,27.0,18.518372,-32.581604,-16.511545,0.089003466,0.7438424,9.820622,-0.0071615526,0.0010287964,0.0010350053,-0.07559546083211899,-0.009062666445970535,-2.603182554244995,1013.36395,
2021.01.16 15:40:54,1.0,27.0,19.171394,-33.286373,-16.467735,0.10442322,0.70081204,9.701662,0.009367831,-0.0023641624,-0.0033685411,-0.07210686802864075,-0.010763020254671574,-2.5981829166412354,1013.3622,
2021.01.16 15:40:54,1.0,27.0,19.768433,-33.062798,-17.015804,0.06669614,0.70146275,9.677289,0.0050097513,-0.0026177056,-0.003732421,-0.07235720008611679,-0.006891918368637562,-2.582139730453491,1013.3622,
2021.01.16 15:40:54,1.0,27.0,20.767166,-33.352856,-17.088917,0.079705425,0.73080254,9.750462,-0.008805467,-5.575465E-4,-0.0060183494,-0.07480818778276443,-0.008174346759915352,-2.562818765640259,1013.3604,
2021.01.16 15:40:54,1.0,27.0,19.483467,-33.046562,-17.020931,0.06497408,0.72625273,9.713279,0.0021763244,0.0024071431,-0.002613728,-0.07462853193283081,-0.0066891019232571125,-2.587832450866699,1013.3604,
2021.01.16 15:40:54,1.0,27.0,20.148949,-32.97578,-17.475645,0.039303135,0.7039156,9.698974,-0.007821972,-0.0020734807,-0.0055796206,-0.07244867086410522,-0.004052276257425547,-2.572812080383301,1013.3604,
2021.01.16 15:40:54,1.0,27.0,19.633453,-32.41869,-17.684368,0.04598634,0.75072604,9.839322,-0.007177437,0.0026940207,0.0033721458,-0.07615018635988235,-0.004673696588724852,-2.574925661087036,1013.3604,
2021.01.16 15:40:54,1.0,27.0,19.568085,-32.81817,-16.42795,0.111109644,0.7409112,9.686982,0.01114882,0.009642068,3.8604438E-4,-0.07633161544799805,-0.011469492688775063,-2.581263780593872,1013.3604,
2021.01.16 15:40:54,1.0,27.0,19.253098,-31.755125,-17.633104,0.02833254,0.7315664,9.776208,0.002821464,-0.002297047,-0.0045436164,-0.0746917873620987,-0.0028981033246964216,-2.575160264968872,1013.3604,
2021.01.16 15:40:54,1.0,27.0,20.104324,-31.33465,-17.744284,0.0795849,0.7345186,9.680137,0.010675186,-0.0018313273,-0.0010983157,-0.07573127001523972,-0.00822127889841795,-2.5465354919433594,1013.3604,
2021.01.16 15:40:54,1.0,27.0,19.486023,-31.804377,-16.636873,0.04043347,0.7315522,9.698939,-0.0013223607,0.0010084861,-0.009222021,-0.07528278976678848,-0.0041688308119773865,-2.571000576019287,1013.35974,
2021.01.16 15:40:54,1.0,27.0,19.917625,-32.484787,-17.945929,0.051805098,0.74684834,9.7397585,-0.0035707052,-9.94434E-4,-0.0034851888,-0.07652953267097473,-0.005318880081176758,-2.568713665008545,1013.35944,
2021.01.16 15:40:54,1.0,27.0,18.865639,-33.02157,-17.459898,0.020454649,0.74746495,9.679284,-0.0025060922,8.457614E-4,-0.00494267,-0.07707003504037857,-0.002113236812874675,-2.6022658348083496,1013.3594,
2021.01.16 15:40:55,1.0,27.0,19.378944,-31.479116,-17.299116,0.009148743,0.7196398,9.75467,-0.010759747,6.045202E-4,5.789804E-4,-0.07364044338464737,-9.378831018693745E-4,-2.569532632827759,1013.3592,
2021.01.16 15:40:55,1.0,27.0,20.180077,-32.833744,-17.144598,0.116724156,0.76623696,9.721886,-0.003487127,-0.0052718427,0.009573428,-0.0786474347114563,-0.012005751952528954,-2.5658535957336426,1013.3591,
2021.01.16 15:40:55,1.0,27.0,21.046417,-32.02253,-17.179312,0.041260093,0.7441676,9.77993,-0.006343032,0.0013963461,-0.007773742,-0.07594428211450577,-0.004218828398734331,-2.538017749786377,1013.3589,
2021.01.16 15:40:55,1.0,27.0,18.906845,-31.426737,-17.039118,0.061154246,0.7270458,9.670583,0.0048016403,0.0013941543,-0.0055684415,-0.07503851503133774,-0.0063236551359295845,-2.5777368545532227,1013.35846,
2021.01.16 15:40:55,1.0,27.0,20.145805,-32.18561,-17.050753,0.032758985,0.7258374,9.781089,-0.008886656,-0.0052316566,-0.0097003095,-0.07407205551862717,-0.003349204082041979,-2.561659336090088,1013.3582,
2021.01.16 15:40:55,1.0,27.0,19.191666,-32.388115,-17.11844,0.0687745,0.72707194,9.687038,0.0042978935,0.0036635827,-0.0024165194,-0.07491381466388702,-0.007099522277712822,-2.584820032119751,1013.35803,
2021.01.16 15:40:55,1.0,27.0,19.160202,-32.857418,-17.823431,0.010211079,0.71564406,9.705214,-0.008331491,0.0045854757,-0.012029851,-0.07360485941171646,-0.0010521226795390248,-2.594111919403076,1013.35767,
2021.01.16 15:40:55,1.0,27.0,20.228683,-32.070206,-16.28834,0.04343252,0.7295454,9.810948,-0.009998271,-0.0043858103,-0.0012490139,-0.07422299683094025,-0.004426915198564529,-2.558551788330078,1013.35754,
2021.01.16 15:40:55,1.0,27.0,20.286415,-32.92348,-16.616457,0.030521622,0.70736647,9.655417,-0.011526836,-0.003278344,0.0016958672,-0.07313008606433868,-0.0031610773876309395,-2.5700812339782715,1013.3572,
2021.01.16 15:40:55,1.0,27.0,19.402435,-31.70614,-17.622538,0.011196909,0.70735955,9.7578745,-0.0075191758,0.0077398815,0.0040053558,-0.07236452400684357,-0.0011474735802039504,-2.5723206996917725,1013.3572,
2021.01.16 15:40:55,1.0,27.0,19.403503,-32.69769,-17.21584,0.050764997,0.6940083,9.752416,-0.0084695425,0.0026943225,0.010139892,-0.07104198634624481,-0.00520532950758934,-2.5860307216644287,1013.3572,
2021.01.16 15:40:55,1.0,27.0,19.3452,-32.998756,-17.058365,0.07001469,0.6877971,9.751529,-0.0018044431,-0.0011194365,0.0060516614,-0.07041381299495697,-0.007179745007306337,-2.5912396907806396,1013.3572,
2021.01.16 15:40:55,1.0,27.0,19.376404,-34.103535,-17.09308,0.05426842,0.6869078,9.7165575,-4.6369596E-4,0.0029568989,0.0017258939,-0.07057604938745499,-0.005585090722888708,-2.6061387062072754,1013.3572,
2021.01.16 15:40:56,1.0,27.0,20.578438,-31.433035,-16.798214,0.0053837113,0.6640945,9.7226305,-0.0021952698,0.0024417168,0.0041754786,-0.068198062479496,-5.537298275157809E-4,-2.543492317199707,1013.3574,
2021.01.16 15:40:56,1.0,27.0,19.636406,-32.622665,-17.851086,0.014078829,0.67432874,9.674403,0.0018137085,0.0017340479,-0.007195239,-0.06958973407745361,-0.0014552648644894361,-2.580766201019287,1013.35754,
2021.01.16 15:40:56,1.0,27.0,20.380936,-31.582338,-17.319374,0.009665364,0.69952154,9.776948,-0.007794943,-0.0042112037,-0.004334579,-0.07142629474401474,-9.885868057608604E-4,-2.548577308654785,1013.35767,
2021.01.16 15:40:56,1.0,27.0,19.740898,-31.587652,-16.875101,0.046958942,0.6880228,9.715169,0.0043208976,-0.0024714875,2.0040991E-4,-0.07070057094097137,-0.004833531565964222,-2.562624931335449,1013.35767,
2021.01.16 15:40:56,1.0,27.0,19.439972,-31.81597,-17.688414,0.024407715,0.67039776,9.719395,-0.008736774,9.782277E-4,-0.009411966,-0.06886596232652664,-0.0025112328585237265,-2.573507308959961,1013.35767,
2021.01.16 15:40:56,1.0,27.0,21.119858,-31.225096,-17.357119,-0.016590288,0.6998298,9.765679,-0.0017202673,-0.0015261993,-0.0042660767,-0.07153977453708649,0.0016988343559205532,-2.527308225631714,1013.35767,
2021.01.16 15:40:56,1.0,27.0,21.040855,-31.937323,-17.424644,0.013291988,0.668763,9.702437,0.0011272759,0.0033192774,-0.0029716708,-0.06881840527057648,-0.0013699629344046116,-2.539700508117676,1013.3582,
2021.01.16 15:40:56,1.0,27.0,20.132599,-30.926561,-18.011063,0.017833259,0.69305474,9.780417,-0.005652365,-6.573419E-4,6.639538E-5,-0.07074310630559921,-0.0018233617302030325,-2.543217420578003,1013.3584,
2021.01.16 15:40:56,1.0,27.0,20.013924,-31.242674,-16.299913,-0.015335689,0.67445904,9.6645565,0.007735093,0.0053652385,0.0012852368,-0.0696738064289093,0.0015867957845330238,-2.554325819015503,1013.3589,
2021.01.16 15:40:56,1.0,27.0,19.716942,-30.862246,-16.919306,-0.046055373,0.64004153,9.770169,-0.0076644137,6.934273E-4,0.00365216,-0.06541557610034943,0.004713841713964939,-2.557154655456543,1013.3591,
2021.01.16 15:40:56,1.0,27.0,19.842712,-32.270687,-17.32255,0.07834945,0.7125601,9.718333,-0.0020572105,0.0011248677,0.018497402,-0.07318788766860962,-0.008061850443482399,-2.5680038928985596,1013.35913,
2021.01.16 15:40:56,1.0,27.0,18.683975,-32.416885,-18.822975,0.008869739,0.688217,9.765691,-0.0011145691,-0.0057031536,0.0026938487,-0.07035659998655319,-9.082549368031323E-4,-2.5989882946014404,1013.35913,
2021.01.16 15:40:56,1.0,27.0,20.926926,-31.736326,-17.52813,0.010145132,0.65231735,9.707995,0.006000356,-0.0032255934,0.0105284415,-0.06709293276071548,-0.0010450280969962478,-2.5396952629089355,1013.35913,
2021.01.16 15:40:56,1.0,27.0,19.343681,-32.790977,-16.221851,0.03084279,0.6914359,9.743766,-0.002603124,4.3849973E-4,0.0047616214,-0.07084276527166367,-0.003165376605466008,-2.5906176567077637,1013.35913,
2021.01.16 15:40:56,1.0,27.0,18.96695,-33.44864,-16.788082,0.011954564,0.67375165,9.727775,0.001204664,-0.0024667894,-6.612134E-4,-0.06915012747049332,-0.001228909706696868,-2.6089394092559814,1013.35913,
2021.01.16 15:40:57,1.0,27.0,20.504066,-32.359642,-17.894175,-0.019626275,0.6542153,9.700527,0.0018534787,-0.005169548,0.0064610066,-0.06733909994363785,0.0020232147071510553,-2.5592200756073,1013.35913,
2021.01.16 15:40:57,1.0,27.0,18.481728,-31.78713,-17.784492,0.061312098,0.70554703,9.790936,-0.009888491,0.00800992,0.004494668,-0.0719354897737503,-0.006262046284973621,-2.5931975841522217,1013.3584,
2021.01.16 15:40:57,1.0,27.0,19.883705,-33.122406,-17.95357,0.049286667,0.6823618,9.696339,0.009357826,-0.012447424,-0.003968034,-0.07025640457868576,-0.005082974676042795,-2.5805647373199463,1013.35803,
2021.01.16 15:40:57,1.0,27.0,20.214493,-31.522135,-17.270168,-0.01965364,0.64899397,9.770892,0.00206629,-0.0029293804,-0.012383962,-0.06632360816001892,0.002011445350944996,-2.554138422012329,1013.358,
2021.01.16 15:40:57,1.0,27.0,20.710274,-31.944529,-16.740103,0.11638389,0.72616225,9.728069,0.009746712,0.019924449,-0.008845585,-0.07450258731842041,-0.011963147670030594,-2.5425937175750732,1013.35767,
2021.01.16 15:40:57,1.0,27.0,20.324966,-32.855946,-17.390017,-0.18003301,0.6343648,9.716447,0.020211555,0.005328107,-0.03790629,-0.06518404930830002,0.01852656714618206,-2.5777554512023926,1013.35767,
2021.01.16 15:40:57,1.0,27.0,20.99099,-32.528984,-17.545406,0.011744629,0.69869024,9.661845,0.010472851,0.016098578,0.011815336,-0.07218866050243378,-0.001215567346662283,-2.5486061573028564,1013.35767,
2021.01.16 15:40:57,1.0,27.0,20.446785,-32.277237,-17.264027,-0.016492423,0.74864674,9.800471,0.0036846278,0.014254376,-0.0028670225,-0.076240673661232,0.0016828178195282817,-2.557177782058716,1013.35754,
2021.01.16 15:40:57,1.0,27.0,20.373848,-32.447212,-17.106827,-0.0022658452,0.7246287,9.72627,0.018739847,0.017041108,-0.0070522125,-0.07436484098434448,2.3296137806028128E-4,-2.561521530151367,1013.35754,
2021.01.16 15:40:57,1.0,27.0,20.104408,-32.567333,-17.7492,-0.1148692,0.7333541,9.388389,0.04279314,0.011021201,-0.004844661,-0.07794877886772156,0.01223463099449873,-2.5722177028656006,1013.3575,
