Time,X-cord,Y-cord,Mag_x,Mag_y,Mag_z,Acc_x,Acc_y,Acc_z,Gyro_x,Gyro_y,Gyro_z,Orn_x,Orn_y,Orn_z,Pressure,
2021.01.16 16:04:40,82.0,24.0,51.273933,21.192787,-22.990772,-0.26797163,0.6137736,10.130048,-0.032904025,-0.06746432,0.015257783,-0.0604943186044693,0.026446979492902756,-1.150673747062683,1013.52264,
2021.01.16 16:04:40,82.0,24.0,51.33155,20.280287,-22.73398,-0.08355355,0.45722505,9.419785,0.028295634,0.12695941,0.02268751,-0.04849882796406746,0.008869774639606476,-1.1747173070907593,1013.52264,
2021.01.16 16:04:40,82.0,24.0,51.371834,19.927345,-23.068262,-0.018867843,0.49372086,9.653762,-0.056090847,-0.05834119,0.052949432,-0.051098231226205826,0.0019544526003301144,-1.1810193061828613,1013.52167,
2021.01.16 16:04:40,82.0,24.0,51.36149,19.63821,-22.533947,-0.17461546,0.43627572,9.826262,-0.026554132,-0.04599055,0.078573756,-0.044362813234329224,0.017768410965800285,-1.1856064796447754,1013.5188,
2021.01.16 16:04:40,82.0,24.0,51.024773,19.605742,-24.0889,0.047709614,0.4536821,9.819907,-0.040678278,-0.047354817,0.037347034,-0.04616687074303627,-0.004858420696109533,-1.1864418983459473,1013.5186,
2021.01.16 16:04:40,82.0,24.0,51.969032,20.53766,-23.414557,0.114159726,0.429356,9.726691,-0.012833534,-0.03614637,0.032086026,-0.04411036893725395,-0.011736209504306316,-1.179984450340271,1013.5186,
2021.01.16 16:04:40,82.0,24.0,50.64341,19.022497,-23.392153,0.062202375,0.4139297,9.847433,-0.014154378,-0.03401468,-0.004053804,-0.04200870543718338,-0.006316523998975754,-1.1960982084274292,1013.5186,
2021.01.16 16:04:40,82.0,24.0,51.609627,19.856705,-23.491833,-0.035470847,0.3672636,9.698096,0.001790632,-0.040610917,-0.011011139,-0.03785131871700287,0.0036574900150299072,-1.1881290674209595,1013.51843,
2021.01.16 16:04:40,82.0,24.0,50.97428,19.780249,-25.080116,0.0053400695,0.23091935,9.703491,-0.04583627,-0.084922224,0.015849303,-0.023793058469891548,-5.503245047293603E-4,-1.190705418586731,1013.51843,
2021.01.16 16:04:40,82.0,24.0,50.82258,20.152037,-24.642347,0.30561453,0.4064242,9.690806,-0.08965329,-0.0318399,0.034234595,-0.04189378395676613,-0.031526096165180206,-1.1824722290039062,1013.518,
2021.01.16 16:04:40,82.0,24.0,50.44436,19.018543,-22.8021,0.09574773,0.40494528,9.814377,-0.037594717,7.6894707E-4,-0.04595573,-0.041235070675611496,-0.009755555540323257,-1.1961523294448853,1013.5168,
2021.01.16 16:04:41,82.0,24.0,49.64144,19.98604,-23.031239,0.070721805,0.22641373,9.854904,0.010824524,-8.829261E-4,-0.03589883,-0.02297009341418743,-0.007176182698458433,-1.1803020238876343,1013.51654,
2021.01.16 16:04:41,82.0,24.0,50.483253,20.256477,-23.65661,0.16021839,0.31841287,9.639406,0.0131151695,0.013410058,-0.020260068,-0.03301585465669632,-0.01661965809762478,-1.1793105602264404,1013.51587,
2021.01.16 16:04:41,82.0,24.0,50.780464,20.244673,-23.679165,0.05035503,0.23352303,9.846871,0.004266578,-5.116087E-4,-0.02729073,-0.023710699751973152,-0.005113765597343445,-1.1829636096954346,1013.51587,
2021.01.16 16:04:41,82.0,24.0,51.316658,19.887482,-24.057041,0.2264256,0.29286674,9.6809435,0.016591853,-9.790636E-4,-0.0018350376,-0.03023439273238182,-0.02338453195989132,-1.193233609199524,1013.5157,
2021.01.16 16:04:41,82.0,24.0,51.54986,21.25506,-24.05682,0.12284132,0.27936962,9.764581,-0.0063690287,-0.011481054,-0.0302223,-0.02860044315457344,-0.012579632923007011,-1.1708853244781494,1013.5156,
2021.01.16 16:04:41,82.0,24.0,50.67382,20.410263,-23.577555,0.10654924,0.29558253,9.796406,-0.0013700575,-4.5110722E-4,-0.0184804,-0.03016161546111107,-0.01087593100965023,-1.1780873537063599,1013.5156,
2021.01.16 16:04:41,82.0,24.0,51.847313,19.890589,-24.070578,0.16446613,0.3267181,9.69711,-4.8608985E-4,0.0021008782,-0.02413606,-0.03367473557591438,-0.016958698630332947,-1.1942429542541504,1013.5156,
2021.01.16 16:04:41,82.0,24.0,50.643547,21.093426,-24.138086,0.04460944,0.28717425,9.839761,-0.007722202,3.523156E-4,-0.027611146,-0.02917650155723095,-0.004533558618277311,-1.165390968322754,1013.5156,
2021.01.16 16:04:41,82.0,24.0,51.71438,20.426523,-24.323746,0.1435406,0.33100486,9.752244,0.007622298,0.0045678318,-0.025249429,-0.033924710005521774,-0.014717663638293743,-1.1838958263397217,1013.5156,
2021.01.16 16:04:41,82.0,24.0,50.41732,20.068933,-23.386684,0.020613996,0.3066797,9.747926,0.009875843,-0.0043366714,-0.032253306,-0.031450577080249786,-0.002114702947437763,-1.1800085306167603,1013.5156,
2021.01.16 16:04:41,82.0,24.0,50.034798,20.764744,-23.692125,0.045055464,0.29338896,9.811533,0.011254258,0.009332718,-0.013795298,-0.029893236234784126,-0.00459206011146307,-1.1664634943008423,1013.5156,
2021.01.16 16:04:41,82.0,24.0,49.804893,21.870724,-23.556034,0.042844865,0.27396265,9.675542,0.014817685,0.0036032177,-0.0063783675,-0.028307124972343445,-0.004428132902830839,-1.1468846797943115,1013.5156,
2021.01.16 16:04:41,82.0,24.0,50.339043,20.777065,-23.740383,0.10761678,0.28289816,9.954377,0.006273192,-0.013554872,0.009934484,-0.02841016836464405,-0.010810580104589462,-1.1701711416244507,1013.5157,
2021.01.16 16:04:41,82.0,24.0,51.56414,22.040335,-23.721237,0.3267784,0.3607179,9.698774,0.033637192,0.01126815,0.014864099,-0.03715391457080841,-0.033680010586977005,-1.1592638492584229,1013.51587,
2021.01.16 16:04:42,82.0,24.0,50.723198,21.196901,-23.597652,-0.0077897212,0.24470872,9.694223,0.01884995,-0.007316359,-0.03888033,-0.025237368419766426,8.035424398258328E-4,-1.1649671792984009,1013.51587,
2021.01.16 16:04:42,82.0,24.0,49.73948,19.457878,-23.022667,-0.06453323,0.16861586,9.663901,0.0031724302,-0.0051371693,0.004294506,-0.017445852980017662,0.006677662953734398,-1.189794898033142,1013.5168,
2021.01.16 16:04:42,82.0,24.0,49.782387,21.804264,-23.494738,0.3083463,0.31179103,9.7367525,-0.026526215,0.00410184,-0.0028137271,-0.03199511021375656,-0.031657710671424866,-1.1517624855041504,1013.5168,
2021.01.16 16:04:42,82.0,24.0,50.15838,20.520332,-23.01718,0.007628108,0.21494548,9.826054,-0.023822125,-0.0036736384,0.008697225,-0.02187156304717064,-7.763143512420356E-4,-1.1741185188293457,1013.51697,
2021.01.16 16:04:42,82.0,24.0,50.577156,19.324224,-23.103899,0.25109228,0.3343495,9.780585,-0.017466763,0.0015586168,0.033400364,-0.034160465002059937,-0.02566688321530819,-1.1971157789230347,1013.518,
2021.01.16 16:04:42,82.0,24.0,50.573647,21.37033,-23.64063,0.012689759,0.2529629,9.771733,-0.009995762,0.0038201925,-7.7130354E-4,-0.025881405919790268,-0.001298618270084262,-1.1611446142196655,1013.51843,
2021.01.16 16:04:42,82.0,24.0,50.54769,21.53257,-23.843298,0.06658962,0.2426632,9.799624,-0.0074966666,0.0055237724,0.030045599,-0.024756869301199913,-0.006795015186071396,-1.1596661806106567,1013.5186,
2021.01.16 16:04:42,82.0,24.0,50.583717,19.704088,-24.087088,0.17613082,0.28601655,9.763179,-1.4167745E-4,0.0151855135,0.026941257,-0.02928229607641697,-0.01803835667669773,-1.190796136856079,1013.5186,
2021.01.16 16:04:42,82.0,24.0,51.360603,19.955929,-23.71976,0.069978714,0.26766393,9.795265,7.761724E-4,0.013848361,0.010194637,-0.027318352833390236,-0.007144015282392502,-1.1907107830047607,1013.5186,
2021.01.16 16:04:42,82.0,24.0,49.70582,20.18505,-23.34632,0.02313372,0.2468446,9.763348,0.009821541,0.013009726,0.02076528,-0.02527732588350773,-0.002369440859183669,-1.1754584312438965,1013.5186,
2021.01.16 16:04:42,82.0,24.0,50.823418,19.928366,-23.420918,0.104952574,0.25795662,9.7549305,0.0024290408,0.005551943,0.029688263,-0.02643602527678013,-0.010758509859442711,-1.1886533498764038,1013.5186,
2021.01.16 16:04:42,82.0,24.0,50.71026,20.462877,-23.13982,0.059441406,0.2646191,9.762147,0.0030848458,-0.0051216404,0.021640984,-0.02709951251745224,-0.00608889339491725,-1.177910327911377,1013.5186,
2021.01.16 16:04:42,82.0,24.0,49.790474,20.471449,-22.320824,0.060999215,0.2619286,9.751652,0.0031984104,0.0019744115,0.02531836,-0.026852939277887344,-0.00625518849119544,-1.171725869178772,1013.5186,
2021.01.16 16:04:43,82.0,24.0,51.396416,19.563475,-23.949583,0.07885142,0.2595443,9.752372,-5.7679415E-4,0.008540023,0.0171944,-0.026606304571032524,-0.008085181005299091,-1.1978782415390015,1013.5186,
2021.01.16 16:04:43,82.0,24.0,50.61222,19.159044,-23.705822,0.07726256,0.30168435,9.792457,0.0027206452,0.0021550218,0.015768448,-0.030797133222222328,-0.007889843545854092,-1.1979751586914062,1013.5171,
2021.01.16 16:04:43,82.0,24.0,50.81211,20.755219,-22.734238,0.030724058,0.2340704,9.724246,0.0015463906,0.0068896725,0.015058301,-0.024066036567091942,-0.003159520449116826,-1.174484372138977,1013.5171,
2021.01.16 16:04:43,82.0,24.0,50.708443,20.019146,-24.000843,0.061421692,0.30128732,9.796535,0.006674575,0.0014846945,0.012354431,-0.03074418380856514,-0.0062696547247469425,-1.1836209297180176,1013.5171,
2021.01.16 16:04:43,82.0,24.0,50.253227,20.764042,-23.867744,-0.002967256,0.24517862,9.692842,0.005791317,0.019443076,-0.0010918129,-0.025289418175816536,3.0612858245149255E-4,-1.1688108444213867,1013.5186,
2021.01.16 16:04:43,82.0,24.0,50.74334,20.541534,-23.270567,-0.007810702,0.32017174,9.858794,-0.0053026997,0.0067032315,0.017647823,-0.03246433287858963,7.922571967355907E-4,-1.173454999923706,1013.5186,
2021.01.16 16:04:43,82.0,24.0,50.622963,20.037182,-23.645662,0.024867428,0.302398,9.7542715,0.014816251,9.093139E-4,0.021219453,-0.03099157102406025,-0.0025493830908089876,-1.1821012496948242,1013.5186,
2021.01.16 16:04:43,82.0,24.0,50.792976,20.26555,-23.287968,0.043533366,0.2712306,9.685394,0.014190696,-0.0048826416,0.020687457,-0.0279964841902256,-0.004494713619351387,-1.1811058521270752,1013.5186,
2021.01.16 16:04:43,82.0,24.0,51.026756,19.97286,-24.715034,0.047346633,0.29584134,9.81789,-0.005389131,-0.005641645,0.013965014,-0.03012341633439064,-0.004822447896003723,-1.1862071752548218,1013.51904,
2021.01.16 16:04:43,82.0,24.0,50.44657,20.079071,-24.069845,0.092668034,0.30811048,9.702858,0.012418136,3.8892962E-4,0.010908026,-0.03174249827861786,-0.009550301358103752,-1.181004285812378,1013.5197,
2021.01.16 16:04:43,82.0,24.0,50.55053,20.326845,-24.217913,0.027357431,0.3014672,9.828587,0.0021084142,-0.005120413,-0.007974519,-0.03066275455057621,-0.0027834479697048664,-1.1765992641448975,1013.5203,
2021.01.16 16:04:43,82.0,24.0,51.506905,20.878305,-24.4072,-0.0027285516,0.2887486,9.733593,0.015881108,0.0063308044,-0.0035808291,-0.029656462371349335,2.803231473080814E-4,-1.17377507686615,1013.5203,
2021.01.16 16:04:43,82.0,24.0,51.772514,20.12422,-23.274721,0.05803946,0.30265856,9.726605,0.009043625,0.004828366,0.00177757,-0.031105974689126015,-0.005967012140899897,-1.1892186403274536,1013.5203,
2021.01.16 16:04:43,82.0,24.0,51.707405,20.087528,-23.244904,-0.029278291,0.30065677,9.807684,0.0053382255,0.0083870515,-0.005003248,-0.030645491555333138,0.00298523111268878,-1.1879557371139526,1013.5206,
2021.01.16 16:04:43,82.0,24.0,52.569008,20.57195,-23.63851,0.04890886,0.31950608,9.726441,0.0105427,0.0058975737,0.005346115,-0.03283700346946716,-0.005028401035815477,-1.1861512660980225,1013.5212,
2021.01.16 16:04:44,82.0,24.0,51.919273,19.863773,-23.111986,-0.03050954,0.29945675,9.758025,0.005071549,-0.0014033384,-1.9383745E-4,-0.03067847341299057,0.003126600058749318,-1.1931259632110596,1013.5218,
2021.01.16 16:04:44,82.0,24.0,51.73826,19.732891,-23.456898,-0.007698026,0.3079119,9.729547,0.0040037804,-0.0033144364,0.014825358,-0.03163652867078781,7.912007858976722E-4,-1.1939889192581177,1013.52234,
2021.01.16 16:04:44,82.0,24.0,50.574684,21.228668,-23.965267,0.03448218,0.31288645,9.770175,-0.0061010537,-0.002032156,0.01852283,-0.032013509422540665,-0.003529316047206521,-1.1614408493041992,1013.5224,
2021.01.16 16:04:44,82.0,24.0,50.668175,20.782091,-22.651585,0.033540595,0.3472662,9.740206,-0.0056433356,-0.0040550716,0.00960429,-0.03563755378127098,-0.003443506546318531,-1.1688796281814575,1013.5224,
2021.01.16 16:04:44,82.0,24.0,50.76165,18.940483,-22.978987,0.02547579,0.31506518,9.7173605,0.0018041201,-0.0013011653,0.01713872,-0.03241145238280296,-0.0026216721162199974,-1.2014977931976318,1013.52234,
2021.01.16 16:04:44,82.0,24.0,51.570732,19.95609,-23.016037,0.05841757,0.35311368,9.84631,-0.0012151897,-0.005368249,0.0077281757,-0.03584654629230499,-0.005932870786637068,-1.1890467405319214,1013.52234,
2021.01.16 16:04:44,82.0,24.0,51.43656,20.97979,-23.474314,0.009513955,0.28898028,9.672539,0.008637773,-7.8223774E-4,-0.0062817303,-0.029867462813854218,-9.836043464019895E-4,-1.1722289323806763,1013.52234,
2021.01.16 16:04:44,82.0,24.0,50.09928,20.817486,-22.105476,-0.0026290782,0.33883652,9.826726,-0.004065666,-0.001259661,0.0024399203,-0.034467462450265884,2.675436553545296E-4,-1.1642400026321411,1013.52234,
2021.01.16 16:04:44,82.0,24.0,51.432457,19.766502,-22.69834,0.03582906,0.30957243,9.696721,0.005909304,0.0065171085,5.470592E-4,-0.03191441670060158,-0.003694949671626091,-1.192496418952942,1013.52234,
2021.01.16 16:04:44,82.0,24.0,50.047295,19.015076,-23.315172,6.432111E-4,0.30747166,9.758015,-0.007503195,-0.008026194,0.004829685,-0.0314992293715477,-6.591618875972927E-5,-1.1951169967651367,1013.5218,
2021.01.16 16:04:44,82.0,24.0,51.277443,20.372025,-23.422056,0.05468814,0.33429685,9.789284,0.0013813691,-0.001942052,0.002221026,-0.03413546457886696,-0.005586473271250725,-1.1804896593093872,1013.5218,
2021.01.16 16:04:44,82.0,24.0,51.019768,20.80186,-24.175213,0.015503266,0.2898595,9.740475,-0.004039272,8.4727176E-4,0.006432348,-0.02974943444132805,-0.0015916322590783238,-1.172088384628296,1013.5217,
2021.01.16 16:04:44,82.0,24.0,49.5707,19.60559,-23.592087,0.017128892,0.29057887,9.777233,-0.01002994,-0.0066664144,0.0014652321,-0.02971116080880165,-0.0017519142711535096,-1.182487964630127,1013.5217,
2021.01.16 16:04:45,82.0,24.0,50.205116,19.832047,-23.087767,0.045673955,0.29359317,9.781398,-0.0043994966,-0.0018542185,0.016408827,-0.030006123706698418,-0.004669437184929848,-1.183731198310852,1013.5217,
2021.01.16 16:04:45,82.0,24.0,49.851463,18.935555,-23.06648,0.057869326,0.3045033,9.773356,-0.0015022783,0.0065695434,0.009488364,-0.031145848333835602,-0.005921062082052231,-1.1965032815933228,1013.5217,
2021.01.16 16:04:45,82.0,24.0,52.240074,18.11517,-22.822895,0.03810081,0.2844208,9.7335205,0.0050220545,0.0044638733,0.0053551313,-0.029212214052677155,-0.003914371132850647,-1.2264317274093628,1013.5217,
2021.01.16 16:04:45,82.0,24.0,50.248466,19.607248,-24.424818,0.03772913,0.26752666,9.782876,-0.0016861106,-0.0010620614,0.0058708126,-0.027339404448866844,-0.0038566309958696365,-1.1881448030471802,1013.52155,
2021.01.16 16:04:45,82.0,24.0,52.586037,20.828106,-22.306234,0.10351208,0.30503204,9.803314,0.0061478713,-0.0012451683,0.008622213,-0.031103426590561867,-0.010558493435382843,-1.1843149662017822,1013.5212,
2021.01.16 16:04:45,82.0,24.0,50.079597,19.171484,-24.057528,0.036726188,0.2769963,9.73233,0.0069550583,0.001793341,5.150638E-4,-0.02845357544720173,-0.003773609409108758,-1.1941661834716797,1013.5211,
2021.01.16 16:04:45,82.0,24.0,50.51522,19.533735,-23.279696,-0.005353143,0.27077118,9.679688,0.013887508,0.0022275012,0.0013634248,-0.027965832501649857,5.530284252017736E-4,-1.19068443775177,1013.5212,
2021.01.16 16:04:45,82.0,24.0,52.157967,21.434435,-22.429081,0.054237295,0.32196447,9.800481,6.1160186E-4,-0.0054022637,0.008383737,-0.032839592546224594,-0.005534090101718903,-1.170055866241455,1013.52136,
2021.01.16 16:04:45,82.0,24.0,50.67623,20.450243,-24.467943,0.028722903,0.332229,9.765549,0.00520617,-0.0036281375,0.0018148897,-0.034007251262664795,-0.002941239858046174,-1.1739872694015503,1013.52155,
2021.01.16 16:04:45,82.0,24.0,51.472527,19.386744,-23.700214,-0.033069964,0.28439674,9.746919,0.0076442407,-0.00432015,0.006712959,-0.02916967310011387,0.0033928502816706896,-1.1983997821807861,1013.5216,
2021.01.16 16:04:45,82.0,24.0,50.796883,19.694763,-22.721838,0.08613479,0.365594,9.792863,0.0015632098,-2.2176057E-4,0.013767601,-0.037313926964998245,-0.008795443922281265,-1.188362717628479,1013.5216,
2021.01.16 16:04:45,82.0,24.0,49.544533,20.408936,-23.536291,-0.030194985,0.3084372,9.757182,0.009708859,0.007871469,0.016958976,-0.031600624322891235,0.0030946319457143545,-1.1668413877487183,1013.5217,
2021.01.16 16:04:45,82.0,24.0,50.9513,18.861559,-22.850468,-0.020002062,0.3042229,9.734727,0.0017750089,-0.0057836263,0.020471474,-0.031241070479154587,0.002054709242656827,-1.2037795782089233,1013.5217,
2021.01.16 16:04:46,82.0,24.0,50.3348,19.933601,-23.866112,-6.8833E-4,0.29882917,9.78683,0.007945925,-0.012616638,0.021517187,-0.030524322763085365,7.033227302599698E-5,-1.1814230680465698,1013.52185,
2021.01.16 16:04:46,82.0,24.0,50.3601,20.443161,-23.799627,0.10394334,0.33172044,9.721813,0.008111365,-0.0023286885,0.026236122,-0.034106072038412094,-0.010691357776522636,-1.1737139225006104,1013.5219,
2021.01.16 16:04:46,82.0,24.0,52.229927,20.279634,-23.274824,0.03713236,0.33430064,9.779779,0.0014517319,-0.012988508,0.010792028,-0.03416929021477699,-0.0037968321703374386,-1.188166618347168,1013.522,
2021.01.16 16:04:46,82.0,24.0,49.050133,20.141472,-23.423613,0.025695011,0.3390951,9.739325,0.012150907,-0.0105104195,0.010231649,-0.03480292484164238,-0.002638268517330289,-1.1677652597427368,1013.522,
2021.01.16 16:04:46,82.0,24.0,51.156593,19.061764,-23.165499,0.053676333,0.33163252,9.789359,-0.0028422712,-0.015207433,0.012763555,-0.0338633768260479,-0.005483075510710478,-1.2019000053405762,1013.522,
2021.01.16 16:04:46,82.0,24.0,51.841682,19.573673,-23.447208,0.1128246,0.38780513,9.760513,0.0074900053,-0.0068550445,0.01541831,-0.03970850631594658,-0.01155877485871315,-1.196567177772522,1013.522,
2021.01.16 16:04:46,82.0,24.0,50.64907,20.140385,-24.310772,0.046812054,0.3312911,9.772634,0.004846893,-0.005895441,-0.0025617345,-0.03388651832938194,-0.0047900802455842495,-1.179498314857483,1013.522,
2021.01.16 16:04:46,82.0,24.0,50.627678,19.916113,-22.9287,0.05444187,0.324792,9.738579,0.01149158,-0.013462987,0.010896568,-0.033338192850351334,-0.005590271670371294,-1.1842269897460938,1013.522,
2021.01.16 16:04:46,82.0,24.0,51.209633,20.355642,-23.981888,0.106542595,0.35778284,9.750846,-0.0031395305,-0.008050049,0.0016488219,-0.036673855036497116,-0.010926063172519207,-1.180060625076294,1013.52234,
2021.01.16 16:04:46,82.0,24.0,50.359566,19.814787,-23.435663,0.06475588,0.34257945,9.760955,-0.0040452788,0.001668744,-0.0032729462,-0.03508175164461136,-0.0066340770572423935,-1.1833586692810059,1013.5224,
2021.01.16 16:04:46,82.0,24.0,51.32601,19.9189,-23.768305,0.105005614,0.3532765,9.770997,-0.0021845761,-0.0018266231,0.0051162364,-0.03613779693841934,-0.010746249929070473,-1.188398003578186,1013.5224,
2021.01.16 16:04:46,82.0,24.0,49.37301,19.646362,-23.811007,0.12006549,0.357264,9.721664,-0.0077113807,-0.007005751,-0.007752573,-0.03672993555665016,-0.012349673546850681,-1.179579257965088,1013.5224,
2021.01.16 16:04:46,82.0,24.0,51.54119,20.138798,-24.959795,0.06948175,0.33030057,9.798196,-6.138208E-4,0.0014510963,-8.029784E-4,-0.0336967408657074,-0.007091161794960499,-1.1858110427856445,1013.5224,
2021.01.16 16:04:46,82.0,24.0,51.08413,19.333094,-23.89639,0.14340474,0.34660587,9.678741,-0.011324156,0.006003943,-0.019988306,-0.03579182177782059,-0.014815381728112698,-1.1974231004714966,1013.5224,
2021.01.16 16:04:47,82.0,24.0,51.4392,20.58933,-25.585777,0.046003763,0.3256736,9.72277,-0.003200866,0.010518972,-0.02396613,-0.033483073115348816,-0.004731513559818268,-1.1769481897354126,1013.5227,
2021.01.16 16:04:47,82.0,24.0,50.709084,19.080687,-23.94119,0.076770365,0.3450816,9.768471,-0.006922177,-8.0389774E-4,-0.013744025,-0.0353102907538414,-0.00785883329808712,-1.198077917098999,1013.52277,
2021.01.16 16:04:47,82.0,24.0,51.14527,19.709726,-23.278065,0.07822786,0.3588818,9.761584,-0.008145906,0.005973341,-0.016629469,-0.036746978759765625,-0.008013677783310413,-1.1902148723602295,1013.5229,
2021.01.16 16:04:47,82.0,24.0,49.951393,19.638527,-23.04591,0.033087425,0.32468128,9.798169,-0.0023920562,0.0067922412,-0.017183647,-0.03312462568283081,-0.0033768860157579184,-1.1838648319244385,1013.52295,
2021.01.16 16:04:47,82.0,24.0,51.11654,19.170063,-24.048132,0.05438526,0.31857637,9.702257,2.0821515E-4,0.00581088,-0.0074554905,-0.032822974026203156,-0.0056053646840155125,-1.1997567415237427,1013.52295,
2021.01.16 16:04:47,82.0,24.0,52.27413,20.773376,-23.315062,0.08101169,0.33633378,9.824576,-0.012088714,0.009244283,-0.004375821,-0.034219395369291306,-0.008245633915066719,-1.1811505556106567,1013.52295,
2021.01.16 16:04:47,82.0,24.0,51.260887,19.621893,-24.117168,0.071426995,0.29928863,9.723774,-0.00537409,4.5753934E-4,-0.008872488,-0.030768517404794693,-0.0073454724624753,-1.194179654121399,1013.52313,
2021.01.16 16:04:47,82.0,24.0,49.79223,20.726673,-23.93875,0.05641721,0.29361075,9.708976,2.2283071E-4,-0.0040063686,-0.004252511,-0.03023144230246544,-0.005810764618217945,-1.1653419733047485,1013.52344,
2021.01.16 16:04:47,82.0,24.0,51.839638,20.29807,-24.215498,0.057483133,0.3061359,9.787123,-0.0060678734,-0.002738332,0.0030069714,-0.03126872703433037,-0.005873276386409998,-1.186261534690857,1013.52344,
2021.01.16 16:04:47,82.0,24.0,50.376335,19.609528,-24.176481,0.09895568,0.30953562,9.776799,-0.0052601765,0.0014699618,0.0015797261,-0.031648024916648865,-0.010121135041117668,-1.1885682344436646,1013.52344,
2021.01.16 16:04:47,82.0,24.0,52.48751,20.2453,-22.75453,0.078780614,0.3171986,9.781899,0.0012466828,0.0032293769,1.5337765E-4,-0.03241468593478203,-0.00805353932082653,-1.1920790672302246,1013.5236,
2021.01.16 16:04:47,82.0,24.0,51.400795,19.220684,-23.749992,0.07207982,0.31030747,9.749987,0.0046561775,0.0026875949,-0.004479156,-0.03181484341621399,-0.007392677944153547,-1.2016342878341675,1013.5236,
2021.01.16 16:04:47,82.0,24.0,51.234688,21.25,-23.330137,0.08825183,0.31601962,9.745749,0.0045009777,0.0047729127,-0.0038273328,-0.03241372108459473,-0.009055170230567455,-1.1670136451721191,1013.5238,
2021.01.16 16:04:48,82.0,24.0,50.284172,20.481682,-24.632717,0.052219193,0.32577822,9.752816,0.0024015447,0.0029958845,-0.0032076053,-0.03339060768485069,-0.005354217253625393,-1.1713290214538574,1013.524,
2021.01.16 16:04:48,82.0,24.0,50.60383,20.260355,-23.492022,0.021210825,0.34086195,9.782252,0.00508122,-5.968731E-4,5.929712E-4,-0.03483076021075249,-0.0021682933438569307,-1.1767418384552002,1013.524,
2021.01.16 16:04:48,82.0,24.0,51.3619,20.431505,-24.704119,0.067682125,0.36487332,9.80708,-9.007522E-4,-0.0015557964,-0.0054200976,-0.03718705475330353,-0.006901243701577187,-1.1784660816192627,1013.524,
2021.01.16 16:04:48,82.0,24.0,51.136086,19.64048,-23.615326,0.048869874,0.34240302,9.712136,0.005231664,0.010283499,-0.008631609,-0.03524012863636017,-0.005031793378293514,-1.1911389827728271,1013.524,
2021.01.16 16:04:48,82.0,24.0,51.407356,18.804794,-23.113401,0.041894097,0.34327683,9.731475,-0.0048485645,-0.004446045,-0.0076606628,-0.03525995835661888,-0.004304983653128147,-1.2071797847747803,1013.524,
2021.01.16 16:04:48,82.0,24.0,50.387794,20.317764,-24.040504,0.008266847,0.3469607,9.766815,-0.008275,-4.7623517E-4,-0.0048387297,-0.03550949692726135,-8.464217535220087E-4,-1.173412561416626,1013.524,
2021.01.16 16:04:48,82.0,24.0,50.353844,20.432959,-23.871824,0.10189473,0.36679903,9.759864,-0.0053909975,8.114267E-4,0.006158092,-0.037562668323516846,-0.010439800098538399,-1.172444462776184,1013.524,
2021.01.16 16:04:48,82.0,24.0,50.41268,20.168343,-23.262264,0.018167162,0.36133146,9.783192,0.0015760841,1.8425053E-5,0.0060398346,-0.0369170606136322,-0.0018569750245660543,-1.1762335300445557,1013.5244,
2021.01.16 16:04:48,82.0,24.0,51.271187,20.149632,-23.32379,0.0376298,0.3385584,9.737061,-0.0044654286,-0.0017270703,0.0040152557,-0.03475582227110863,-0.003864576341584325,-1.1836497783660889,1013.5245,
2021.01.16 16:04:48,82.0,24.0,51.162407,19.82926,-23.62698,0.10040706,0.35939324,9.809498,-0.008545263,3.0754833E-4,-0.005365698,-0.036618974059820175,-0.01023534033447504,-1.1885950565338135,1013.5248,
2021.01.16 16:04:48,82.0,24.0,51.683556,20.38789,-23.84728,0.05362193,0.32747337,9.766425,0.0049916008,6.375895E-4,-0.012003966,-0.033517464995384216,-0.005490380339324474,-1.1829811334609985,1013.5251,
2021.01.16 16:04:48,82.0,24.0,50.85766,19.427994,-24.158064,0.07735323,0.29618904,9.676091,-0.0037564016,0.004213332,-0.006534666,-0.030599871650338173,-0.007994093932211399,-1.1949273347854614,1013.5251,
2021.01.16 16:04:48,82.0,24.0,50.458076,20.218042,-23.52817,0.09632007,0.34526563,9.838346,-0.018574474,-0.009043887,-0.0066331634,-0.03507779538631439,-0.009789957664906979,-1.1777846813201904,1013.526,
2021.01.16 16:04:48,82.0,24.0,50.74682,20.552343,-25.284561,0.0146669345,0.3048675,9.687009,0.0015862864,2.239435E-5,-0.012326246,-0.03146136924624443,-0.001514081726782024,-1.1730780601501465,1013.5265,
2021.01.16 16:04:49,82.0,24.0,50.84104,20.052734,-23.946392,0.041805666,0.33164278,9.813426,-0.017407311,-4.068649E-4,0.0010766089,-0.033781636506319046,-0.004260022193193436,-1.1824337244033813,1013.52686,
2021.01.16 16:04:49,82.0,24.0,50.55108,19.654676,-24.080025,0.13265759,0.3280424,9.756583,-0.0031429902,0.0029866253,0.0027998565,-0.03360690549015999,-0.013595888391137123,-1.1889351606369019,1013.52704,
2021.01.16 16:04:49,82.0,24.0,50.505196,19.531448,-24.538141,0.00870853,0.2886164,9.780702,0.001894708,0.0071058976,0.008572949,-0.029500190168619156,-8.903786656446755E-4,-1.1897000074386597,1013.52747,
2021.01.16 16:04:49,82.0,24.0,51.473213,19.304794,-24.582226,0.09608058,0.3247409,9.808703,0.009774367,0.006693677,0.0014052149,-0.03309374675154686,-0.009795127436518669,-1.2002270221710205,1013.5275,
2021.01.16 16:04:49,82.0,24.0,51.201393,18.714525,-23.300558,0.058397975,0.29337594,9.773025,0.0019919788,6.483388E-4,-1.1970801E-4,-0.030009403824806213,-0.0059753539972007275,-1.2095749378204346,1013.5277,
2021.01.16 16:04:49,82.0,24.0,51.244545,20.117638,-23.098244,0.090157844,0.31879106,9.773562,-0.002068908,0.0069173514,0.0042894473,-0.032604750245809555,-0.009224403649568558,-1.1859029531478882,1013.52783,
2021.01.16 16:04:49,82.0,24.0,52.07656,20.353563,-22.857485,0.03877567,0.30972406,9.747865,-0.0021303908,-0.007407196,0.0072041964,-0.03176259621977806,-0.003977842163294554,-1.187058925628662,1013.52795,
2021.01.16 16:04:49,82.0,24.0,49.987587,19.749695,-24.290754,0.09062063,0.36083686,9.7940855,0.004397508,-0.005899645,0.00540692,-0.03682409226894379,-0.00925232283771038,-1.1812329292297363,1013.5282,
2021.01.16 16:04:49,82.0,24.0,51.105293,19.74996,-24.099796,0.06541082,0.35688195,9.756754,0.0037353132,0.0031503614,-0.0034763895,-0.036560818552970886,-0.006704057566821575,-1.188628911972046,1013.52826,
2021.01.16 16:04:49,82.0,24.0,50.811516,21.260534,-24.94935,0.0045003346,0.3545088,9.764599,0.006561414,0.0044913706,-0.0012262561,-0.03628957271575928,-4.608826420735568E-4,-1.1597769260406494,1013.5284,
2021.01.16 16:04:49,82.0,24.0,49.36425,20.71089,-24.988039,0.03862462,0.33181342,9.706089,0.0074079866,-0.0045359666,0.0062290663,-0.034172531217336655,-0.0039794002659618855,-1.1599884033203125,1013.5284,
2021.01.16 16:04:49,82.0,24.0,50.165245,20.022848,-23.52861,0.05813359,0.39587715,9.831117,-0.003180028,-0.0075756367,0.009225739,-0.04024532437324524,-0.005913154687732458,-1.1763176918029785,1013.52844,
2021.01.16 16:04:49,82.0,24.0,51.41497,19.497122,-24.601797,0.06380322,0.35634473,9.705643,0.011839183,-5.847743E-4,0.007457149,-0.036697935312986374,-0.0065737320110201836,-1.194576621055603,1013.5287,
2021.01.16 16:04:50,82.0,24.0,51.12034,19.508308,-24.59476,0.04808824,0.35434273,9.776787,0.0030203294,-0.00468733,0.004743211,-0.03622697666287422,-0.00491857435554266,-1.1922950744628906,1013.5289,
2021.01.16 16:04:50,82.0,24.0,51.2427,20.197989,-23.317495,0.09533601,0.35336062,9.746276,-0.0038513122,-0.0027617342,0.005123644,-0.03623836115002632,-0.00978147704154253,-1.1832083463668823,1013.5292,
2021.01.16 16:04:50,82.0,24.0,50.55358,20.203238,-24.68744,0.09688616,0.3479313,9.696613,-0.017372781,0.0110169295,-0.008660846,-0.035864561796188354,-0.00999141950160265,-1.1778249740600586,1013.5292,
2021.01.16 16:04:50,82.0,24.0,50.307976,18.975554,-24.633646,0.04546916,0.30656752,9.704525,-0.0201354,0.018208014,-0.0010426431,-0.03157931566238403,-0.004685322288423777,-1.1977096796035767,1013.5289,
2021.01.16 16:04:50,82.0,24.0,51.413063,19.423676,-23.726309,0.22241628,0.3708801,9.765231,-0.023424348,0.0019940287,-5.348581E-4,-0.037951573729515076,-0.0227724090218544,-1.1987953186035156,1013.5287,
2021.01.16 16:04:50,82.0,24.0,50.142998,18.636595,-23.87157,0.070671976,0.33766064,9.821828,-0.010680337,0.0010342901,-0.033817783,-0.03436417132616043,-0.007195275276899338,-1.202203392982483,1013.5286,
2021.01.16 16:04:50,82.0,24.0,51.053642,20.307365,-23.520794,-0.033144813,0.2938148,9.751641,0.0054549817,0.026165672,-0.031403,-0.030120495706796646,0.0033988826908171177,-1.1798089742660522,1013.5286,
2021.01.16 16:04:50,82.0,24.0,50.79322,20.27019,-23.253052,-0.007328607,0.3161881,9.757123,-6.076205E-4,0.025085175,-0.008300435,-0.03239453211426735,7.511031581088901E-4,-1.178400993347168,1013.5286,
2021.01.16 16:04:50,82.0,24.0,50.07389,20.691586,-24.338562,0.096171595,0.37895775,9.811981,0.01370421,0.013090892,-0.0030177608,-0.038600899279117584,-0.009801131673157215,-1.1653169393539429,1013.5286,
2021.01.16 16:04:50,82.0,24.0,50.95809,19.509792,-23.729519,0.029445851,0.34083167,9.692457,0.023976214,0.006644459,-0.01611112,-0.03514998406171799,-0.003038007766008377,-1.191739559173584,1013.5286,
2021.01.16 16:04:50,82.0,24.0,51.37539,20.358541,-23.814987,-0.084848456,0.34901777,9.706431,0.009818472,0.0050669173,-0.015899822,-0.035940516740083694,0.008741244673728943,-1.1776987314224243,1013.5286,
2021.01.16 16:04:50,82.0,24.0,50.58332,19.146284,-23.992552,0.07659125,0.32098147,9.785328,-0.03826094,-0.071850635,0.009331355,-0.03278955817222595,-0.007826992310583591,-1.197070837020874,1013.5286,
