Time,X-cord,Y-cord,Mag_x,Mag_y,Mag_z,Acc_x,Acc_y,Acc_z,Gyro_x,Gyro_y,Gyro_z,Orn_x,Orn_y,Orn_z,Pressure,
2021.01.16 15:52:47,40.0,24.0,10.584717,6.480317,-23.01383,0.14739154,0.8509086,9.466554,0.039693065,0.13815041,0.055939887,-0.08963406085968018,-0.015568457543849945,-0.9103716015815735,1013.1174,
2021.01.16 15:52:47,40.0,24.0,10.95726,5.553933,-21.494265,-0.16905133,0.54858935,9.713418,-0.09226184,-0.06871937,0.02166627,-0.056409019976854324,0.01740214042365551,-1.0017993450164795,1013.1173,
2021.01.16 15:52:47,40.0,24.0,11.456009,6.482877,-23.523808,-0.009948115,0.6268601,9.768711,-0.09433086,-0.050460223,0.0846755,-0.06408229470252991,0.001018364797346294,-0.9615800976753235,1013.1172,
2021.01.16 15:52:47,40.0,24.0,11.704483,6.228712,-22.894188,0.030792514,0.593772,9.726309,-0.06623095,-0.055428714,0.06448946,-0.060972053557634354,-0.0031658888328820467,-0.9971163868904114,1013.1172,
2021.01.16 15:52:47,40.0,24.0,10.464386,7.1996307,-22.743692,0.018859686,0.48883638,9.821383,-0.05108148,-0.061824292,0.06052949,-0.049731530249118805,-0.0019202653784304857,-0.9010710716247559,1013.1172,
2021.01.16 15:52:47,40.0,24.0,11.08696,6.934474,-22.587149,0.29491132,0.5520816,9.760442,-0.027791612,-0.04528257,0.066396326,-0.05647725239396095,-0.03020576760172844,-0.963267982006073,1013.1172,
2021.01.16 15:52:47,40.0,24.0,10.402252,7.0040274,-22.769531,0.112908274,0.49812678,9.804639,-0.010862145,-0.0383101,0.011844036,-0.05075820907950401,-0.011515292339026928,-0.9185736179351807,1013.1172,
2021.01.16 15:52:47,40.0,24.0,10.481483,6.7089434,-21.651968,0.16643967,0.50778013,9.724959,0.0122998785,-0.0315967,0.0098531945,-0.05215911567211151,-0.01711301878094673,-0.9463603496551514,1013.1172,
2021.01.16 15:52:48,40.0,24.0,10.059372,5.941395,-22.58495,0.1373731,0.52996767,9.663921,-0.0056395577,-0.0059180083,-0.01455524,-0.05477941408753395,-0.014214090071618557,-0.9668566584587097,1013.1172,
2021.01.16 15:52:48,40.0,24.0,10.570221,6.049775,-22.60317,0.29194313,0.61146384,9.820941,0.011127271,0.003578307,-0.04537913,-0.06215357780456543,-0.02971784397959709,-0.9870889782905579,1013.1172,
2021.01.16 15:52:48,40.0,24.0,10.643875,7.2047815,-21.129778,0.105003476,0.5282464,9.739628,0.004662676,0.017253138,-0.038736522,-0.054180584847927094,-0.010780638083815575,-0.916845440864563,1013.1172,
2021.01.16 15:52:48,40.0,24.0,10.787254,6.4799805,-22.312767,0.12167758,0.6104613,9.857949,0.011576344,0.0042371987,-0.03091548,-0.061842117458581924,-0.012342465110123158,-0.9543312191963196,1013.1174,
2021.01.16 15:52:48,40.0,24.0,10.457848,6.160183,-21.347046,0.14411202,0.5612708,9.705962,0.03510831,-0.0023562452,-0.022640124,-0.05775673687458038,-0.014846691861748695,-0.9706423282623291,1013.11816,
2021.01.16 15:52:48,40.0,24.0,10.098358,6.0360823,-22.701317,0.15520574,0.5968525,9.728585,0.026335053,-7.4139086E-4,-0.015914712,-0.06126580759882927,-0.015952223911881447,-0.9547498822212219,1013.11816,
2021.01.16 15:52:48,40.0,24.0,10.074867,6.0992537,-21.728704,0.19260003,0.58793634,9.717968,0.01893735,-0.006490306,-0.021056257,-0.06041443720459938,-0.019816366955637932,-0.9578163027763367,1013.11816,
2021.01.16 15:52:48,40.0,24.0,10.763916,6.6691046,-22.80367,0.14756562,0.619422,9.713408,0.010413261,0.0014914104,-0.028356787,-0.06367623060941696,-0.015190781094133854,-0.9410134553909302,1013.11816,
2021.01.16 15:52:48,40.0,24.0,10.2669525,7.399582,-22.575155,0.041144375,0.55747205,9.678277,0.01076616,-0.0024526822,-0.02869064,-0.05753624439239502,-0.0042511834762990475,-0.8733705282211304,1013.11816,
2021.01.16 15:52:48,40.0,24.0,10.997246,7.0829344,-22.608742,0.11293479,0.5802698,9.79079,-0.0033010961,-0.0068635973,-0.0072169714,-0.05919373407959938,-0.011534287594258785,-0.9297165274620056,1013.11816,
2021.01.16 15:52:48,40.0,24.0,11.171814,5.9840775,-22.100544,0.23648451,0.65604514,9.703856,0.0022227315,0.0044718706,0.0019235634,-0.06748393923044205,-0.024365335702896118,-1.0045478343963623,1013.11816,
2021.01.16 15:52:48,40.0,24.0,12.002937,6.1524963,-21.656408,0.16877133,0.5789351,9.781281,-0.00689725,-0.007847005,-0.0143455025,-0.05911031365394592,-0.017252808436751366,-1.0313376188278198,1013.11816,
2021.01.16 15:52:48,40.0,24.0,10.920013,6.45294,-23.040527,0.15870348,0.6136599,9.772113,-0.001947538,0.001838607,-0.012596182,-0.06270646303892136,-0.016239017248153687,-0.9619805812835693,1013.11816,
2021.01.16 15:52:48,40.0,24.0,10.300003,5.557932,-22.180363,0.19062734,0.5771425,9.670581,0.0042727385,-0.0054360856,-0.0071200533,-0.05959797650575638,-0.01970953494310379,-1.0023856163024902,1013.11816,
2021.01.16 15:52:48,40.0,24.0,10.399139,6.2391872,-22.429132,0.13979073,0.5721143,9.703788,-0.011577862,0.0038802181,-0.013668841,-0.05888356640934944,-0.01440479326993227,-0.9579095244407654,1013.11816,
2021.01.16 15:52:49,40.0,24.0,10.953606,6.5189257,-22.821749,0.25585523,0.5616643,9.782315,-0.023376007,0.0043827533,-0.0075935666,-0.05733375623822212,-0.02614891342818737,-0.9767391085624695,1013.1182,
2021.01.16 15:52:49,40.0,24.0,12.092903,6.8938007,-22.410015,0.17220353,0.5504082,9.757912,-0.014057462,-0.003815379,-0.011182135,-0.05633788928389549,-0.01764574833214283,-0.9935023188591003,1013.1187,
2021.01.16 15:52:49,40.0,24.0,11.450554,6.8151226,-23.709745,0.12549417,0.44218692,9.657369,-0.011232357,-0.0065768976,-0.011223479,-0.045751698315143585,-0.012993922457098961,-0.9800292253494263,1013.1187,
2021.01.16 15:52:49,40.0,24.0,10.455231,5.4606724,-22.828693,0.18169515,0.52006966,9.833633,-0.02560068,0.01037667,-0.0022234072,-0.052828598767519,-0.01847480610013008,-1.0221027135849,1013.1187,
2021.01.16 15:52:49,40.0,24.0,11.440781,6.1636124,-23.659767,0.29962066,0.52115834,9.736199,-0.005462651,0.00373206,0.0056689084,-0.05345160886645317,-0.030764173716306686,-1.0242583751678467,1013.1182,
2021.01.16 15:52:49,40.0,24.0,11.300018,5.667405,-22.035173,0.10509276,0.47205064,9.817615,-0.0056906436,0.0050286357,-0.022479724,-0.048042260110378265,-0.010704101994633675,-1.043736457824707,1013.1182,
2021.01.16 15:52:49,40.0,24.0,10.545357,6.573327,-23.204124,0.1319324,0.49155083,9.725566,0.005965677,-0.0040570907,0.007232666,-0.05049452185630798,-0.013564690947532654,-0.9522391557693481,1013.1182,
2021.01.16 15:52:49,40.0,24.0,12.311958,6.271284,-22.274696,0.18076098,0.436445,9.714203,-3.5173306E-4,0.0028306223,0.012020883,-0.044890593737363815,-0.018605759367346764,-1.0526515245437622,1013.1187,
2021.01.16 15:52:49,40.0,24.0,11.394463,5.827195,-24.069044,0.23024683,0.48510054,9.734649,-0.012586822,0.008551098,0.0011083637,-0.04977727681398392,-0.023647891357541084,-1.0410435199737549,1013.1187,
2021.01.16 15:52:49,40.0,24.0,10.694496,6.9366846,-22.760899,0.034657244,0.42955926,9.852004,-4.9432786E-4,-0.005711142,-0.008813862,-0.04357333853840828,-0.003517771838232875,-0.9369251132011414,1013.1192,
2021.01.16 15:52:49,40.0,24.0,10.803505,6.0327063,-22.342585,0.19537531,0.4802399,9.794732,0.027238667,-0.011280536,0.042741776,-0.04898146912455559,-0.019944334402680397,-1.0071425437927246,1013.1198,
2021.01.16 15:52:49,40.0,24.0,12.622963,7.356989,-21.895317,0.37416553,0.52826303,9.906377,0.02194016,-0.003683228,0.0073022377,-0.05323720723390579,-0.03775222226977348,-1.0076489448547363,1013.12024,
2021.01.16 15:52:49,40.0,24.0,10.966995,6.404069,-22.684067,0.2724824,0.62240505,9.597112,0.04758673,0.0071595064,-0.02188193,-0.06473666429519653,-0.0283844992518425,-0.976863443851471,1013.1208,
2021.01.16 15:52:49,40.0,24.0,10.717522,5.994175,-23.006708,0.08916838,0.5333728,9.692505,0.021457545,-0.013530728,-0.053433504,-0.054971642792224884,-0.009199465624988079,-0.9854640960693359,1013.1223,
2021.01.16 15:52:50,40.0,24.0,10.327293,5.838376,-23.148287,-0.079109244,0.45192263,9.689397,-0.0133801615,-0.010815713,0.056305483,-0.04660561680793762,0.00816433597356081,-0.9722338914871216,1013.12244,
2021.01.16 15:52:50,40.0,24.0,10.918396,6.5776873,-22.493921,0.34337148,0.6356783,9.729295,-0.004994833,-0.010551164,-0.005015183,-0.06520330905914307,-0.03527789190411568,-0.9710559248924255,1013.12384,
2021.01.16 15:52:50,40.0,24.0,11.005119,5.834343,-22.484406,0.14593345,0.47234508,9.775769,-0.008593944,1.0946253E-4,-0.046464242,-0.04827502369880676,-0.014926969073712826,-1.0238656997680664,1013.12384,
2021.01.16 15:52:50,40.0,24.0,10.951584,5.3315477,-22.887167,0.084245026,0.44434914,9.850522,-0.0017740396,-0.0067296983,-0.020859867,-0.045076992362737656,-0.008552133105695248,-1.052763819694519,1013.12427,
2021.01.16 15:52:50,40.0,24.0,11.029564,7.1835785,-23.128563,0.24482495,0.5977672,9.643314,0.011325161,0.035688404,-0.0025590379,-0.06188862398266792,-0.025382596999406815,-0.9343435764312744,1013.12427,
2021.01.16 15:52:50,40.0,24.0,10.957535,8.482794,-22.416418,0.1572784,0.556226,9.8950205,-7.6493155E-4,0.0010703705,-0.030313369,-0.05614655092358589,-0.01589336432516575,-0.8610963821411133,1013.12427,
2021.01.16 15:52:50,40.0,24.0,10.778358,6.8297195,-21.402205,0.1159929,0.49312103,9.629024,0.02062766,0.0090139415,-0.009666244,-0.05116353929042816,-0.012045592069625854,-0.9489771723747253,1013.12427,
2021.01.16 15:52:50,40.0,24.0,12.546104,5.808384,-23.688074,0.045396645,0.5207179,9.748721,-0.002710673,0.003886343,0.0024144282,-0.05336267873644829,-0.004656643141061068,-1.061937689781189,1013.12427,
2021.01.16 15:52:50,40.0,24.0,11.152107,6.177644,-23.114408,0.21298623,0.59993845,9.756984,0.0033788413,0.008587885,0.005368296,-0.06139620020985603,-0.02182563953101635,-0.9947863817214966,1013.12427,
2021.01.16 15:52:50,40.0,24.0,11.361511,6.7153645,-22.505323,0.19039382,0.55590254,9.780715,0.012069298,0.009084679,0.007810043,-0.05676478520035744,-0.019463790580630302,-0.9767345190048218,1013.12463,
2021.01.16 15:52:50,40.0,24.0,10.450508,6.40014,-23.376684,0.18366921,0.5658795,9.774613,0.0027858801,-0.0015887913,0.017448138,-0.05781804397702217,-0.01878822036087513,-0.953492283821106,1013.1251,
2021.01.16 15:52:50,40.0,24.0,11.089661,6.0978622,-22.37713,0.1554613,0.5908793,9.751787,0.011931484,0.0023613744,0.012815793,-0.06051024794578552,-0.015940476208925247,-0.9950447678565979,1013.1258,
2021.01.16 15:52:50,40.0,24.0,10.880783,6.731988,-23.033998,0.1333375,0.5513401,9.748665,0.012131832,-0.008143836,0.010039119,-0.056489989161491394,-0.013676661066710949,-0.9495450258255005,1013.1258,
2021.01.16 15:52:50,40.0,24.0,9.932968,5.30101,-22.479141,0.13736235,0.5789967,9.739192,0.01025847,7.952852E-4,0.008968459,-0.05937439948320389,-0.014103144407272339,-0.9974948167800903,1013.1258,
2021.01.16 15:52:51,40.0,24.0,10.798866,6.2605286,-22.26462,0.1875305,0.58259124,9.715667,0.004748157,-0.0019950243,-0.0049999333,-0.059881262481212616,-0.019299469888210297,-0.9775901436805725,1013.1258,
2021.01.16 15:52:51,40.0,24.0,11.266502,5.818554,-22.440203,0.15606683,0.5708671,9.670399,-0.0022849157,-0.0030241497,-0.0056115794,-0.058956339955329895,-0.01613721437752247,-1.0213512182235718,1013.1258,
2021.01.16 15:52:51,40.0,24.0,11.080864,5.966693,-22.685572,0.20907266,0.64006525,9.700341,0.013343761,0.015431122,0.007121345,-0.06587302684783936,-0.021549789234995842,-0.9997667670249939,1013.1258,
2021.01.16 15:52:51,40.0,24.0,10.816292,7.130229,-22.767118,0.105437696,0.6171002,9.822959,8.240328E-4,-0.0021532448,-0.00971864,-0.06273616850376129,-0.010733390226960182,-0.9134832620620728,1013.1258,
2021.01.16 15:52:51,40.0,24.0,12.02182,6.9124966,-22.257153,0.06921562,0.6121951,9.621757,0.020329624,0.007979073,0.001637592,-0.06353882700204849,-0.007193532772362232,-0.9723429679870605,1013.1258,
2021.01.16 15:52:51,40.0,24.0,10.487068,6.89552,-22.580952,0.06282074,0.5928261,9.796149,-0.007505064,-4.8633665E-6,0.010118619,-0.060441289097070694,-0.006412711460143328,-0.911292552947998,1013.1258,
2021.01.16 15:52:51,40.0,24.0,10.281204,6.1173754,-22.738821,0.11896231,0.6212273,9.702755,0.007329016,0.008577371,0.02290281,-0.06393380463123322,-0.01226005982607603,-0.9500945210456848,1013.1258,
2021.01.16 15:52:51,40.0,24.0,10.795891,5.779417,-22.427673,0.11548712,0.6060143,9.7740135,-0.0076597203,-0.0065704184,0.02533985,-0.06191902607679367,-0.011815181002020836,-0.9970259070396423,1013.1258,
2021.01.16 15:52:51,40.0,24.0,10.581825,6.2966976,-22.546778,0.12439679,0.6062139,9.719787,0.0027565171,0.0060133627,0.023909885,-0.06228328123688698,-0.01279760617762804,-0.9557196497917175,1013.12616,
2021.01.16 15:52:51,40.0,24.0,10.853531,5.830632,-23.359915,0.15070434,0.6131285,9.7748785,-0.006787857,8.1729726E-4,0.019550744,-0.06263542920351028,-0.015416293404996395,-0.9955049157142639,1013.12616,
2021.01.16 15:52:51,40.0,24.0,10.154663,6.8907022,-22.570051,0.15884316,0.5786186,9.718019,0.0025354822,0.007331454,0.014197298,-0.059462666511535645,-0.016343766823410988,-0.9082238674163818,1013.1269,
2021.01.16 15:52:51,40.0,24.0,11.308128,6.4991026,-23.025887,0.14065075,0.59053,9.781962,-0.009245028,-0.0075498833,0.007833272,-0.060289882123470306,-0.014377591200172901,-0.9765102863311768,1013.1274,
2021.01.16 15:52:51,40.0,24.0,11.84948,5.273036,-22.679348,0.15954967,0.5894094,9.757792,0.004973312,0.0043876036,0.009843467,-0.06032262742519379,-0.016349542886018753,-1.0743494033813477,1013.1274,
2021.01.16 15:52:51,40.0,24.0,10.488037,6.454692,-22.471111,0.19165331,0.5832445,9.706902,0.0018144434,0.002247693,8.532489E-4,-0.06000173091888428,-0.01974146068096161,-0.9523026347160339,1013.1275,
2021.01.16 15:52:52,40.0,24.0,11.220055,6.0091896,-22.253899,0.13546318,0.5806127,9.793529,-0.0026804619,-0.0067852703,-8.470956E-4,-0.05921038240194321,-0.01383102498948574,-1.0058581829071045,1013.12787,
2021.01.16 15:52:52,40.0,24.0,11.375488,5.7871475,-22.459173,0.17881982,0.5715487,9.738732,0.007156817,-0.0037068008,-0.0028502685,-0.05861109867691994,-0.018359651789069176,-1.0298265218734741,1013.12787,
2021.01.16 15:52:52,40.0,24.0,11.244354,6.128992,-22.411259,0.11575017,0.5706064,9.717624,0.007242657,0.0043754256,-0.007382837,-0.05864722281694412,-0.011910801753401756,-0.9979531764984131,1013.12787,
2021.01.16 15:52:52,40.0,24.0,10.887863,5.5890207,-22.475243,0.17675795,0.5925782,9.764461,0.0015006638,-3.1818333E-4,-0.0023924292,-0.06060300022363663,-0.0181001964956522,-1.0205310583114624,1013.12787,
2021.01.16 15:52:52,40.0,24.0,10.314568,6.083105,-23.011269,0.09354678,0.58685917,9.749334,0.0047739213,-0.003860359,-0.010225806,-0.06011948361992836,-0.009594902396202087,-0.955353856086731,1013.12787,
2021.01.16 15:52:52,40.0,24.0,11.93531,7.2421303,-22.385248,0.124659576,0.57427216,9.703298,0.007883936,0.01089462,0.0018906919,-0.05910937115550041,-0.012846427969634533,-0.9607625603675842,1013.1278,
2021.01.16 15:52:52,40.0,24.0,11.751564,6.99704,-23.152721,0.16822384,0.5959582,9.757008,-0.0023661912,0.0043077446,-0.0037756083,-0.060995183885097504,-0.017239626497030258,-0.9668118357658386,1013.1275,
2021.01.16 15:52:52,40.0,24.0,10.454803,7.058877,-23.196383,0.09779348,0.6014983,9.776116,0.0030955896,-0.003071602,-0.0036541992,-0.06144680082798004,-0.01000297162681818,-0.9009552597999573,1013.1274,
2021.01.16 15:52:52,40.0,24.0,10.26548,5.501376,-22.610773,0.14756428,0.5924258,9.729392,0.005128774,0.0077598444,0.0033007953,-0.06080826371908188,-0.015165692195296288,-0.9970109462738037,1013.1274,
2021.01.16 15:52:52,40.0,24.0,10.851624,6.4407883,-22.341629,0.109317206,0.6106054,9.795421,0.0030300424,-0.0031362902,-8.2636694E-4,-0.06225138530135155,-0.011159568093717098,-0.9576315879821777,1013.1274,
2021.01.16 15:52:52,40.0,24.0,10.854652,6.4367733,-22.024328,0.106056124,0.59060925,9.70556,0.012067076,0.0044338186,2.6826048E-4,-0.06077410653233528,-0.010926922783255577,-0.9607342481613159,1013.1274,
2021.01.16 15:52:52,40.0,24.0,10.143311,5.719557,-22.211323,0.10446472,0.5876948,9.743229,0.0018538383,0.004033891,0.0022708322,-0.060241829603910446,-0.010721364989876747,-0.9748844504356384,1013.1274,
2021.01.16 15:52:52,40.0,24.0,11.563446,5.8066187,-22.690788,0.10639637,0.60500836,9.733146,0.002598209,0.004421854,0.0071918583,-0.06207601726055145,-0.010930909775197506,-1.0236376523971558,1013.1274,
2021.01.16 15:52:52,40.0,24.0,10.857826,5.644594,-22.847343,0.13174748,0.59395194,9.745122,0.002273626,0.006231308,0.0050876,-0.060867790132761,-0.013518502935767174,-1.0098599195480347,1013.1274,
2021.01.16 15:52:52,40.0,24.0,10.44133,5.440407,-23.703442,0.13337938,0.6051536,9.732597,1.545935E-4,-1.7746468E-4,1.8913485E-4,-0.06209225952625275,-0.013703539036214352,-1.001347541809082,1013.1274,
2021.01.16 15:52:53,40.0,24.0,11.155266,5.2286263,-22.030407,0.087586604,0.5978399,9.766855,-0.004141814,0.007081669,-0.0019199366,-0.061132363975048065,-0.008967498317360878,-1.0469114780426025,1013.1274,
2021.01.16 15:52:53,40.0,24.0,10.320213,6.022936,-22.98685,0.111497365,0.6152596,9.72845,0.0014942186,0.0063730604,0.0011120564,-0.06315507739782333,-0.011460456997156143,-0.9571552872657776,1013.1278,
2021.01.16 15:52:53,40.0,24.0,11.602051,5.5645103,-22.366198,0.13373582,0.6435477,9.7831745,0.0048155147,0.0045951274,-0.010642957,-0.06568031758069992,-0.013669130392372608,-1.0386980772018433,1013.12787,
2021.01.16 15:52:53,40.0,24.0,11.64521,6.109729,-22.94302,0.10016403,0.6250223,9.7790365,0.0021427004,-0.003762715,-0.0017867433,-0.06382434815168381,-0.010242372751235962,-1.0044748783111572,1013.128,
2021.01.16 15:52:53,40.0,24.0,10.544975,5.9324017,-24.440132,0.07909509,0.60873985,9.711933,0.007687157,0.0010202855,-0.0072032856,-0.06259561330080032,-0.008143934421241283,-0.9648562073707581,1013.1281,
2021.01.16 15:52:53,40.0,24.0,11.09816,6.6922855,-22.062607,0.07133866,0.62028456,9.750604,5.869265E-4,-0.002861557,0.0014639548,-0.06352768838405609,-0.007316202390938997,-0.94867342710495,1013.1283,
2021.01.16 15:52:53,40.0,24.0,11.460434,5.440093,-22.41937,0.045594797,0.5839841,9.718511,-0.0012730793,-0.0024641436,0.001975068,-0.06001704931259155,-0.004691507201641798,-1.0410938262939453,1013.12866,
2021.01.16 15:52:53,40.0,24.0,11.052399,7.0537825,-22.085999,0.12218821,0.6335981,9.762129,-0.0073496224,-0.004191993,0.017730385,-0.0648077204823494,-0.012515900656580925,-0.9293162822723389,1013.1287,
2021.01.16 15:52:53,40.0,24.0,10.218292,4.559862,-22.707333,0.12859687,0.60650545,9.715323,-0.0012044539,0.0011096438,0.0077373832,-0.062341365963220596,-0.01323572639375925,-1.0554646253585815,1013.1287,
2021.01.16 15:52:53,40.0,24.0,10.363235,6.1887913,-22.988432,0.08456645,0.58766925,9.765388,-0.009910432,-0.0017188397,0.0018113195,-0.06010405719280243,-0.008659599348902702,-0.9499943852424622,1013.12885,
2021.01.16 15:52:53,40.0,24.0,11.432098,6.576227,-22.99949,0.10805893,0.5776661,9.753076,-0.0035420842,-0.0024686148,0.006033699,-0.0591563880443573,-0.01107901893556118,-0.9753590822219849,1013.1289,
2021.01.16 15:52:53,40.0,24.0,10.3953705,6.8076506,-22.725302,0.0911059,0.5618256,9.733422,0.003173217,-0.0037077912,-0.0049435585,-0.05765477940440178,-0.00935983657836914,-0.9186363220214844,1013.1289,
2021.01.16 15:52:53,40.0,24.0,10.292145,6.465478,-23.330162,0.08396745,0.533216,9.71057,-9.10013E-4,-0.004992696,0.0038862778,-0.05485374853014946,-0.008646799251437187,-0.9359001517295837,1013.129,
2021.01.16 15:52:54,40.0,24.0,10.025185,6.397605,-21.824009,0.1812792,0.5847207,9.764577,-0.008856864,-0.0037287152,0.008865333,-0.05980012193322182,-0.01856284961104393,-0.9360846877098083,1013.1291,
2021.01.16 15:52:54,40.0,24.0,10.8767395,6.4393005,-22.14328,0.111073256,0.5521048,9.706506,-0.0047785835,-0.0020506107,0.0027774326,-0.05681493878364563,-0.011442676186561584,-0.9668213725090027,1013.1293,
2021.01.16 15:52:54,40.0,24.0,10.006859,7.244913,-23.5073,0.12554549,0.53950006,9.823761,-0.009521464,-0.007471016,0.01051722,-0.054858289659023285,-0.012779082171618938,-0.880245566368103,1013.12946,
2021.01.16 15:52:54,40.0,24.0,10.416161,6.189908,-23.302668,0.1715774,0.59333616,9.692749,-2.173488E-4,-0.0013512092,-0.0011570759,-0.06112859398126602,-0.017699776217341423,-0.959354043006897,1013.12964,
2021.01.16 15:52:54,40.0,24.0,10.50679,5.8154154,-24.15036,0.11735139,0.52647126,9.816726,0.009084987,0.012419512,0.008810729,-0.05357487499713898,-0.011953659355640411,-0.9894280433654785,1013.1298,
2021.01.16 15:52:54,40.0,24.0,11.014221,7.425644,-22.393444,0.15744716,0.565262,9.855247,-0.011236281,-0.0048497883,-0.009987533,-0.05728638917207718,-0.0159746166318655,-0.9184907674789429,1013.13007,
2021.01.16 15:52:54,40.0,24.0,11.186424,6.188196,-21.564169,0.15819578,0.57417446,9.706653,0.006638221,0.0047360114,-0.014947459,-0.05907599627971649,-0.016296222805976868,-0.9980227947235107,1013.1303,
2021.01.16 15:52:54,40.0,24.0,10.361061,6.0950794,-22.79151,0.056361493,0.5423355,9.760884,-0.0012112134,-2.2051658E-4,-0.020354055,-0.05550413206219673,-0.00577415619045496,-0.959943413734436,1013.1303,
2021.01.16 15:52:54,40.0,24.0,10.364296,5.8872595,-22.581772,0.1671257,0.57550305,9.750739,8.499925E-4,-0.005931941,-0.005073792,-0.0589444525539875,-0.017138119786977768,-0.9808534979820251,1013.1303,
2021.01.16 15:52:54,40.0,24.0,10.358009,5.8184795,-22.909645,0.12658794,0.5622508,9.777989,3.2026786E-4,-5.6956284E-4,-0.024637707,-0.05743362754583359,-0.012945489957928658,-0.9819061160087585,1013.1304,
2021.01.16 15:52:54,40.0,24.0,11.652313,7.532172,-23.04136,-0.051475722,0.56409544,9.785979,0.0034436868,0.008174794,-0.019397171,-0.05757872015237808,0.005260101519525051,-0.9162352681159973,1013.13074,
2021.01.16 15:52:54,40.0,24.0,10.722717,6.5918903,-21.808369,0.15507086,0.5521594,9.703229,0.014681227,0.013414798,0.013312646,-0.056836165487766266,-0.015980005264282227,-0.9563629627227783,1013.13116,
2021.01.16 15:52:54,40.0,24.0,11.1911545,5.788681,-23.18822,0.2084325,0.58949184,9.685152,-0.008617012,0.0017554576,-0.024665587,-0.0607764907181263,-0.02151750773191452,-1.0204344987869263,1013.13153,
2021.01.16 15:52:55,40.0,24.0,11.278076,6.34661,-22.049763,0.1777184,0.5790915,9.662295,0.0081974175,0.008381689,0.012153161,-0.05985140800476074,-0.01839090697467327,-0.9915103912353516,1013.1327,
2021.01.16 15:52:55,40.0,24.0,11.003212,6.9086237,-23.03533,0.046946924,0.53871566,9.829007,-0.011573992,3.6247776E-4,-0.014299631,-0.05475335195660591,-0.004776328336447477,-0.9376732707023621,1013.13275,
2021.01.16 15:52:55,40.0,24.0,11.131035,6.7732115,-22.979004,0.13636522,0.55040586,9.64696,4.436774E-5,0.008247221,0.009150435,-0.05698737874627113,-0.014134622178971767,-0.9575185179710388,1013.13275,
2021.01.16 15:52:55,40.0,24.0,11.013519,6.99802,-21.889725,0.058916643,0.5364284,9.80224,-0.014701233,-7.6915836E-5,-0.004342676,-0.05466955900192261,-0.006010456010699272,-0.9376325011253357,1013.13354,
2021.01.16 15:52:55,40.0,24.0,11.212509,6.424798,-22.286674,0.13750239,0.5401101,9.75843,-0.0037332103,-0.004823286,0.011926164,-0.055286165326833725,-0.014089693315327168,-0.9855589270591736,1013.13354,
2021.01.16 15:52:55,40.0,24.0,11.261505,6.1503572,-22.592957,0.10044202,0.51805466,9.746559,-0.0050452054,-0.003976398,-0.0018560435,-0.053099777549505234,-0.010305018164217472,-1.002805233001709,1013.1342,
2021.01.16 15:52:55,40.0,24.0,10.393219,6.2211313,-23.182043,0.16276477,0.537282,9.763791,-0.0023968318,0.006381164,-0.0012080199,-0.05496494472026825,-0.01666869781911373,-0.9643872976303101,1013.13446,
2021.01.16 15:52:55,40.0,24.0,11.204231,6.7037697,-22.786413,0.094828755,0.53049403,9.757777,-0.0015954273,0.009612534,-0.01645557,-0.05431025102734566,-0.009717968292534351,-0.9643567204475403,1013.13464,
2021.01.16 15:52:55,40.0,24.0,11.556786,6.5107718,-22.536203,0.052646045,0.5203598,9.725159,0.002388797,0.010722281,-0.0140742175,-0.05345480889081955,-0.005413333885371685,-0.9877619743347168,1013.13477,
2021.01.16 15:52:55,40.0,24.0,11.918655,6.394676,-22.969624,0.07353819,0.52762073,9.807778,-0.0064580124,0.00682928,-0.006600505,-0.05374284088611603,-0.007497805170714855,-1.008762001991272,1013.13477,
2021.01.16 15:52:55,40.0,24.0,11.584091,6.3496065,-22.436201,0.108709455,0.54119176,9.706558,0.011352464,0.0050414437,0.0018295404,-0.05569411814212799,-0.011199119500815868,-1.0010504722595215,1013.1348,
2021.01.16 15:52:55,40.0,24.0,11.015564,5.9190702,-22.62513,0.06889623,0.52018553,9.793453,3.5605067E-4,0.004967013,-0.0071178107,-0.053064461797475815,-0.007034810725599527,-1.0043467283248901,1013.1348,
2021.01.16 15:52:55,40.0,24.0,11.837875,6.551854,-21.75354,0.06382164,0.5419612,9.724473,0.010245327,0.008130925,-0.0010198159,-0.055672887712717056,-0.006562898401170969,-0.9967387914657593,1013.13495,
2021.01.16 15:52:55,40.0,24.0,11.083893,5.5047245,-22.696415,0.0601467,0.52152157,9.772201,0.0041457387,-9.897798E-4,-0.0039821407,-0.05331628397107124,-0.006154799833893776,-1.0324276685714722,1013.135,
2021.01.16 15:52:55,40.0,24.0,11.782043,5.938471,-22.117308,0.07881037,0.56505775,9.728385,0.007187643,0.0030564005,-0.001013753,-0.058016322553157806,-0.008100897073745728,-1.0286048650741577,1013.1351,
2021.01.16 15:52:56,40.0,24.0,11.7656555,5.843233,-23.833792,0.059327614,0.5347974,9.7237,0.0028200466,0.004279384,-0.007487281,-0.05494299530982971,-0.006101266015321016,-1.0308226346969604,1013.13513,
2021.01.16 15:52:56,40.0,24.0,11.794296,5.452464,-22.864153,0.012620233,0.5319981,9.73503,-0.0041978806,0.0026232665,-0.007975239,-0.054593462496995926,-0.0012963726185262203,-1.055830478668213,1013.13513,
2021.01.16 15:52:56,40.0,24.0,11.231789,6.594577,-22.878115,0.0775576,0.555591,9.784824,-0.0087267505,0.0024528243,0.002352912,-0.05671820417046547,-0.007926149293780327,-0.9667548537254333,1013.1353,
2021.01.16 15:52:56,40.0,24.0,11.173988,7.024213,-23.35437,0.09618374,0.5593807,9.746947,-0.0031476282,-2.9617158E-4,-0.005717031,-0.05732468143105507,-0.009867768734693527,-0.9391041994094849,1013.1354,
2021.01.16 15:52:56,40.0,24.0,12.869728,5.514904,-22.62653,-0.046582248,0.5102324,9.774034,-0.004191217,0.0033349763,-0.0130534265,-0.052154913544654846,0.00476588262245059,-1.0879501104354858,1013.1355,
2021.01.16 15:52:56,40.0,24.0,10.337997,5.9837847,-22.303562,0.10569539,0.5319591,9.7548685,0.0022895,-9.915852E-4,-0.012254078,-0.05447552725672722,-0.010834719054400921,-0.9743058085441589,1013.1357,
2021.01.16 15:52:56,40.0,24.0,10.401688,6.5498857,-23.253527,0.03168351,0.50754076,9.756291,0.0046575177,-0.005968817,-0.0099448245,-0.05197477340698242,-0.003247483866289258,-0.9340811371803284,1013.13574,
2021.01.16 15:52:56,40.0,24.0,10.833115,6.765792,-22.025942,-0.00618057,0.5139846,9.749202,-0.0031067189,0.011287922,-0.008881682,-0.05267191678285599,6.339564570225775E-4,-0.9391098022460938,1013.13586,
2021.01.16 15:52:56,40.0,24.0,11.261177,6.597623,-22.034369,0.05302767,0.5321338,9.743725,0.003053198,0.00895381,1.7349003E-4,-0.05455797165632248,-0.005442184396088123,-0.9708027839660645,1013.136,
2021.01.16 15:52:56,40.0,24.0,11.5299225,6.9517975,-22.758326,-0.012588176,0.5142711,9.796624,0.001016987,-0.002409095,-0.007868465,-0.05244653671979904,0.001284949597902596,-0.9550927877426147,1013.13605,
2021.01.16 15:52:56,40.0,24.0,11.137978,7.851918,-23.387867,-0.006156618,0.52011776,9.688502,0.010683519,7.013689E-4,0.0010782033,-0.053632523864507675,6.354560027830303E-4,-0.8853886127471924,1013.1363,
2021.01.16 15:52:56,40.0,24.0,10.985718,7.0353365,-22.25615,-0.020240434,0.5265885,9.79142,0.0012877437,-0.004286345,0.0069569256,-0.053728729486465454,0.0020671573001891375,-0.9263098835945129,1013.13635,
2021.01.16 15:52:56,40.0,24.0,11.331879,7.326133,-22.456827,0.07671257,0.539681,9.730588,0.007786168,-0.003603212,0.018432654,-0.05540383607149124,-0.007883488200604916,-0.9316446781158447,1013.13635,
2021.01.16 15:52:57,40.0,24.0,11.170876,5.55766,-22.673304,0.023731358,0.53513294,9.775468,0.006460835,-0.00478699,0.008263006,-0.05468769371509552,-0.002427639439702034,-1.0269994735717773,1013.1364,
2021.01.16 15:52:57,40.0,24.0,10.572708,6.091075,-23.351168,0.08679336,0.5522254,9.712879,0.010950275,-0.004453121,0.008945216,-0.05679156631231308,-0.008935666643083096,-0.9691782593727112,1013.1366,
2021.01.16 15:52:57,40.0,24.0,11.666962,7.8631916,-23.04514,0.01623634,0.52332264,9.734215,-0.0015195175,-0.0051337904,-0.0013884767,-0.053709376603364944,-0.001667964505031705,-0.9106179475784302,1013.1367,
2021.01.16 15:52:57,40.0,24.0,11.505203,6.1466312,-23.0681,0.06571511,0.5616749,9.777307,5.823467E-5,-0.006345763,0.002950794,-0.057382430881261826,-0.006721086800098419,-1.0019311904907227,1013.13696,
2021.01.16 15:52:57,40.0,24.0,11.594238,6.6223574,-21.803133,0.03410108,0.54287297,9.735539,0.0036605322,-0.0067283576,-0.004003521,-0.05570394918322563,-0.00350272748619318,-0.9802265167236328,1013.1372,
2021.01.16 15:52:57,40.0,24.0,11.066109,5.769433,-21.553156,0.074848086,0.5443116,9.736909,0.004796948,-0.0038269754,8.6412206E-4,-0.05584211274981499,-0.007686896249651909,-1.016115665435791,1013.1372,
2021.01.16 15:52:57,40.0,24.0,11.822662,6.1858788,-22.413622,0.075504504,0.5160454,9.690032,-0.005915547,-0.0022041635,-0.01418623,-0.053203415125608444,-0.007791819516569376,-1.020268201828003,1013.1372,
2021.01.16 15:52:57,40.0,24.0,11.014114,5.9561462,-21.884323,0.061377823,0.5660743,9.826798,0.009521756,0.0021985793,-0.019793458,-0.05754045024514198,-0.006245882250368595,-0.9973919987678528,1013.1372,
2021.01.16 15:52:57,40.0,24.0,11.180122,5.362159,-22.197603,0.03155229,0.5362023,9.755546,-7.9494994E-4,-0.007127088,-0.01158551,-0.05490831285715103,-0.0032342812046408653,-1.0422760248184204,1013.1383,
2021.01.16 15:52:57,40.0,24.0,11.821068,6.8517056,-22.439993,0.06956917,0.54057425,9.73289,-0.0022368063,0.0070298887,-0.011782747,-0.05548256263136864,-0.007147721480578184,-0.9774163961410522,1013.13983,
2021.01.16 15:52:57,40.0,24.0,11.120636,6.367298,-23.000057,0.008604671,0.5485807,9.796068,-0.004363373,0.018515285,-0.017705364,-0.055941637605428696,-8.783798548392951E-4,-0.9695180058479309,1013.1403,
2021.01.16 15:52:57,40.0,24.0,10.172142,5.421376,-22.937023,0.033439245,0.5372425,9.707221,0.002589594,0.010277264,-0.004540842,-0.05528789386153221,-0.0034447666257619858,-0.9933636784553528,1013.1404,
2021.01.16 15:52:57,40.0,24.0,11.596069,6.0139027,-23.578955,-0.0043266327,0.5343854,9.769003,0.0013365943,0.003955093,-0.0058918726,-0.054647672921419144,4.4289397192187607E-4,-1.0089707374572754,1013.1404,
2021.01.16 15:52:57,40.0,24.0,12.905022,6.5295134,-22.777721,0.06614228,0.5585359,9.743714,0.011860893,3.783385E-4,0.0014059823,-0.05725870653986931,-0.0067880963906645775,-1.0314091444015503,1013.14044,
2021.01.16 15:52:58,40.0,24.0,9.737587,6.0617447,-22.52905,0.008531221,0.54678303,9.346503,0.030868642,-0.008773906,-0.0040758597,-0.05843472108244896,-9.127712110057473E-4,-0.9241545796394348,1013.1408,
