Time,X-cord,Y-cord,Mag_x,Mag_y,Mag_z,Acc_x,Acc_y,Acc_z,Gyro_x,Gyro_y,Gyro_z,Orn_x,Orn_y,Orn_z,Pressure,
2021.01.16 15:48:51,26.0,24.0,30.527588,9.761292,-31.521141,-0.013381019,0.7699439,9.991944,0.025354104,0.07874421,0.0690505,-0.07690441608428955,0.0013391799293458462,-1.1913319826126099,1013.1882,
2021.01.16 15:48:51,26.0,24.0,30.591507,9.9048195,-31.934128,-0.15276462,0.7377847,9.231265,-0.10555194,-0.032449223,0.101240344,-0.07974198460578918,0.016547100618481636,-1.177918553352356,1013.1882,
2021.01.16 15:48:51,26.0,24.0,30.558563,9.738093,-32.600193,-0.025273195,0.72628945,9.787113,-0.066476375,-0.029216845,0.11112567,-0.07407273352146149,0.0025822871830314398,-1.191985845565796,1013.1882,
2021.01.16 15:48:51,26.0,24.0,31.956215,10.632053,-32.586956,-0.0033357826,0.7750533,9.855302,-0.0293554,0.0035886697,0.104312174,-0.0784817487001419,3.384759183973074E-4,-1.1801589727401733,1013.1882,
2021.01.16 15:48:51,26.0,24.0,30.569542,10.052858,-32.510574,0.0064728674,0.6747227,9.691806,-0.032893218,-0.013432764,0.09884576,-0.06950568407773972,-6.67870044708252E-4,-1.1889234781265259,1013.1882,
2021.01.16 15:48:51,26.0,24.0,30.274414,9.504923,-33.1984,0.19271117,0.70414716,9.855865,-1.9664294E-4,-0.028336097,0.06128674,-0.07130971550941467,-0.01955045387148857,-1.2061011791229248,1013.18823,
2021.01.16 15:48:52,26.0,24.0,31.987335,9.677714,-31.76361,0.11082062,0.6873974,9.719382,0.025092723,-0.03237662,0.02251743,-0.07060225307941437,-0.011401528492569923,-1.219140648841858,1013.18823,
2021.01.16 15:48:52,26.0,24.0,31.069084,9.714168,-31.360596,0.19682701,0.6699657,9.677427,0.013250483,-0.07134992,0.008644402,-0.06910520792007446,-0.02033597230911255,-1.2141090631484985,1013.1883,
2021.01.16 15:48:52,26.0,24.0,30.850487,9.808886,-33.704117,0.053657312,0.71362656,9.846593,-0.0051418617,-0.047973584,-0.039732996,-0.07234690338373184,-0.005449273623526096,-1.1960302591323853,1013.1888,
2021.01.16 15:48:52,26.0,24.0,30.12577,9.570637,-32.15897,0.18710737,0.8092194,9.731136,0.030390045,-0.03100553,-0.012587403,-0.0829516053199768,-0.019225331023335457,-1.1942658424377441,1013.18964,
2021.01.16 15:48:52,26.0,24.0,30.116089,9.698662,-32.737,0.0055461004,0.7675516,9.623957,0.030566053,-0.020962788,-0.05393957,-0.07958579808473587,-5.762806395068765E-4,-1.1841473579406738,1013.19006,
2021.01.16 15:48:52,26.0,24.0,30.06849,10.72125,-32.635765,0.1957131,0.7837884,9.768155,0.010425391,-0.008453849,-0.02295286,-0.08005160838365555,-0.020033150911331177,-1.1635993719100952,1013.1902,
2021.01.16 15:48:52,26.0,24.0,29.548729,10.653574,-33.105843,0.10039539,0.8324402,9.87535,0.021539861,4.6866084E-4,-0.021713132,-0.08409162610769272,-0.010165911167860031,-1.1500729322433472,1013.1918,
2021.01.16 15:48:52,26.0,24.0,30.171463,10.253837,-32.956528,-0.0018367767,0.6856951,9.812833,0.0462439,-0.0142539125,-0.015591253,-0.06976398825645447,1.8718108185566962E-4,-1.1771997213363647,1013.1943,
2021.01.16 15:48:52,26.0,24.0,30.00895,10.402021,-32.55124,0.27437094,0.84567577,9.720176,0.05985012,-0.011169394,0.05952348,-0.08674921095371246,-0.02821945957839489,-1.169758677482605,1013.1943,
2021.01.16 15:48:52,26.0,24.0,29.709244,8.628288,-33.026394,0.18637885,0.949657,9.585584,0.04443893,-0.0040480774,0.032403063,-0.09873060882091522,-0.019441211596131325,-1.2003902196884155,1013.1943,
2021.01.16 15:48:52,26.0,24.0,29.713211,8.993175,-32.81372,0.30512002,0.9584217,9.780303,0.032779966,-0.031247491,0.033131335,-0.09763599932193756,-0.031187284737825394,-1.196805715560913,1013.1943,
2021.01.16 15:48:52,26.0,24.0,28.735214,8.056503,-33.25744,0.27355427,0.9057676,9.580849,0.039722443,-0.0433657,-0.002253992,-0.0942210704088211,-0.028544439002871513,-1.2136814594268799,1013.1943,
2021.01.16 15:48:52,26.0,24.0,28.982697,8.336354,-33.092377,0.2542408,0.9012007,9.694745,-0.006995043,-0.055236474,-0.01931201,-0.0926596075296402,-0.026218591257929802,-1.209059238433838,1013.1943,
2021.01.16 15:48:52,26.0,24.0,29.14904,9.314906,-33.089596,0.36859536,0.9540319,9.909322,-0.028834075,-0.023683896,-0.02835908,-0.09591446071863174,-0.03717968985438347,-1.1848641633987427,1013.1943,
2021.01.16 15:48:52,26.0,24.0,29.115723,8.684338,-33.677414,0.13421221,0.9711574,9.489495,0.0026329376,0.04081194,-0.06492458,-0.10197507590055466,-0.014142297208309174,-1.184777021408081,1013.1943,
2021.01.16 15:48:53,26.0,24.0,30.214653,9.250274,-34.237495,0.1495244,0.85192233,9.882169,-0.016082646,0.0039936043,-0.04798268,-0.08598563075065613,-0.01512957364320755,-1.1952049732208252,1013.1943,
2021.01.16 15:48:53,26.0,24.0,29.210327,9.544542,-33.539177,0.16593201,0.89974564,9.705655,0.011381806,0.020414984,-0.01572441,-0.09242560714483261,-0.01709476113319397,-1.1718732118606567,1013.1943,
2021.01.16 15:48:53,26.0,24.0,29.121986,9.612358,-32.806892,0.25567225,0.8813165,9.619693,0.018804368,-0.012784454,0.019641733,-0.09132874757051468,-0.02657175064086914,-1.1760146617889404,1013.1927,
2021.01.16 15:48:53,26.0,24.0,29.525192,10.022552,-32.259735,0.21877748,0.90223217,9.646355,-0.0061051417,-0.014799297,0.0052396664,-0.09323574602603912,-0.022675922140479088,-1.1671496629714966,1013.1927,
2021.01.16 15:48:53,26.0,24.0,29.69046,9.316824,-33.14315,0.2035284,0.9293616,9.779021,-0.014610176,-0.019962035,0.018494047,-0.09473128616809845,-0.020809752866625786,-1.1845852136611938,1013.1927,
2021.01.16 15:48:53,26.0,24.0,30.403053,8.724235,-32.683838,0.22596653,0.9390118,9.772618,-0.0039772457,-0.0034907472,0.025603743,-0.09576647728681564,-0.023118294775485992,-1.2103370428085327,1013.1927,
2021.01.16 15:48:53,26.0,24.0,30.12474,8.823048,-33.36299,0.30501738,0.9119175,9.683982,0.005100713,-0.006157225,0.029841617,-0.09384448081254959,-0.031486693769693375,-1.2082300186157227,1013.1927,
2021.01.16 15:48:53,26.0,24.0,27.97435,10.612089,-33.29103,0.29857174,0.9338517,9.739366,0.0030509513,0.010207348,0.013605682,-0.0955474004149437,-0.030646581202745438,-1.1304399967193604,1013.1927,
2021.01.16 15:48:53,26.0,24.0,28.706192,8.882491,-31.940235,0.16369982,0.8999874,9.6420555,0.015974224,0.013758251,0.006365804,-0.09305679053068161,-0.01697605848312378,-1.188268780708313,1013.1927,
2021.01.16 15:48:53,26.0,24.0,27.992203,7.8883486,-33.655464,0.2166252,0.85134816,9.7230015,-0.007224785,0.0025075183,0.02587053,-0.08731591701507568,-0.022275978699326515,-1.2131693363189697,1013.1927,
2021.01.16 15:48:53,26.0,24.0,29.843132,9.484777,-33.128456,0.24921055,0.90075403,9.67233,-0.0071784006,0.00954658,0.02712395,-0.09282843768596649,-0.025759607553482056,-1.1855816841125488,1013.1927,
2021.01.16 15:48:53,26.0,24.0,28.907043,7.981701,-33.612648,0.22079594,0.90176684,9.823095,-0.018439716,0.0124199325,0.02761377,-0.09152110666036606,-0.022473443299531937,-1.2167798280715942,1013.1952,
2021.01.16 15:48:53,26.0,24.0,29.025597,9.180887,-32.93067,0.33302182,0.89549565,9.650606,-8.388935E-5,-0.0014372894,0.034895882,-0.09247196465730667,-0.03449418023228645,-1.189414143562317,1013.1952,
2021.01.16 15:48:53,26.0,24.0,28.853493,9.193827,-33.075706,0.13124053,0.8404283,9.710358,-0.027079951,-0.005181955,0.021630414,-0.08632669597864151,-0.013514697551727295,-1.1827117204666138,1013.1953,
2021.01.16 15:48:53,26.0,24.0,30.836975,8.669423,-33.381767,0.36832383,0.87067026,9.73407,-0.021090826,-0.027945837,0.059056737,-0.08914480358362198,-0.03782058507204056,-1.2265337705612183,1013.19543,
2021.01.16 15:48:54,26.0,24.0,28.10453,6.524644,-33.250225,0.37570813,0.9447737,9.834431,-0.012012335,-0.022533096,0.01299165,-0.09570465981960297,-0.03818477317690849,-1.2557191848754883,1013.19543,
2021.01.16 15:48:54,26.0,24.0,28.833138,8.256153,-32.726826,0.29817134,0.8340535,9.724055,0.017267581,-0.037583064,-0.008940143,-0.08552277088165283,-0.030653666704893112,-1.2190650701522827,1013.1959,
2021.01.16 15:48:54,26.0,24.0,29.177902,8.921932,-32.77874,0.3268106,0.8267736,9.684352,0.017889448,-0.026193686,-8.0635725E-4,-0.0851173847913742,-0.03373344987630844,-1.2050633430480957,1013.19617,
2021.01.16 15:48:54,26.0,24.0,29.19786,8.331601,-32.883675,0.32341182,0.9244633,9.804086,0.01682743,-0.00969294,-0.016020402,-0.09396487474441528,-0.03297549858689308,-1.2138110399246216,1013.19696,
2021.01.16 15:48:54,26.0,24.0,28.729553,8.632987,-32.41488,0.41803816,0.91337967,9.652695,0.031261157,-5.7318073E-4,-0.016167197,-0.09425558149814606,-0.04328087717294693,-1.2051664590835571,1013.1974,
2021.01.16 15:48:54,26.0,24.0,29.7202,8.418918,-33.52892,0.22212164,0.8787516,9.768241,0.013307393,0.023107478,-0.006388431,-0.08969549834728241,-0.022735245525836945,-1.2149312496185303,1013.19806,
2021.01.16 15:48:54,26.0,24.0,29.700226,7.8717947,-33.15395,0.39066038,0.94805413,9.60917,0.011072978,0.024548288,0.0011332466,-0.09826246649026871,-0.04063257575035095,-1.2310388088226318,1013.19806,
2021.01.16 15:48:54,26.0,24.0,30.2724,8.820456,-32.949776,0.244879,0.9046157,9.750523,-0.014161355,0.02440774,-0.024382377,-0.0924823060631752,-0.025109171867370605,-1.209328293800354,1013.19806,
2021.01.16 15:48:54,26.0,24.0,30.133675,9.142254,-32.473396,0.29048792,0.91389686,9.679139,-0.007829076,0.03223447,-0.015021093,-0.09409802407026291,-0.030002744868397713,-1.2006186246871948,1013.19806,
2021.01.16 15:48:54,26.0,24.0,29.793129,8.18111,-33.307186,0.34008786,0.93410033,9.777923,-0.016227564,0.029064078,-0.016826019,-0.09518533200025558,-0.034767184406518936,-1.223139762878418,1013.19806,
2021.01.16 15:48:54,26.0,24.0,30.697289,9.138368,-33.645184,0.24394596,0.9411165,9.70021,7.658056E-4,0.03182269,-0.023106653,-0.09668713063001633,-0.025143222883343697,-1.1997634172439575,1013.19806,
2021.01.16 15:48:54,26.0,24.0,30.876183,9.310427,-33.22607,0.16870438,0.9071973,9.816906,0.011955268,0.008131778,-0.022634268,-0.09213647991418839,-0.017183395102620125,-1.1984962224960327,1013.19806,
2021.01.16 15:48:54,26.0,24.0,30.405968,8.797742,-32.723454,0.22901452,0.9169,9.627979,0.026674557,0.026221447,-0.012515481,-0.0949198380112648,-0.02378186769783497,-1.2092344760894775,1013.1974,
2021.01.16 15:48:55,26.0,24.0,31.07354,9.000038,-33.01828,0.12659492,0.91694003,9.660117,-0.0073558185,0.015908217,1.14281895E-4,-0.09462856501340866,-0.013104154728353024,-1.2057230472564697,1013.1964,
2021.01.16 15:48:55,26.0,24.0,29.909637,8.324069,-32.582615,0.07215156,0.90005463,9.746037,-0.0023430458,0.013735959,0.020487778,-0.09208711236715317,-0.007403034251183271,-1.2132389545440674,1013.19617,
2021.01.16 15:48:55,26.0,24.0,30.326057,9.120926,-33.558235,0.22475708,0.9526646,9.702091,8.9231716E-4,0.01407005,-0.006313621,-0.09785182774066925,-0.023161696270108223,-1.1945041418075562,1013.1959,
2021.01.16 15:48:55,26.0,24.0,29.97686,8.567762,-32.825085,-0.008037739,0.9108073,9.707528,0.0018535567,0.018371765,-0.029078608,-0.09355094283819199,8.279901812784374E-4,-1.2013019323349,1013.19543,
2021.01.16 15:48:55,26.0,24.0,30.27269,8.721651,-32.94502,0.15660484,0.9298355,9.770224,0.0065455837,0.0028759213,0.02135436,-0.09487244486808777,-0.016027415171265602,-1.2061132192611694,1013.1928,
2021.01.16 15:48:55,26.0,24.0,29.161499,9.07832,-32.562996,0.22559202,0.97613263,9.613372,-1.4214288E-4,0.020742662,-0.00394624,-0.1011645719408989,-0.02346217632293701,-1.1821461915969849,1013.1928,
2021.01.16 15:48:55,26.0,24.0,29.712051,9.269904,-32.086403,0.003071502,0.93491125,9.818803,-0.0075219767,-0.008751347,-0.0068299132,-0.09493021667003632,-3.1281838892027736E-4,-1.179321527481079,1013.1929,
2021.01.16 15:48:55,26.0,24.0,29.267372,8.51299,-32.29882,0.078914195,0.8644858,9.683338,0.008860049,-8.725838E-4,0.026107088,-0.08903659880161285,-0.008149302564561367,-1.2044368982315063,1013.1929,
2021.01.16 15:48:55,26.0,24.0,29.740273,7.60752,-32.680256,0.23817785,0.95366883,9.645669,-0.006305089,0.009523399,0.027702343,-0.09852003306150436,-0.02468770742416382,-1.233432650566101,1013.1929,
2021.01.16 15:48:55,26.0,24.0,29.206139,7.8774652,-32.62996,0.13384035,0.9871246,9.910119,-0.021733752,-0.02412836,0.0021439104,-0.0992712751030922,-0.013504602015018463,-1.2144927978515625,1013.1929,
2021.01.16 15:48:55,26.0,24.0,30.025696,8.586576,-32.747482,0.11210412,0.88864803,9.613799,0.023238221,-0.007429097,0.014381779,-0.0921664908528328,-0.01166022289544344,-1.208294153213501,1013.1935,
2021.01.16 15:48:55,26.0,24.0,30.554306,9.35147,-33.516388,0.17522489,0.8970664,9.716111,-0.004740473,-0.010169046,0.009669803,-0.09205182641744614,-0.018032511696219444,-1.1936109066009521,1013.1935,
2021.01.16 15:48:55,26.0,24.0,31.14824,9.125525,-32.067455,0.17476022,0.96769905,9.692845,0.0034809897,-3.6849745E-4,0.002086818,-0.09949064254760742,-0.018027862533926964,-1.2033814191818237,1013.1935,
2021.01.16 15:48:55,26.0,24.0,30.428635,7.7668047,-33.281334,0.077156454,0.87438875,9.722798,-0.009988084,0.0015633233,-0.008033678,-0.08968771994113922,-0.007935455068945885,-1.235495924949646,1013.1935,
2021.01.16 15:48:55,26.0,24.0,30.403389,8.027697,-31.790226,0.14880843,0.92789286,9.630517,-0.010262591,0.009707067,0.013452806,-0.09604133665561676,-0.015450529754161835,-1.2288836240768433,1013.1935,
2021.01.16 15:48:56,26.0,24.0,29.440582,8.423962,-32.890762,0.15292756,0.9013524,9.802632,-0.024795314,0.006495525,9.783946E-4,-0.091681107878685,-0.015599397011101246,-1.2083383798599243,1013.1929,
2021.01.16 15:48:56,26.0,24.0,30.499687,8.842978,-32.547943,0.16830242,0.8921778,9.661788,-0.0064537125,0.008717999,0.0042086774,-0.09206584841012955,-0.017417624592781067,-1.209196925163269,1013.1926,
2021.01.16 15:48:56,26.0,24.0,31.843254,9.836887,-32.18612,0.19546475,0.94008017,9.810876,-0.018127723,0.0031342292,0.0014522688,-0.09550970792770386,-0.01992063783109188,-1.1953660249710083,1013.1926,
2021.01.16 15:48:56,26.0,24.0,29.45929,8.771151,-32.53352,0.22705765,0.9088066,9.723126,0.0052795154,0.0053930003,-0.016374607,-0.09317253530025482,-0.023348085582256317,-1.201444149017334,1013.19244,
2021.01.16 15:48:56,26.0,24.0,30.545845,7.805668,-31.541134,0.07234575,0.8722348,9.681806,0.0039438605,0.00705943,-0.030739134,-0.08984505385160446,-0.0074722012504935265,-1.2396196126937866,1013.19244,
2021.01.16 15:48:56,26.0,24.0,29.728058,9.44026,-32.5074,0.03560247,0.88834816,9.717476,-0.003035647,0.0061278306,0.001880062,-0.09116357564926147,-0.003663740586489439,-1.178454875946045,1013.19214,
2021.01.16 15:48:56,26.0,24.0,29.056953,7.869358,-32.16548,0.082962945,0.86241263,9.746471,6.1699096E-4,0.005250686,0.015626555,-0.08825156092643738,-0.008511895313858986,-1.222433090209961,1013.19214,
2021.01.16 15:48:56,26.0,24.0,29.754822,8.465527,-32.010494,0.05757386,0.87027067,9.762162,-0.01307918,0.0022219624,0.003076907,-0.08891073614358902,-0.005897585768252611,-1.2111438512802124,1013.19196,
2021.01.16 15:48:56,26.0,24.0,29.031593,8.720606,-32.42816,0.16615036,0.88943243,9.670575,-6.963953E-4,6.918615E-4,0.024325058,-0.09170158207416534,-0.017179330810904503,-1.196902871131897,1013.19196,
2021.01.16 15:48:56,26.0,24.0,30.169647,9.284663,-32.035473,0.12728016,0.87457746,9.751977,-0.009906975,0.0015897386,0.006459372,-0.08943521231412888,-0.01305098831653595,-1.1948258876800537,1013.1919,
2021.01.16 15:48:56,26.0,24.0,30.208939,8.40088,-32.80564,0.104242824,0.87080115,9.70668,-0.008790971,0.0042326134,0.0024948635,-0.0894668847322464,-0.010738873854279518,-1.2175041437149048,1013.1916,
2021.01.16 15:48:56,26.0,24.0,30.335358,8.64701,-32.35299,0.09620178,0.839561,9.758052,-0.006942764,-0.0072907815,0.007879932,-0.08582225441932678,-0.009858388453722,-1.2158119678497314,1013.1909,
2021.01.16 15:48:56,26.0,24.0,29.640465,9.066663,-32.360313,0.11178756,0.8532078,9.641358,-0.003343046,0.005303161,0.010658563,-0.08825872838497162,-0.011594066396355629,-1.1946690082550049,1013.1909,
2021.01.16 15:48:56,26.0,24.0,30.621513,9.084645,-32.068104,0.07839787,0.79747564,9.743542,-0.015637923,-0.005115414,0.004570946,-0.08166193217039108,-0.008045963011682034,-1.2100235223770142,1013.1907,
2021.01.16 15:48:57,26.0,24.0,30.325096,9.078348,-32.264713,0.12803,0.84043884,9.781318,-0.010248618,0.010796262,0.008161865,-0.08570504188537598,-0.01308849174529314,-1.2051033973693848,1013.1903,
2021.01.16 15:48:57,26.0,24.0,29.558403,8.933934,-32.73259,0.11912029,0.83444166,9.57891,-0.0016502135,0.014717101,0.0057357,-0.08688634634017944,-0.012435042299330235,-1.1982760429382324,1013.18994,
2021.01.16 15:48:57,26.0,24.0,29.304184,9.281721,-32.385376,0.01771553,0.7911773,9.767247,-4.7954428E-4,0.026209535,0.010017369,-0.08082649856805801,-0.0018137670122087002,-1.1868678331375122,1013.1899,
2021.01.16 15:48:57,26.0,24.0,30.450043,9.443697,-33.28571,0.06771273,0.8366172,9.906261,-0.025613865,0.0030154581,0.021812817,-0.08425147831439972,-0.0068352404050529,-1.1924574375152588,1013.1898,
2021.01.16 15:48:57,26.0,24.0,29.939102,9.122297,-32.61467,0.16574268,0.83100706,9.681743,0.0036489926,0.008283736,0.019092873,-0.0856100544333458,-0.017117423936724663,-1.2006168365478516,1013.1898,
2021.01.16 15:48:57,26.0,24.0,30.490486,8.587628,-31.92363,0.06611782,0.83971566,9.814186,-0.0054987743,-0.0030611951,-0.0013719399,-0.0853516086935997,-0.006736862938851118,-1.219300627708435,1013.1898,
2021.01.16 15:48:57,26.0,24.0,30.274551,10.17008,-31.800257,0.066005446,0.8083716,9.671466,0.011541934,0.004486052,0.0064761564,-0.08338738232851028,-0.006824655458331108,-1.1742846965789795,1013.1899,
2021.01.16 15:48:57,26.0,24.0,30.01812,8.357565,-32.48838,0.07515343,0.8156206,9.773834,-0.0010957953,0.0018948603,0.008243435,-0.08325405418872833,-0.007689096033573151,-1.221884846687317,1013.18994,
2021.01.16 15:48:57,26.0,24.0,31.523575,9.5604725,-33.96454,0.10601467,0.8201464,9.673966,-0.0017331687,-0.00397138,-0.0065646134,-0.08457141369581223,-0.010958320461213589,-1.2009189128875732,1013.19055,
2021.01.16 15:48:57,26.0,24.0,30.520653,9.228483,-33.806988,0.07312563,0.8146414,9.77092,0.009772695,-0.00130508,-0.0020848366,-0.08317937701940536,-0.00748386699706316,-1.1993653774261475,1013.1907,
2021.01.16 15:48:57,26.0,24.0,30.415619,9.649506,-32.919373,0.0651203,0.8201728,9.752649,-9.980414E-4,-0.015171077,-0.0046710204,-0.0838981568813324,-0.006677091587334871,-1.1873886585235596,1013.19073,
2021.01.16 15:48:57,26.0,24.0,30.063164,9.081908,-32.41493,0.12407154,0.8770005,9.737292,0.010325779,-0.007221887,0.0028641413,-0.08981654793024063,-0.012741203419864178,-1.1979880332946777,1013.19086,
2021.01.16 15:48:57,26.0,24.0,30.72689,8.263044,-32.473015,0.032675687,0.8065224,9.703918,0.011993785,-0.010372738,-0.013945353,-0.08292201161384583,-0.0033672545105218887,-1.230569839477539,1013.19086,
2021.01.16 15:48:57,26.0,24.0,30.687294,8.715396,-32.42432,0.09013014,0.8793144,9.751079,0.007094192,-0.0028104282,0.0013385538,-0.08992905169725418,-0.0092428307980299,-1.2135285139083862,1013.1909,
2021.01.16 15:48:58,26.0,24.0,30.321304,8.463466,-32.937424,0.113825776,0.8647849,9.705757,0.010217676,-0.011725449,-0.0070275906,-0.0888594537973404,-0.011727118864655495,-1.2175557613372803,1013.19147,
2021.01.16 15:48:58,26.0,24.0,30.381699,8.860729,-33.306637,0.06565907,0.8479565,9.726593,0.0061007943,-0.005173673,-0.01147197,-0.08695735037326813,-0.0067503671161830425,-1.2056020498275757,1013.1916,
2021.01.16 15:48:58,26.0,24.0,28.902382,9.245485,-32.283794,0.10067281,0.86610526,9.760669,0.008312929,0.0044776984,0.003689965,-0.08849772810935974,-0.01031376514583826,-1.1802281141281128,1013.1909,
2021.01.16 15:48:58,26.0,24.0,29.81388,8.529686,-32.756424,0.05723675,0.8436456,9.774045,0.003547355,-0.0046412935,-8.7276055E-4,-0.0861000195145607,-0.0058559272438287735,-1.2106260061264038,1013.19086,
2021.01.16 15:48:58,26.0,24.0,30.688797,8.5999565,-32.201553,0.016463032,0.89237934,9.65998,0.011214933,0.0050688433,0.017872715,-0.09211742132902145,-0.0017042496474459767,-1.2122553586959839,1013.19073,
2021.01.16 15:48:58,26.0,24.0,30.215569,9.769201,-33.804302,0.1649101,0.8934216,9.818517,0.0048579075,-0.025625495,0.044943873,-0.09073091298341751,-0.016794245690107346,-1.1781965494155884,1013.19055,
2021.01.16 15:48:58,26.0,24.0,29.859894,8.419756,-32.801346,0.16207671,0.8986351,9.728387,0.026365047,-0.032465063,0.052865837,-0.09209836274385452,-0.016658641397953033,-1.2133591175079346,1013.18994,
2021.01.16 15:48:58,26.0,24.0,29.752457,8.798509,-33.653484,0.35094652,0.9239197,9.685454,0.030745523,-0.024994425,0.05041811,-0.09504272043704987,-0.036218542605638504,-1.205207347869873,1013.18994,
2021.01.16 15:48:58,26.0,24.0,29.05722,7.9657965,-32.581963,0.46624503,1.0231386,9.865966,0.0072775926,-0.008325535,-0.015299144,-0.10322009027004242,-0.047222789376974106,-1.2213983535766602,1013.1897,
2021.01.16 15:48:58,26.0,24.0,29.643372,8.732015,-31.91362,0.1101149,0.9072499,9.640682,0.015890248,0.010408181,-0.08549551,-0.09382397681474686,-0.011421402916312218,-1.200408935546875,1013.18964,
2021.01.16 15:48:58,26.0,24.0,29.041565,9.738872,-32.455357,-0.06367114,0.8615589,9.699208,0.008163958,0.008933518,-0.039604586,-0.08859333395957947,0.006564476992934942,-1.1590601205825806,1013.18964,
2021.01.16 15:48:58,26.0,24.0,29.847794,9.198461,-33.12126,0.13342084,0.9195769,9.653493,1.0642083E-4,0.010567999,0.004518279,-0.09496287256479263,-0.013820111751556396,-1.1863956451416016,1013.1896,
2021.01.16 15:48:58,26.0,24.0,29.853127,8.159094,-32.767277,0.24183804,0.9664039,9.803221,-0.006008869,0.00239235,4.3581775E-4,-0.09823305159807205,-0.024664239957928658,-1.2187445163726807,1013.1896,
2021.01.16 15:48:58,26.0,24.0,30.889679,8.2896385,-32.957348,0.20359622,0.927,9.644528,0.01416188,-7.80751E-6,-0.008187907,-0.09580110013484955,-0.021106887608766556,-1.226001501083374,1013.1894,
2021.01.16 15:48:59,26.0,24.0,28.971573,8.837678,-32.9814,0.07016702,0.9188536,9.695136,-0.0023549434,-0.0023474577,-0.013096989,-0.09448999166488647,-0.007237216457724571,-1.1842143535614014,1013.1894,
2021.01.16 15:48:59,26.0,24.0,29.281822,9.238557,-33.130867,0.114626765,0.9683342,9.734012,0.0012524507,0.0032788506,0.0057404405,-0.09914640337228775,-0.011775357648730278,-1.173830509185791,1013.1892,
2021.01.16 15:48:59,26.0,24.0,30.293854,8.561936,-32.282333,0.18151808,0.9956484,9.78043,0.0073209032,-0.0013577752,0.011191691,-0.10143323242664337,-0.01855718530714512,-1.20787513256073,1013.1892,
2021.01.16 15:48:59,26.0,24.0,31.356789,8.845542,-32.17502,0.20462693,0.98514885,9.680282,0.018437698,-0.0028140082,0.004261245,-0.10139694809913635,-0.02113538235425949,-1.2126280069351196,1013.1892,
2021.01.16 15:48:59,26.0,24.0,30.347343,8.517799,-32.700943,0.10199538,0.95724756,9.70763,0.013907935,-0.0011126879,-0.006568817,-0.09828460961580276,-0.010506336577236652,-1.2078728675842285,1013.18896,
2021.01.16 15:48:59,26.0,24.0,30.361732,8.911756,-32.969498,0.1393614,0.95449233,9.725818,0.012236391,-0.0030519285,0.007332772,-0.09781681001186371,-0.014328035525977612,-1.198318600654602,1013.1885,
2021.01.16 15:48:59,26.0,24.0,30.712715,8.604836,-32.822845,0.23118813,0.98391765,9.6420555,0.010722556,-0.006320616,0.007539301,-0.10166335850954056,-0.023972466588020325,-1.2118343114852905,1013.188,
2021.01.16 15:48:59,26.0,24.0,30.67553,8.361504,-32.894146,0.11497265,0.9763978,9.699327,-0.0030012366,0.0013986665,-0.008338707,-0.10032156854867935,-0.011853117495775223,-1.2140437364578247,1013.188,
2021.01.16 15:48:59,26.0,24.0,31.073914,8.473753,-32.837395,0.15259306,0.91812044,9.591485,-0.0103584025,-0.0043122116,0.0019219553,-0.09541969746351242,-0.015907879918813705,-1.2212377786636353,1013.188,
2021.01.16 15:48:59,26.0,24.0,29.452484,8.514521,-32.15764,0.1107533,0.88011456,9.599701,-0.03427804,-0.0021486746,-0.0012490705,-0.09141981601715088,-0.011536650359630585,-1.2061461210250854,1013.188,
2021.01.16 15:48:59,26.0,24.0,30.448692,7.7356014,-32.815075,0.08522564,0.8477351,9.679993,-0.05352418,0.0052463897,0.010060559,-0.0873497724533081,-0.00880408100783825,-1.240290641784668,1013.1885,
2021.01.16 15:48:59,26.0,24.0,29.983826,9.839346,-32.964447,0.40103173,0.97927386,9.718707,-0.0560352,0.0035870478,0.031043041,-0.10033798962831497,-0.04124050214886665,-1.17828369140625,1013.1889,
2021.01.16 15:48:59,26.0,24.0,29.167084,7.888111,-33.2247,0.4213306,0.8871252,9.715467,-0.058790185,0.030994864,-0.048595697,-0.09097306430339813,-0.04333983734250069,-1.2325631380081177,1013.1889,
2021.01.16 15:48:59,26.0,24.0,30.238205,8.291129,-31.953327,0.2760455,0.83109015,9.679614,-0.094047986,0.09884583,-0.14197652,-0.08561515063047409,-0.028510507196187973,-1.2335376739501953,1013.1889,
2021.01.16 15:48:59,26.0,24.0,31.217651,8.954072,-31.664886,-0.121714525,0.78325886,10.152618,-0.08439269,0.078535154,-0.16317242,-0.07699043303728104,0.011987912468612194,-1.2169188261032104,1013.1889,
2021.01.16 15:49:00,26.0,24.0,31.124756,9.96077,-32.473675,-0.014027891,0.7054034,9.290294,0.015763916,0.062683046,-0.09865938,-0.07578356564044952,0.001509950147010386,-1.1912869215011597,1013.1889,
2021.01.16 15:49:00,26.0,24.0,30.995079,9.945826,-31.76774,-0.23911117,0.59491116,10.0166235,-0.083997905,-0.06161167,-0.11328258,-0.059305839240550995,0.02386690303683281,-1.1970584392547607,1013.1885,
2021.01.16 15:49:00,26.0,24.0,31.795433,10.531148,-32.761955,-0.19363488,0.67799586,9.819597,-0.009677866,0.015103309,-0.014920816,-0.06892241537570953,0.019716674461960793,-1.1807001829147339,1013.1875,
2021.01.16 15:49:00,26.0,24.0,30.58873,10.369039,-32.37829,-0.05931155,0.6784058,9.876498,0.008709757,0.02862396,-0.0043891976,-0.06857994943857193,0.006005249451845884,-1.178477168083191,1013.1872,
2021.01.16 15:49:00,26.0,24.0,30.28537,9.961323,-32.384415,-0.049610812,0.6088703,10.055528,-0.0050201192,-0.02167174,-0.011874393,-0.06047623232007027,0.004933645948767662,-1.194322109222412,1013.1869,
2021.01.16 15:49:00,26.0,24.0,30.286674,10.219206,-31.218456,-0.08209686,0.7255397,9.668313,0.04489177,-0.025798995,0.026087625,-0.07489997148513794,0.00849112868309021,-1.1749485731124878,1013.1869,
2021.01.16 15:49:00,26.0,24.0,29.659302,10.201943,-32.012295,-0.14784928,0.7471525,9.575153,0.040377818,-0.051733218,0.027618665,-0.07786330580711365,0.01543970312923193,-1.160164475440979,1013.1864,
2021.01.16 15:49:00,26.0,24.0,30.217697,11.041678,-32.739628,0.014321064,0.80083174,9.389581,0.055789746,0.010820254,0.045873117,-0.08508340269327164,-0.0015252067241817713,-1.143565058708191,1013.1864,
2021.01.16 15:49:00,26.0,24.0,29.469658,9.735726,-32.762142,0.14155464,0.82588935,9.779499,0.009068581,-0.022365233,0.032836124,-0.08424239605665207,-0.014473619870841503,-1.1775312423706055,1013.1862,
2021.01.16 15:49:00,26.0,24.0,30.384552,11.00858,-32.950996,0.13290013,0.93715245,9.692592,0.038879585,0.017258825,0.03421442,-0.0963788777589798,-0.013710658065974712,-1.1422147750854492,1013.1858,
2021.01.16 15:49:00,26.0,24.0,29.779716,10.408217,-32.82163,0.06219199,0.7042522,9.814634,0.022912135,-0.03245575,0.009770933,-0.07163111120462418,-0.006336573977023363,-1.1697027683258057,1013.1858,
2021.01.16 15:49:00,26.0,24.0,30.747108,10.1151705,-32.9644,-0.14227976,0.6851209,9.778407,0.024228008,-0.037314817,0.05619517,-0.06994298100471497,0.01454937644302845,-1.1812223196029663,1013.1858,
2021.01.16 15:49:00,26.0,24.0,28.67144,9.884903,-31.63282,0.031427793,0.93873334,9.736832,0.041294422,-0.0011574151,-0.022020994,-0.09611300379037857,-0.0032277116551995277,-1.1503146886825562,1013.1858,
2021.01.16 15:49:01,26.0,24.0,29.201523,9.55984,-31.504108,0.047504127,0.92064446,9.55833,0.05102859,-4.25881E-5,0.0068374714,-0.09602116048336029,-0.004969878122210503,-1.167621374130249,1013.1858,
2021.01.16 15:49:01,26.0,24.0,29.896591,8.675763,-32.377064,0.13680993,0.8953406,9.874325,0.0132432515,-0.032233432,0.0029616018,-0.09041769802570343,-0.013854230754077435,-1.2077628374099731,1013.1857,
2021.01.16 15:49:01,26.0,24.0,28.765045,9.99151,-32.153725,0.009199982,0.9895001,9.574176,0.040404286,-0.008526946,0.028941829,-0.10298525542020798,-9.609160479158163E-4,-1.1397976875305176,1013.1857,
2021.01.16 15:49:01,26.0,24.0,31.211807,9.377693,-33.584606,0.17983957,0.93362385,9.804862,0.011083621,-0.018197572,0.03986903,-0.094918392598629,-0.018339820206165314,-1.197496771812439,1013.1857,
2021.01.16 15:49:01,26.0,24.0,29.488861,9.101285,-33.16249,0.31634977,0.9931871,9.578491,-0.0014980633,-0.010234465,0.02833924,-0.10326418280601501,-0.03301509842276573,-1.1862907409667969,1013.1857,
2021.01.16 15:49:01,26.0,24.0,30.523056,8.941639,-32.73581,0.110442944,0.9419411,9.769192,-0.021992942,0.02073104,0.006352323,-0.09611630439758301,-0.011304747313261032,-1.2000337839126587,1013.1862,
2021.01.16 15:49:01,26.0,24.0,30.269371,8.109137,-33.19348,0.041079972,0.91883737,9.71111,-0.028623998,0.035892762,0.023625322,-0.09433545172214508,-0.00423017842695117,-1.2182644605636597,1013.1862,
2021.01.16 15:49:01,26.0,24.0,29.231537,9.288809,-32.786343,0.16771425,0.89915633,9.801717,-0.015003479,0.02355723,0.036627162,-0.09146522730588913,-0.017109032720327377,-1.1821203231811523,1013.1862,
2021.01.16 15:49:01,26.0,24.0,29.112953,8.52573,-32.4716,0.18720965,0.87376004,9.712744,0.004866004,0.023122359,0.02828611,-0.08970209211111069,-0.019272254779934883,-1.2061554193496704,1013.1862,
2021.01.16 15:49:01,26.0,24.0,30.777039,9.068965,-32.68787,0.16228794,0.9185714,9.812265,0.0017674842,0.030236753,0.004629813,-0.09332988411188126,-0.016537785530090332,-1.2040575742721558,1013.1862,
2021.01.16 15:49:01,26.0,24.0,30.499771,9.632206,-32.937927,0.17947483,0.92065454,9.760869,0.01944654,0.013877281,-0.0027047866,-0.09402694553136826,-0.018385106697678566,-1.1850641965866089,1013.1862,
2021.01.16 15:49:01,26.0,24.0,29.269066,8.373117,-31.571293,0.15386754,0.86962867,9.740183,0.028639177,0.005016848,-0.010349405,-0.08903541415929794,-0.015795879065990448,-1.213670015335083,1013.1862,
2021.01.16 15:49:01,26.0,24.0,30.176666,8.372124,-32.052063,0.11117404,0.8756338,9.647123,0.024586545,-0.001164244,-0.017642539,-0.09051229804754257,-0.011523550376296043,-1.2192387580871582,1013.1862,
2021.01.16 15:49:01,26.0,24.0,29.765839,8.791262,-32.717495,0.079619646,0.91126156,9.757103,0.009459028,-8.8824355E-4,-0.023046218,-0.0931214690208435,-0.008159991353750229,-1.1971964836120605,1013.1862,
2021.01.16 15:49:02,26.0,24.0,30.415054,9.596882,-33.202225,-0.019933274,0.8661237,9.638307,0.011633224,-0.007422506,-0.016970668,-0.08962172269821167,0.002068127505481243,-1.1790598630905151,1013.1862,
2021.01.16 15:49:02,26.0,24.0,30.432991,9.543799,-32.38548,0.068773694,0.89994925,9.6685295,-0.0029694422,-0.00935127,0.01288495,-0.0928105041384697,-0.00711302924901247,-1.1841492652893066,1013.1862,
2021.01.16 15:49:02,26.0,24.0,30.316864,9.749129,-32.583855,-0.025559524,0.96524,9.870254,-0.01762907,0.023569034,0.0024442205,-0.09748253971338272,0.002589545212686062,-1.1680004596710205,1013.1857,
2021.01.16 15:49:02,26.0,24.0,29.60299,8.512181,-32.10195,0.021735383,0.93882674,9.561089,0.029427584,0.018871272,0.03338583,-0.09787843376398087,-0.0022733130026608706,-1.198111891746521,1013.1853,
2021.01.16 15:49:02,26.0,24.0,30.07695,9.456827,-32.559025,0.053618085,0.94710326,9.711431,-0.011503153,0.016631931,0.018321007,-0.0972156822681427,-0.005521075334399939,-1.177428126335144,1013.18524,
2021.01.16 15:49:02,26.0,24.0,30.931984,8.965229,-32.184025,0.036814217,1.0248598,9.818429,8.1953243E-4,0.022706393,0.015667967,-0.10400388389825821,-0.003749484196305275,-1.1951582431793213,1013.1852,
2021.01.16 15:49:02,26.0,24.0,30.361671,8.713906,-32.1246,0.06759559,1.0035111,9.708571,0.027423348,0.02065297,0.006286799,-0.10299515724182129,-0.006962353363633156,-1.1983513832092285,1013.18506,
2021.01.16 15:49:02,26.0,24.0,30.31089,7.758733,-33.046047,-0.05970942,0.9355003,9.140177,0.047184713,-0.007180606,-0.0072151385,-0.10199303925037384,0.006532539613544941,-1.2173458337783813,1013.185,
2021.01.16 15:49:02,26.0,24.0,29.96859,8.819618,-32.18689,0.10317618,0.8951946,10.694972,-0.10659595,-0.057644673,0.009439292,-0.0835038498044014,-0.009646867401897907,-1.209274172782898,1013.185,
