Time,X-cord,Y-cord,Mag_x,Mag_y,Mag_z,Acc_x,Acc_y,Acc_z,Gyro_x,Gyro_y,Gyro_z,Orn_x,Orn_y,Orn_z,Pressure,
2021.02.11 15:02:23,45.0,17.0,-0.29999998,-21.48,-31.199999,-0.12689656,0.23942748,10.182851,-0.079307415,0.18027061,-0.13139834,-0.023506658151745796,0.012461145408451557,3.1083972454071045,1017.65845,
2021.02.11 15:02:23,45.0,17.0,0.24,-21.3,-31.56,-0.31125572,0.12210801,9.914692,-0.10374202,-0.071405865,-0.03976855,-0.012309178709983826,0.031383074820041656,3.1057207584381104,1017.64355,
2021.02.11 15:02:23,45.0,17.0,1.38,-22.08,-32.82,-0.2657645,0.1987248,10.060742,-0.05914886,-0.029256169,-0.044044606,-0.019743045791983604,0.026409851387143135,-3.1176629066467285,1017.6455,
2021.02.11 15:02:23,45.0,17.0,2.7,-22.32,-33.84,-0.5554718,0.16041641,10.173274,-0.07319876,-0.06102116,-0.019609997,-0.015743661671876907,0.05454691872000694,-3.102543830871582,1017.6455,
2021.02.11 15:02:23,45.0,17.0,3.6,-22.56,-34.38,-0.31125572,0.12210801,9.809344,-0.010890506,-0.026201842,0.014598457,-0.012441229075193405,0.03171989321708679,-3.02874755859375,1017.6306,
2021.02.11 15:02:23,45.0,17.0,3.72,-23.279999,-34.68,-0.28970724,0.057462595,10.10384,0.023928814,-0.0744602,0.102563046,-0.005684805568307638,0.028665130957961082,-3.0241003036499023,1017.6306,
2021.02.11 15:02:23,45.0,17.0,3.1799998,-22.859999,-34.44,-0.021548472,0.15562786,10.118205,-0.004170988,-0.053079914,0.10439564,-0.015379727818071842,0.0021296702325344086,-3.003340482711792,1017.6333,
2021.02.11 15:02:23,45.0,17.0,3.1799998,-23.46,-34.079998,-0.08858817,0.16759923,10.046377,0.046530828,-0.071405865,0.13554977,-0.016680357977747917,0.008817694149911404,-3.016446590423584,1017.63354,
2021.02.11 15:02:23,45.0,17.0,2.8799999,-23.279999,-33.84,-0.0071828244,0.11253092,10.362421,0.042865634,-0.07751453,0.122721605,-0.010859090834856033,6.931607495062053E-4,-3.0175535678863525,1017.63354,
2021.02.11 15:02:24,45.0,17.0,2.34,-22.74,-33.719997,0.2753416,0.36871833,9.565128,0.070354566,-0.048192993,0.13188459,-0.038513172417879105,-0.028778033331036568,-2.9883649349212646,1017.63135,
2021.02.11 15:02:24,45.0,17.0,2.1,-22.98,-33.899998,0.11492519,0.27055305,9.737515,0.04775256,0.009839207,0.048196044,-0.027775529772043228,-0.01180176343768835,-3.028599977493286,1017.63135,
2021.02.11 15:02:24,45.0,17.0,1.68,-22.619999,-33.78,0.10055954,0.3615355,10.297776,-0.010279641,0.055654097,-0.011057883,-0.03509202599525452,-0.009764859452843666,-3.048046350479126,1017.6387,
2021.02.11 15:02:24,45.0,17.0,1.68,-23.039999,-34.02,-0.09337672,0.37590113,10.40073,-0.009668776,6.762278E-4,-0.05504018,-0.03612462431192398,0.008977659046649933,-3.0786125659942627,1017.6465,
2021.02.11 15:02:24,45.0,17.0,2.3999999,-23.22,-34.079998,-0.14844504,0.21548474,9.873989,0.023928814,0.038549874,-0.05504018,-0.021817544475197792,0.015032815746963024,-3.0577926635742188,1017.6465,
2021.02.11 15:02:24,45.0,17.0,2.6399999,-23.279999,-34.079998,-0.05506832,0.20590763,9.708784,0.08684793,0.05443237,-0.08497258,-0.021204864606261253,0.005671949125826359,-3.033524990081787,1017.655,
2021.02.11 15:02:24,45.0,17.0,2.28,-23.22,-34.38,-0.11971374,0.22506183,10.448615,0.017820163,0.015336994,-0.0880269,-0.021535130217671394,0.011456876993179321,-3.0578701496124268,1017.655,
2021.02.11 15:02:24,45.0,17.0,2.1,-23.039999,-34.32,-0.16520496,0.36632404,9.804555,0.037367847,0.0416042,-0.07703133,-0.03733997419476509,0.01684822328388691,-3.071725606918335,1017.6509,
2021.02.11 15:02:24,45.0,17.0,2.46,-22.98,-34.8,-0.30886146,0.1699935,10.012857,0.034313522,0.03793901,-0.07886392,-0.01696782186627388,0.03083670884370804,-3.079761028289795,1017.64307,
2021.02.11 15:02:24,45.0,17.0,2.6399999,-22.859999,-34.62,-0.34477556,0.21069619,9.912297,0.009878913,0.0049522845,-0.048931528,-0.021239997819066048,0.034768592566251755,-3.0768063068389893,1017.64307,
2021.02.11 15:02:24,45.0,17.0,3.84,-23.16,-34.68,-0.3328042,0.30167863,9.964972,0.007435452,0.012282667,-0.006781826,-0.03024781122803688,0.03338499739766121,-3.020887613296509,1017.6511,
2021.02.11 15:02:24,45.0,17.0,4.02,-23.34,-34.739998,-0.17717634,0.32083282,10.144543,-0.02066435,6.536258E-5,0.026815763,-0.031610794365406036,0.017463412135839462,-2.989250898361206,1017.6511,
2021.02.11 15:02:24,45.0,17.0,3.4199998,-23.279999,-34.32,-0.07422252,0.37111259,10.108628,-0.023718676,-0.020093191,0.043309122,-0.03669498860836029,0.007342359516769648,-2.9986071586608887,1017.6521,
2021.02.11 15:02:24,45.0,17.0,3.3,-23.279999,-34.02,0.0,0.36871833,9.888355,0.014154969,0.0049522845,0.029259223,-0.037270866334438324,1.0E-6,-2.9926772117614746,1017.64624,
2021.02.11 15:02:24,45.0,17.0,2.22,-23.279999,-33.719997,-0.27294734,0.2681588,10.027223,0.0043811253,0.0018979582,-0.0049492302,-0.02672680839896202,0.027213912457227707,-3.0834696292877197,1017.64624,
2021.02.11 15:02:24,45.0,17.0,1.9799999,-23.279999,-33.66,-0.2777359,0.2466103,9.900327,-0.006614449,0.014726128,-0.007392691,-0.024894369766116142,0.02804584801197052,-3.095475435256958,1017.64233,
2021.02.11 15:02:25,45.0,17.0,2.1,-23.58,-33.42,-0.29689008,0.28970724,9.991309,0.018431026,-0.023147516,0.032313548,-0.028975021094083786,0.029706092551350594,-3.09267520904541,1017.64233,
2021.02.11 15:02:25,45.0,17.0,2.1,-23.4,-33.6,-0.22985038,0.3232271,9.871595,0.02576141,0.017780455,0.045752585,-0.0327225960791111,0.023279808461666107,-3.082554817199707,1017.64795,
2021.02.11 15:02:25,45.0,17.0,2.1599998,-23.16,-33.66,0.098165266,0.28970724,9.967366,0.02820487,0.010450072,0.047585182,-0.029055990278720856,-0.009848348796367645,-3.029700756072998,1017.65015,
2021.02.11 15:02:25,45.0,17.0,2.22,-22.92,-33.78,0.17957062,0.44054657,9.964972,0.03981131,0.011060937,0.07568498,-0.04417358338832855,-0.01801823265850544,-3.0102405548095703,1017.65015,
2021.02.11 15:02:25,45.0,17.0,1.9799999,-22.98,-33.719997,-0.1699935,0.3040729,10.000886,0.0062137214,0.026332567,-0.04709893,-0.030390841886401176,0.01699620857834816,-3.0775790214538574,1017.65234,
2021.02.11 15:02:25,45.0,17.0,1.68,-22.98,-33.42,-0.21787901,0.3974496,9.869201,0.0153767,0.008617477,-0.05626191,-0.04024016857147217,0.02207307703793049,-3.0980424880981445,1017.65234,
2021.02.11 15:02:25,45.0,17.0,1.68,-22.859999,-33.12,-0.21309046,0.36871833,10.436644,0.009268047,0.0031196887,-0.040379412,-0.03530716523528099,0.020414691418409348,-3.0953266620635986,1017.65137,
2021.02.11 15:02:25,45.0,17.0,1.62,-22.8,-32.94,-0.39266106,0.339987,9.763853,0.0037702604,0.028165163,-0.07458787,-0.03477883338928223,0.040194131433963776,-3.1279585361480713,1017.6487,
2021.02.11 15:02:25,45.0,17.0,1.92,-22.56,-32.94,-0.30886146,0.35674694,9.943423,0.050196018,0.023278242,-0.02022086,-0.03584501892328262,0.03105190023779869,-3.099658250808716,1017.6487,
2021.02.11 15:02:25,45.0,17.0,1.9799999,-22.68,-33.42,-0.11253092,0.37350687,10.13736,0.0062137214,0.010450072,-0.010447018,-0.03682566434144974,0.011100158095359802,-3.066667318344116,1017.6472,
2021.02.11 15:02:25,45.0,17.0,1.9799999,-22.8,-33.18,-0.35674694,0.33519846,9.701602,0.031870063,0.029997759,-0.028162109,-0.03451379016041756,0.03675540164113045,-3.1065144538879395,1017.6472,
2021.02.11 15:02:25,45.0,17.0,2.1,-22.74,-32.88,-0.06464542,0.45251793,10.10384,-0.0017275269,-0.014595403,-0.014723074,-0.044755902141332626,0.006398016586899757,-3.0528855323791504,1017.6467,
2021.02.11 15:02:25,45.0,17.0,2.1,-22.68,-33.12,-0.16041641,0.37350687,10.168485,-0.014555697,-0.009097616,-0.03976855,-0.036710742861032486,0.01577453501522541,-3.0681841373443604,1017.646,
2021.02.11 15:02:25,45.0,17.0,2.22,-22.859999,-32.94,-0.22745611,0.4740664,9.794978,-0.013944832,-0.010930212,-0.044655472,-0.04834817349910736,0.02321753464639187,-3.073209047317505,1017.646,
2021.02.11 15:02:25,45.0,17.0,2.1599998,-22.619999,-32.94,-0.43815228,0.55786604,10.139753,0.017209295,-0.048192993,0.029259223,-0.05491116642951965,0.043184470385313034,-3.106182813644409,1017.6472,
2021.02.11 15:02:25,45.0,17.0,1.86,-23.1,-32.88,-0.071828246,0.5147691,10.008069,0.02820487,-0.04697126,0.0017702875,-0.05138879641890526,0.007176910527050495,-3.0657801628112793,1017.6472,
2021.02.11 15:02:25,45.0,17.0,1.62,-23.279999,-32.88,-0.23942748,0.4932206,10.032011,0.042254772,0.0037305541,0.01948538,-0.04911116510629654,0.023861819878220558,-3.103017568588257,1017.64185,
2021.02.11 15:02:26,45.0,17.0,1.68,-23.039999,-32.7,-0.29928434,0.5650489,9.732727,0.033091795,-0.013984538,0.017652784,-0.057964157313108444,0.03074061870574951,-3.1096608638763428,1017.64575,
2021.02.11 15:02:26,45.0,17.0,2.1,-23.46,-32.82,-0.18435916,0.52674043,9.998491,0.03858958,0.01594786,0.051250372,-0.0526244081556797,0.018436608836054802,-3.072824478149414,1017.64575,
2021.02.11 15:02:26,45.0,17.0,2.46,-23.16,-33.12,-0.11013664,0.48843205,9.955395,1.0506882E-4,-0.0023780984,0.017041918,-0.049019746482372284,0.0110625596717,-3.0445642471313477,1017.646,
2021.02.11 15:02:26,45.0,17.0,2.52,-23.039999,-33.12,-0.1340794,0.5602603,9.862018,0.033702657,0.04282593,0.05002864,-0.05674367770552635,0.013594696298241615,-3.043928623199463,1017.646,
2021.02.11 15:02:26,45.0,17.0,2.8799999,-23.4,-33.239998,-0.26097596,0.5794145,10.175668,0.016598431,0.029997759,0.029259223,-0.05686109513044357,0.025641437619924545,-3.047466993331909,1017.647,
2021.02.11 15:02:26,45.0,17.0,2.76,-23.4,-33.48,-0.27055305,0.48124924,9.912297,0.03614612,-0.008486751,0.028037492,-0.048494603484869,0.027287911623716354,-3.056931734085083,1017.647,
2021.02.11 15:02:26,45.0,17.0,2.58,-23.699999,-33.42,-0.13647367,0.6249057,9.905115,0.049585156,0.025110837,0.028037492,-0.06299971789121628,0.013777228072285652,-3.043548822402954,1017.647,
2021.02.11 15:02:26,45.0,17.0,1.9799999,-23.519999,-32.76,-0.2849187,0.57223165,10.091868,-0.010890506,0.010450072,-0.008614422,-0.05661908537149429,0.02822500467300415,-3.092862129211426,1017.6472,
2021.02.11 15:02:26,45.0,17.0,0.84,-23.22,-31.859999,-0.28731298,0.505192,9.830893,0.031870063,-0.011541077,0.017041918,-0.05132117494940758,0.029217207804322243,3.137366771697998,1017.6472,
2021.02.11 15:02:26,45.0,17.0,0.17999999,-22.56,-31.619999,-0.25379312,0.5411061,9.909904,0.012933239,-0.007875886,0.021317976,-0.0545305460691452,0.025604451075196266,3.1113383769989014,1017.6555,
2021.02.11 15:02:26,45.0,17.0,-0.24,-22.02,-31.019999,-0.16759923,0.66800267,9.953,-0.0084470445,-0.008486751,0.043309122,-0.06700573116540909,0.016837475821375847,3.1032967567443848,1017.65015,
2021.02.11 15:02:26,45.0,17.0,-0.29999998,-21.96,-31.14,-0.25379312,0.64166564,9.996098,-0.0060035833,-0.019482324,0.040865663,-0.06408306956291199,0.025383764877915382,3.0869200229644775,1017.65015,
2021.02.11 15:02:26,45.0,17.0,-0.35999998,-22.08,-31.38,-0.15323359,0.5554718,10.094262,0.0037702604,-0.024369247,0.02987009,-0.05496670678257942,0.015179100446403027,3.1004676818847656,1017.64844,
2021.02.11 15:02:26,45.0,17.0,-0.53999996,-22.56,-30.779999,-0.028731298,0.5027977,9.9889145,0.0019376645,-0.011541077,0.009711536,-0.05029292032122612,0.0028763103764504194,3.1116490364074707,1017.64844,
2021.02.11 15:02:26,45.0,17.0,-0.96,-22.8,-30.3,-0.014365649,0.60335726,9.842864,0.011100643,0.008006611,-0.015333939,-0.06122227758169174,0.0014594978420063853,3.0935885906219482,1017.6577,
2021.02.11 15:02:26,45.0,17.0,-1.0799999,-23.039999,-30.119999,-0.36871833,0.5411061,10.111023,-0.013944832,-0.055523377,-0.02938384,-0.05343000218272209,0.036450814455747604,3.0402235984802246,1017.6577,
2021.02.11 15:02:26,45.0,17.0,-0.96,-23.039999,-30.3,0.047885496,0.70870537,9.914692,0.0153767,-0.09400789,0.015820188,-0.07135812193155289,-0.004829714074730873,3.1025338172912598,1017.6577,
2021.02.11 15:02:27,45.0,17.0,-1.14,-22.74,-30.24,-0.05506832,0.505192,10.314536,-0.03227079,-0.19296804,0.039033066,-0.04893883690237999,0.005338853690773249,3.080378770828247,1017.65796,
2021.02.11 15:02:27,45.0,17.0,-1.1999999,-22.08,-30.779999,0.16759923,0.44054657,9.751882,-0.02555127,-0.07629279,0.07446325,-0.04513819143176079,-0.017184656113386154,3.109142780303955,1017.65796,
2021.02.11 15:02:27,45.0,17.0,-1.1999999,-21.84,-30.599998,0.14126222,0.46209505,9.9889145,-0.07380962,-0.0304779,0.017652784,-0.04622321203351021,-0.014140956103801727,3.1040072441101074,1017.6548,
2021.02.11 15:02:27,45.0,17.0,-1.5,-21.72,-30.24,0.24900457,0.42618093,10.338479,-0.075031355,0.026943434,-0.028162109,-0.041187532246112823,-0.024080567061901093,3.1038970947265625,1017.6421,
2021.02.11 15:02:27,45.0,17.0,-1.56,-21.72,-30.779999,-0.06464542,0.3998439,9.830893,-0.14405912,0.048934583,-0.05076412,-0.04064890742301941,0.006575647741556168,3.0556328296661377,1017.6421,
2021.02.11 15:02:27,45.0,17.0,-1.62,-21.779999,-30.84,-0.06943397,0.20590763,9.962578,-0.03227079,0.033052087,-0.052596718,-0.02066466398537159,0.006969365756958723,3.0550055503845215,1017.6487,
2021.02.11 15:02:27,45.0,17.0,-1.8,-21.779999,-31.199999,-0.15083931,0.29210153,10.084685,-0.068922706,0.010450072,-0.057483643,-0.02895353175699711,0.014956150203943253,3.033412218093872,1017.6487,
2021.02.11 15:02:27,45.0,17.0,-1.56,-21.48,-31.439999,-0.24900457,0.2753416,10.111023,-0.044488095,0.0073957457,-0.013501343,-0.027216847985982895,0.02462206408381462,3.0288898944854736,1017.64624,
2021.02.11 15:02:27,45.0,17.0,-1.38,-21.779999,-31.199999,-0.0071828244,0.24182175,9.883567,-0.009668776,0.011060937,0.013376727,-0.02446216717362404,7.267440087161958E-4,3.074930429458618,1017.6516,
2021.02.11 15:02:27,45.0,17.0,-1.1999999,-21.9,-31.38,0.11013664,0.32562137,10.10384,0.011100643,0.033662952,0.040254798,-0.03221442550420761,-0.010900041088461876,3.1005241870880127,1017.6516,
2021.02.11 15:02:27,45.0,17.0,-1.14,-21.84,-31.26,0.076616794,0.3615355,9.907509,0.008046317,0.0416042,0.0072680744,-0.03647378459572792,-0.007733050733804703,3.098196029663086,1017.647,
2021.02.11 15:02:27,45.0,17.0,-1.02,-21.84,-31.26,-0.15083931,0.19154198,10.055954,0.0153767,0.023278242,-0.007392691,-0.019043175503611565,0.014998875558376312,3.071619987487793,1017.6433,
2021.02.11 15:02:27,45.0,17.0,-1.0799999,-21.359999,-31.32,-0.17957062,0.20590763,9.871595,0.0025485298,0.022667378,-0.006781826,-0.020852122455835342,0.018188631162047386,3.0620875358581543,1017.6433,
2021.02.11 15:02:27,45.0,17.0,-0.96,-21.539999,-30.96,-0.117319465,0.19393626,9.998491,0.008657183,0.02205651,0.011544132,-0.01939278654754162,0.011733178049325943,3.078474760055542,1017.6411,
2021.02.11 15:02:27,45.0,17.0,-0.53999996,-21.48,-31.56,-0.031125572,0.31365,10.00328,0.012322374,0.036717277,0.051861238,-0.031344301998615265,0.0031115266028791666,3.1104414463043213,1017.6411,
2021.02.11 15:02:27,45.0,17.0,-0.42,-21.359999,-31.56,-0.05027977,0.26337022,10.060742,0.0013267993,0.021445647,0.04147653,-0.02617170661687851,0.004997578915208578,3.1134555339813232,1017.6377,
2021.02.11 15:02:28,45.0,17.0,-0.12,-21.48,-31.32,-0.098165266,0.29928434,10.010463,0.008657183,0.033052087,0.028037492,-0.029886813834309578,0.009805952198803425,3.120795965194702,1017.6377,
2021.02.11 15:02:28,45.0,17.0,-0.12,-21.18,-31.199999,-0.10055954,0.27055305,9.924269,0.0037702604,0.02205651,0.012765861,-0.027253611013293266,0.010132343508303165,3.120135545730591,1017.6387,
2021.02.11 15:02:28,45.0,17.0,-0.42,-20.76,-30.48,-0.15802214,0.23224466,10.034406,-0.01150137,0.001287093,-0.0037274996,-0.023137835785746574,0.01574672944843769,3.0967395305633545,1017.6521,
2021.02.11 15:02:28,45.0,17.0,-0.42,-21.0,-30.359999,-0.13168511,0.2657645,10.000886,-0.017610023,-0.004210694,-0.012890479,-0.026565538719296455,0.013166583143174648,3.101008892059326,1017.6521,
2021.02.11 15:02:28,45.0,17.0,-0.71999997,-21.0,-30.599998,-0.08619389,0.2753416,9.957788,0.0062137214,0.008617477,5.48557E-4,-0.02764279954135418,0.008655711077153683,3.092747688293457,1017.65356,
2021.02.11 15:02:28,45.0,17.0,-0.84,-21.119999,-30.779999,-0.18435916,0.2777359,10.063137,0.008046317,-0.009097616,0.0017702875,-0.027587702497839928,0.01831819862127304,3.07243275642395,1017.65356,
2021.02.11 15:02:28,45.0,17.0,-0.9,-21.66,-30.9,-0.14365649,0.28252444,9.811738,0.019652756,-0.0029889636,-0.0018949041,-0.02878350019454956,0.014640242792665958,3.0765531063079834,1017.6555,
2021.02.11 15:02:28,45.0,17.0,-0.96,-21.539999,-31.08,-0.2370332,0.20590763,10.101445,0.010489778,0.013504398,-0.011668748,-0.02037554793059826,0.02346097119152546,3.060973644256592,1017.6465,
2021.02.11 15:02:28,45.0,17.0,-0.71999997,-21.66,-30.72,-0.13647367,0.29689008,9.871595,0.0043811253,0.015336994,0.002992018,-0.03006325289607048,0.013824003748595715,3.0864269733428955,1017.6465,
2021.02.11 15:02:28,45.0,17.0,-0.65999997,-21.6,-30.72,-0.16520496,0.25858167,9.993703,0.011100643,0.0031196887,-0.008003556,-0.025865156203508377,0.016529399901628494,3.085510015487671,1017.6399,
2021.02.11 15:02:28,45.0,17.0,-0.9,-21.359999,-30.66,-0.18435916,0.29210153,9.960183,0.0019376645,6.762278E-4,-0.007392691,-0.029313502833247185,0.018507501110434532,3.069977045059204,1017.6399,
2021.02.11 15:02:28,45.0,17.0,-0.42,-21.359999,-30.779999,-0.22027329,0.31125572,9.953,0.0019376645,0.008617477,-0.008614422,-0.03125471621751785,0.022127732634544373,3.087646484375,1017.6428,
2021.02.11 15:02:28,45.0,17.0,-0.35999998,-21.06,-31.14,-0.11492519,0.24421602,10.05356,-0.004170988,-0.020093191,-0.025107782,-0.02428513579070568,0.01143079437315464,3.1063361167907715,1017.6428,
2021.02.11 15:02:28,45.0,17.0,-0.35999998,-21.06,-31.019999,-0.17957062,0.2753416,9.976943,-0.010890506,0.0049522845,-0.02327519,-0.027586322277784348,0.017996616661548615,3.096162796020508,1017.6428,
2021.02.11 15:02:28,45.0,17.0,-0.35999998,-21.18,-31.56,-0.16759923,0.24900457,10.067925,-0.010279641,0.009839207,-0.019609997,-0.024723995476961136,0.016645310446619987,3.0982115268707275,1017.6455,
2021.02.11 15:02:28,45.0,17.0,-0.65999997,-21.06,-31.14,-0.2083019,0.27055305,10.063137,-0.007225314,0.010450072,-0.008003556,-0.026873327791690826,0.020696543157100677,3.0771641731262207,1017.6455,
2021.02.11 15:02:28,45.0,17.0,-0.53999996,-21.3,-31.019999,-0.15323359,0.23463893,9.929058,0.0062137214,-5.4550264E-4,-6.230825E-5,-0.023624330759048462,0.015431616455316544,3.0920939445495605,1017.64307,
2021.02.11 15:02:29,45.0,17.0,-0.65999997,-21.42,-31.14,-0.22266756,0.2849187,10.082292,0.005602856,0.0025088235,0.0048246137,-0.02824491634964943,0.022081425413489342,3.076064348220825,1017.6384,
2021.02.11 15:02:29,45.0,17.0,-0.59999996,-21.3,-30.9,-0.17717634,0.29689008,9.91948,-0.0047818534,0.0031196887,-0.006781826,-0.029916301369667053,0.017859553918242455,3.0851027965545654,1017.6384,
2021.02.11 15:02:29,45.0,17.0,-0.78,-21.48,-31.26,-0.16281068,0.15562786,10.055954,0.022707082,0.008006611,-6.7317346E-4,-0.015472928993403912,0.016189061105251312,3.080416202545166,1017.64746,
2021.02.11 15:02:29,45.0,17.0,-0.9,-21.42,-30.96,-0.105348095,0.26097596,9.821315,0.022707082,0.02877603,0.018874513,-0.026564626023173332,0.010726064443588257,3.081829309463501,1017.64746,
2021.02.11 15:02:29,45.0,17.0,-1.02,-21.48,-30.84,-0.15562786,0.24182175,9.967366,-0.005392718,0.0049522845,0.014598457,-0.024253636598587036,0.015612471848726273,3.069282054901123,1017.64966,
2021.02.11 15:02:29,45.0,17.0,-1.1999999,-21.6,-30.779999,-0.14365649,0.30886146,10.008069,-5.0579646E-4,-0.0048215594,-0.0031166344,-0.030848277732729912,0.014353081583976746,3.0622262954711914,1017.6533,
2021.02.11 15:02:29,45.0,17.0,-1.1999999,-21.48,-30.66,-0.18196489,0.24421602,9.945818,-0.004170988,0.012282667,-0.015944805,-0.02454560622572899,0.018293578177690506,3.0568299293518066,1017.6533,
2021.02.11 15:02:29,45.0,17.0,-1.0799999,-21.66,-30.9,-0.23224466,0.27294734,10.108628,-0.010890506,6.762278E-4,-0.026329514,-0.026987746357917786,0.02297085151076317,3.0558512210845947,1017.65356,
2021.02.11 15:02:29,45.0,17.0,-0.65999997,-21.24,-30.9,-0.11971374,0.33519846,9.929058,-0.0029492574,0.0031196887,-0.013501343,-0.033744074404239655,0.012056323699653149,3.0904881954193115,1017.65356,
2021.02.11 15:02:29,45.0,17.0,-0.06,-21.359999,-30.72,-0.2370332,0.2753416,10.07032,-0.0017275269,0.00556315,-0.01899913,-0.027327515184879303,0.023533456027507782,3.1034467220306396,1017.6521,
2021.02.11 15:02:29,45.0,17.0,-0.35999998,-21.66,-30.72,-0.2777359,0.2561874,10.015251,-0.015777428,-0.010930212,-0.020831726,-0.025564327836036682,0.027724189683794975,3.0836057662963867,1017.656,
2021.02.11 15:02:29,45.0,17.0,-0.78,-21.42,-30.9,-0.07901107,0.29689008,9.885961,-0.0035601228,-5.4550264E-4,-0.0037274996,-0.030021505430340767,0.007992079481482506,3.091499090194702,1017.656,
2021.02.11 15:02:29,45.0,17.0,-0.35999998,-21.66,-30.96,-0.5147691,0.28731298,10.288198,-0.031659923,0.0037305541,-0.014723074,-0.027884339913725853,0.04999322071671486,3.0501363277435303,1017.65674,
2021.02.11 15:02:29,45.0,17.0,-0.59999996,-21.42,-30.779999,-0.50040346,0.42378664,10.472558,-0.026162136,0.017780455,-0.03549249,-0.040398284792900085,0.04774603620171547,3.0393621921539307,1017.65674,
2021.02.11 15:02:29,45.0,17.0,-0.24,-21.0,-30.599998,-0.26097596,0.31604427,9.565128,0.09173486,0.05443237,0.09278921,-0.033017002046108246,0.02727733738720417,3.0878632068634033,1017.6521,
2021.02.11 15:02:29,45.0,17.0,-0.24,-21.24,-30.66,-0.0670397,0.32801566,9.792584,0.12716503,0.048323717,0.12883025,-0.033483028411865234,0.006845858879387379,3.119326591491699,1017.6467,
2021.02.11 15:02:29,45.0,17.0,-0.59999996,-21.42,-30.779999,-0.083799616,0.30167863,10.163696,-0.112904996,0.013504398,0.03720047,-0.029672257602214813,0.008244807831943035,3.0999653339385986,1017.6467,
2021.02.11 15:02:30,45.0,17.0,-0.84,-21.48,-30.9,-0.10774237,0.2944958,10.008069,-0.0084470445,0.014726128,-0.024496919,-0.029415642842650414,0.01076513435691595,3.084628105163574,1017.6516,
2021.02.11 15:02:30,45.0,17.0,-0.71999997,-21.539999,-31.08,-0.7110996,0.045491222,9.117398,-0.004170988,0.03916074,-0.055651046,-0.004974348470568657,0.07783612608909607,2.996058940887451,1017.6516,
2021.02.11 15:02:30,45.0,17.0,-0.96,-21.539999,-30.779999,-0.21548474,0.1699935,10.544386,-0.060981456,-0.15814874,-0.040379412,-0.016116946935653687,0.020433124154806137,3.0662333965301514,1017.655,
2021.02.11 15:02:30,45.0,17.0,-0.71999997,-21.3,-30.48,-0.43336374,0.3304099,9.737515,-0.07197703,0.040993337,-0.07397701,-0.03388511762022972,0.04447520151734352,3.039543390274048,1017.65137,
