Time,X-cord,Y-cord,Mag_x,Mag_y,Mag_z,Acc_x,Acc_y,Acc_z,Gyro_x,Gyro_y,Gyro_z,Orn_x,Orn_y,Orn_z,Pressure,
2021.02.11 15:00:55,45.0,24.0,24.72,9.599999,-47.879997,-0.2777359,-0.09337672,10.015251,-0.022496944,0.09047342,-0.0049492302,0.009319600649178028,0.027724189683794975,-1.1979128122329712,1017.6858,
2021.02.11 15:00:55,45.0,24.0,24.84,9.54,-48.42,-0.16041641,-0.08858817,9.943423,-0.029216463,-0.011541077,-0.027551245,0.00890782754868269,0.01613151654601097,-1.2089712619781494,1017.6748,
2021.02.11 15:00:55,45.0,24.0,25.68,9.54,-49.68,-0.21309046,-0.16041641,10.285805,-0.026773002,-0.02131492,-0.028162109,0.015591293573379517,0.020713983103632927,-1.2294212579727173,1017.68286,
2021.02.11 15:00:55,45.0,24.0,26.46,9.3,-50.7,-0.24421602,-0.07422252,9.929058,-0.0017275269,0.01594786,-0.047709797,0.007472883444279432,0.02459113299846649,-1.2307943105697632,1017.68286,
2021.02.11 15:00:55,45.0,24.0,27.359999,8.639999,-51.3,-0.38068968,-0.15562786,10.029617,0.05630467,0.03549555,-0.021442592,0.015504421666264534,0.03793833777308464,-1.2717796564102173,1017.67554,
2021.02.11 15:00:55,45.0,24.0,27.779999,8.34,-51.48,-0.3974496,-0.062251143,10.082292,-0.0035601228,0.04954545,-0.06298143,0.006169434636831284,0.039400164037942886,-1.268800139427185,1017.67554,
2021.02.11 15:00:55,45.0,24.0,27.84,7.8599997,-51.42,-0.47167215,-0.0047885496,10.180456,-0.010890506,0.015336994,-0.044044606,4.698628908954561E-4,0.04629803076386452,-1.2719191312789917,1017.67993,
2021.02.11 15:00:55,45.0,24.0,27.48,7.74,-51.42,-0.47885495,-0.090982445,10.00328,0.017820163,-0.017038865,-0.008003556,0.009084607474505901,0.04783328250050545,-1.2880192995071411,1017.6853,
2021.02.11 15:00:55,45.0,24.0,27.18,7.8599997,-51.48,-0.2753416,-0.11253092,9.981731,0.07401976,0.00556315,0.015209323,0.011268923059105873,0.027577558532357216,-1.2955878973007202,1017.6853,
2021.02.11 15:00:55,45.0,24.0,27.599998,7.7999997,-52.079998,-0.33519846,-0.043096945,10.024829,0.025150543,0.009228341,0.024372302,0.004296592902392149,0.03342436999082565,-1.2857744693756104,1017.6843,
2021.02.11 15:00:55,45.0,24.0,27.24,8.099999,-52.32,-0.3519584,-0.05506832,10.202005,0.023928814,0.0049522845,0.035978742,0.005394532345235348,0.034485265612602234,-1.2726123332977295,1017.6843,
2021.02.11 15:00:55,45.0,24.0,27.119999,8.099999,-52.14,-0.30646718,-0.031125572,9.859624,0.020874487,0.0018979582,0.022539705,0.0031553374137729406,0.03107304312288761,-1.2690497636795044,1017.68164,
2021.02.11 15:00:56,45.0,24.0,27.18,8.099999,-51.96,-0.18435916,0.009577099,10.108628,0.033091795,-0.015206268,0.051861238,-9.472604724578559E-4,0.01823578029870987,-1.2695300579071045,1017.6802,
2021.02.11 15:00:56,45.0,24.0,27.3,7.98,-51.6,-0.20590763,0.076616794,10.060742,0.023928814,-0.025590979,0.032313548,-0.007613679859787226,0.02046358771622181,-1.2617676258087158,1017.6802,
2021.02.11 15:00:56,45.0,24.0,27.359999,7.68,-51.48,-0.22745611,0.083799616,9.835681,0.03858958,0.001287093,0.0023811527,-0.008517477661371231,0.023121487349271774,-1.2697341442108154,1017.6863,
2021.02.11 15:00:56,45.0,24.0,28.019999,7.62,-51.78,-0.4644893,0.038308397,10.2091875,0.022096219,0.011060937,-0.028162109,-0.003748450195416808,0.04546583071351051,-1.274789571762085,1017.6863,
2021.02.11 15:00:56,45.0,24.0,28.08,7.62,-52.079998,-0.30646718,0.04070267,10.230737,0.014154969,-0.001156368,-0.0177774,-0.0039766645058989525,0.029946578666567802,-1.2835711240768433,1017.68604,
2021.02.11 15:00:56,45.0,24.0,27.84,7.68,-51.899998,-0.27294734,0.10055954,9.804555,0.05630467,-0.017038865,0.003602883,-0.010252079926431179,0.02783164195716381,-1.2688056230545044,1017.68384,
2021.02.11 15:00:56,45.0,24.0,27.66,7.68,-51.66,-0.3232271,0.028731298,9.893144,0.033702657,0.008006611,-0.037935954,-0.0029026058036834,0.032660216093063354,-1.2777513265609741,1017.68384,
2021.02.11 15:00:56,45.0,24.0,27.3,7.3199997,-51.66,-0.42618093,0.09337672,10.089474,-0.004170988,0.0049522845,-0.033049032,-0.00924635585397482,0.04221506044268608,-1.2691740989685059,1017.68384,
2021.02.11 15:00:56,45.0,24.0,27.3,7.02,-51.84,-0.45491222,0.05027977,10.032011,-0.0060035833,-0.0017672331,0.0066572092,-0.005006746388971806,0.04531502351164818,-1.286411166191101,1017.68384,
2021.02.11 15:00:56,45.0,24.0,26.939999,7.14,-51.96,-0.31365,0.102953814,9.727939,0.008046317,-0.0029889636,0.007878941,-0.010577421635389328,0.03223102167248726,-1.2748905420303345,1017.6797,
2021.02.11 15:00:56,45.0,24.0,27.119999,7.3799996,-51.84,-0.45730647,0.062251143,10.199611,-0.039601173,-0.0029889636,0.009711536,-0.006097085773944855,0.04480566829442978,-1.269304633140564,1017.68604,
2021.02.11 15:00:56,45.0,24.0,27.3,6.8999996,-52.02,-0.30167863,0.11492519,10.082292,-0.028605599,-0.001156368,0.0042137485,-0.011393126100301743,0.029912706464529037,-1.2871421575546265,1017.68604,
2021.02.11 15:00:56,45.0,24.0,27.3,6.96,-51.719997,-0.4836435,-0.0023942748,10.022434,0.0025485298,6.762278E-4,0.0054354793,2.386138803558424E-4,0.04821868613362312,-1.2974038124084473,1017.6814,
2021.02.11 15:00:56,45.0,24.0,27.0,6.96,-51.899998,-0.34477556,0.06464542,9.842864,0.0019376645,0.0031196887,0.023761436,-0.006563624832779169,0.03501365706324577,-1.2882392406463623,1017.67896,
2021.02.11 15:00:56,45.0,24.0,26.82,6.96,-52.26,-0.55786604,-0.11253092,9.976943,-0.027383868,0.006174015,0.014598457,0.011261031031608582,0.05585736408829689,-1.3104950189590454,1017.67896,
2021.02.11 15:00:56,45.0,24.0,26.46,7.68,-51.899998,-0.035914123,0.1699935,10.091868,-0.012112236,0.017780455,0.047585182,-0.016842903569340706,0.0035587039310485125,-1.2560420036315918,1017.6836,
2021.02.11 15:00:56,45.0,24.0,26.4,7.74,-51.42,-0.1699935,0.12689656,10.192428,-0.039601173,-0.009097616,0.01948538,-0.012447708286345005,0.01667686551809311,-1.2535672187805176,1017.6836,
2021.02.11 15:00:57,45.0,24.0,26.58,7.5,-51.12,-0.29928434,0.0023942748,9.857229,0.014154969,0.014726128,0.002992018,-2.4278342607431114E-4,0.03035258874297142,-1.279057502746582,1017.68066,
2021.02.11 15:00:57,45.0,24.0,27.0,7.56,-51.0,-0.36392978,0.076616794,10.235525,0.0013267993,0.01961305,-0.040379412,-0.00748051330447197,0.03554058447480202,-1.2649332284927368,1017.6787,
2021.02.11 15:00:57,45.0,24.0,27.42,7.56,-50.7,-0.31365,0.05027977,9.895537,0.04469823,0.023278242,-0.03060557,-0.005078461021184921,0.03168549761176109,-1.2764387130737305,1017.6787,
2021.02.11 15:00:57,45.0,24.0,27.48,7.5,-50.94,-0.42378664,0.038308397,10.017646,0.02820487,0.0031196887,-0.04343374,-0.00382065586745739,0.04227880761027336,-1.2754241228103638,1017.6843,
2021.02.11 15:00:57,45.0,24.0,27.66,7.62,-51.18,-0.43815228,0.04070267,10.075109,0.0153767,0.010450072,-0.0458772,-0.004036087077111006,0.043461207300424576,-1.271843671798706,1017.6843,
2021.02.11 15:00:57,45.0,24.0,27.06,7.2599998,-50.94,-0.42139238,0.052674048,10.130177,0.0153767,0.0025088235,-0.042822875,-0.00519517669454217,0.04157376289367676,-1.2773408889770508,1017.6753,
2021.02.11 15:00:57,45.0,24.0,26.939999,7.02,-51.36,-0.3974496,0.15083931,9.809344,0.037367847,0.0073957457,-0.019609997,-0.015363289974629879,0.04049529880285263,-1.2656306028366089,1017.6753,
2021.02.11 15:00:57,45.0,24.0,26.88,7.08,-51.78,-0.47885495,0.105348095,10.10384,0.0062137214,-0.007875886,-0.028162109,-0.010414473712444305,0.04735792800784111,-1.2676516771316528,1017.6765,
2021.02.11 15:00:57,45.0,24.0,26.64,6.8399997,-51.66,-0.45251793,0.15083931,9.974549,0.02453968,0.012893532,-0.013501343,-0.015105731785297394,0.04533616825938225,-1.265953779220581,1017.68286,
2021.02.11 15:00:57,45.0,24.0,26.58,7.2599998,-51.42,-0.4836435,0.13886794,9.938635,0.025150543,0.012282667,-0.01899913,-0.013955116271972656,0.048624616116285324,-1.2498846054077148,1017.68286,
2021.02.11 15:00:57,45.0,24.0,26.22,7.8599997,-51.0,-0.44294083,0.16041641,10.099051,0.011711509,0.0043414193,-0.0031166344,-0.01586771570146084,0.04383155703544617,-1.2230242490768433,1017.6863,
2021.02.11 15:00:57,45.0,24.0,26.22,7.8599997,-50.82,-0.34956414,0.21787901,10.060742,7.1593403E-4,0.008617477,-0.012279614,-0.02163991704583168,0.034731391817331314,-1.218785285949707,1017.6863,
2021.02.11 15:00:57,45.0,24.0,26.099998,7.98,-50.76,-0.4070267,0.15323359,9.8787775,0.026372274,6.762278E-4,-0.0018949041,-0.015497000887989998,0.04117884114384651,-1.2198683023452759,1017.68164,
2021.02.11 15:00:57,45.0,24.0,26.4,7.74,-50.879997,-0.45970076,0.12929083,9.996098,0.023928814,0.008617477,-0.009225287,-0.012919756583869457,0.04595564305782318,-1.2341395616531372,1017.68115,
2021.02.11 15:00:57,45.0,24.0,26.4,7.62,-50.879997,-0.38308397,0.2083019,10.060742,0.0062137214,0.0025088235,-0.0031166344,-0.020686481148004532,0.03805872052907944,-1.229205846786499,1017.68115,
2021.02.11 15:00:57,45.0,24.0,26.4,7.56,-50.579998,-0.38547826,0.16759923,9.885961,-0.0035601228,-0.024369247,-0.0055600954,-0.016938762739300728,0.038972750306129456,-1.2381715774536133,1017.68286,
2021.02.11 15:00:57,45.0,24.0,26.76,7.62,-50.46,-0.44054657,0.15802214,9.979338,0.020874487,-0.009708482,-0.008614422,-0.01581820473074913,0.04411722719669342,-1.2393250465393066,1017.68286,
2021.02.11 15:00:58,45.0,24.0,26.4,7.74,-50.64,-0.28013015,0.25379312,10.075109,-0.034714248,-0.00726502,-0.024496919,-0.0251750610768795,0.027797019109129906,-1.2239439487457275,1017.68066,
2021.02.11 15:00:58,45.0,24.0,25.98,7.7999997,-49.86,-0.30167863,0.25139886,10.008069,0.04103304,-0.0048215594,0.003602883,-0.02510293759405613,0.03013441525399685,-1.215851068496704,1017.6848,
2021.02.11 15:00:58,45.0,24.0,25.38,7.7999997,-49.379997,-0.3974496,0.23463893,10.122993,-0.012112236,0.006174015,-0.052596718,-0.023156823590397835,0.039241909980773926,-1.205314040184021,1017.6848,
2021.02.11 15:00:58,45.0,24.0,24.84,8.28,-48.78,-0.59378016,0.12929083,10.10384,0.008046317,0.025110837,-0.06420316,-0.01277347281575203,0.058700259774923325,-1.1845749616622925,1017.68506,
2021.02.11 15:00:58,45.0,24.0,24.48,8.639999,-48.6,-0.55307746,0.19633053,9.98652,0.005602856,0.008006611,-0.05381845,-0.019626954570412636,0.055325884371995926,-1.1545571088790894,1017.68506,
2021.02.11 15:00:58,45.0,24.0,24.66,8.639999,-48.6,-0.4836435,0.16041641,9.981731,0.012933239,-0.0066541554,0.0017702875,-0.0160507895052433,0.04841500148177147,-1.170121431350708,1017.6831,
2021.02.11 15:00:58,45.0,24.0,24.84,9.0,-48.899998,-0.36632404,0.17478207,10.099051,0.0043811253,-0.028645303,0.018874513,-0.01729368232190609,0.036257218569517136,-1.1666284799575806,1017.6863,
2021.02.11 15:00:58,45.0,24.0,24.9,8.7,-48.96,-0.3328042,0.18196489,9.869201,0.0153767,-0.03414309,0.030480953,-0.018425093963742256,0.03370872139930725,-1.1784303188323975,1017.6863,
2021.02.11 15:00:58,45.0,24.0,24.6,8.7,-48.6,-0.45730647,0.10774237,10.106234,-0.0011166617,-0.029867034,0.0072680744,-0.010649681091308594,0.045219093561172485,-1.179656982421875,1017.68823,
2021.02.11 15:00:58,45.0,24.0,24.539999,8.58,-48.96,-0.26097596,0.25379312,10.015251,0.0062137214,-0.0304779,0.034146145,-0.025326648727059364,0.0260519590228796,-1.1707866191864014,1017.68823,
2021.02.11 15:00:58,45.0,24.0,24.48,8.46,-48.84,-0.31843856,0.28970724,9.967366,-5.0579646E-4,-0.026812708,0.018874513,-0.02904258668422699,0.03193725273013115,-1.1629966497421265,1017.68823,
2021.02.11 15:00:58,45.0,24.0,24.42,8.5199995,-49.2,-0.3519584,0.30646718,10.125388,0.023317948,0.00678488,0.026204897,-0.030239714309573174,0.03474599868059158,-1.1547349691390991,1017.68335,
2021.02.11 15:00:58,45.0,24.0,24.72,8.22,-48.96,-0.21309046,0.23224466,9.945818,0.040422175,-0.025590979,0.024983168,-0.023341387510299683,0.021421855315566063,-1.1937074661254883,1017.68335,
2021.02.11 15:00:58,45.0,24.0,24.9,8.22,-48.66,-0.28731298,0.2657645,9.866806,0.05386121,-0.0054324246,0.03720047,-0.026917295530438423,0.029110921546816826,-1.1845605373382568,1017.6863,
2021.02.11 15:00:58,45.0,24.0,24.66,7.8599997,-48.66,-0.23463893,0.30886146,10.07032,7.1593403E-4,-0.013984538,0.007878941,-0.030652545392513275,0.023295830935239792,-1.1918710470199585,1017.6863,
2021.02.11 15:00:58,45.0,24.0,24.66,7.8599997,-48.48,-0.25139886,0.34716985,10.039194,-0.023718676,-0.021925787,0.0066572092,-0.03455684334039688,0.025036506354808807,-1.1838465929031372,1017.6836,
2021.02.11 15:00:59,45.0,24.0,24.6,7.7999997,-48.78,-0.45012367,0.18435916,10.127783,0.012322374,0.0031196887,-0.006781826,-0.018183354288339615,0.04441521689295769,-1.2003052234649658,1017.6797,
2021.02.11 15:00:59,45.0,24.0,24.18,7.7999997,-49.079998,-0.37590113,0.23224466,10.340873,-0.01150137,0.016558724,-0.0318273,-0.022440312430262566,0.03633500635623932,-1.1916059255599976,1017.6797,
2021.02.11 15:00:59,45.0,24.0,24.48,7.98,-48.96,-0.29928434,0.2466103,9.9889145,0.039200444,-0.026201842,0.038422205,-0.024672316387295723,0.02995268814265728,-1.1902207136154175,1017.6843,
2021.02.11 15:00:59,45.0,24.0,24.0,8.16,-48.899998,-0.43096948,0.19154198,9.749487,0.070354566,-0.032310497,0.05796989,-0.019624680280685425,0.044175561517477036,-1.1741547584533691,1017.6843,
2021.02.11 15:00:59,45.0,24.0,24.0,7.98,-48.78,-0.10774237,0.40463245,9.926663,0.033702657,-0.0066541554,0.10073046,-0.04073723033070564,0.010853409767150879,-1.1690669059753418,1017.6843,
2021.02.11 15:00:59,45.0,24.0,24.119999,7.56,-48.84,-0.18196489,0.31604427,10.139753,-0.006614449,0.0018979582,0.057359025,-0.031153732910752296,0.017943765968084335,-1.1979191303253174,1017.67993,
2021.02.11 15:00:59,45.0,24.0,23.76,7.14,-49.079998,-0.24421602,0.40223816,9.924269,0.042865634,-0.057355974,0.06346768,-0.0404963418841362,0.024602996185421944,-1.1854791641235352,1017.67993,
2021.02.11 15:00:59,45.0,24.0,24.119999,6.96,-49.62,-0.07422252,0.44054657,10.022434,0.011100643,-0.015206268,0.0543047,-0.04392656311392784,0.007405502256006002,-1.20345139503479,1017.67944,
2021.02.11 15:00:59,45.0,24.0,24.18,7.08,-49.5,-0.12929083,0.4070267,10.000886,-0.0060035833,0.0049522845,0.0017702875,-0.04067322239279747,0.012927218340337276,-1.2019085884094238,1017.67944,
2021.02.11 15:00:59,45.0,24.0,24.0,7.3799996,-49.26,-0.24421602,0.3423813,10.051166,-5.0579646E-4,-0.009708482,-0.032438166,-0.03404063358902931,0.02429250441491604,-1.1920673847198486,1017.6719,
2021.02.11 15:00:59,45.0,24.0,24.119999,7.9199996,-49.559998,-0.20351335,0.34477556,9.981731,-0.004170988,-5.4550264E-4,-0.033049032,-0.03451975807547569,0.020385757088661194,-1.1754382848739624,1017.68066,
2021.02.11 15:00:59,45.0,24.0,24.18,7.7999997,-49.68,-0.16759923,0.3519584,10.010463,0.007435452,0.0018979582,-0.018388266,-0.03513965755701065,0.016740841791033745,-1.182318925857544,1017.68066,
2021.02.11 15:00:59,45.0,24.0,24.24,7.9199996,-49.86,-0.17717634,0.38068968,9.8787775,0.0049919905,-0.003599829,-0.013501343,-0.03851086646318436,0.01793312467634678,-1.1714729070663452,1017.68164,
2021.02.11 15:00:59,45.0,24.0,24.539999,7.5,-50.1,-0.21069619,0.31843856,10.163696,-0.01150137,6.536258E-5,-0.025718648,-0.03131401166319847,0.020727304741740227,-1.202013611793518,1017.68164,
2021.02.11 15:00:59,45.0,24.0,24.779999,7.08,-49.86,-0.22745611,0.34716985,9.905115,-0.018831754,-0.0054324246,-0.022664322,-0.035025984048843384,0.02295946329832077,-1.212754726409912,1017.6853,
2021.02.11 15:00:59,45.0,24.0,24.96,7.3799996,-48.96,-0.17238778,0.34477556,9.948212,0.011711509,-0.0048215594,-0.009225287,-0.03463797643780708,0.017326785251498222,-1.210377812385559,1017.68384,
2021.02.11 15:00:59,45.0,24.0,25.019999,7.14,-49.2,-0.24182175,0.3519584,9.98652,-0.009668776,0.001287093,-0.011057883,-0.03521845117211342,0.024210086092352867,-1.213658332824707,1017.68384,
2021.02.11 15:01:00,45.0,24.0,24.6,7.3199997,-48.96,-0.19154198,0.34477556,9.90272,-0.0023383922,-0.0066541554,0.002992018,-0.03479568660259247,0.019339948892593384,-1.2058550119400024,1017.6841,
2021.02.11 15:01:00,45.0,24.0,24.3,7.5,-49.02,-0.2083019,0.3040729,10.113417,-0.01150137,-0.0029889636,0.010322401,-0.030050862580537796,0.020593678578734398,-1.2025649547576904,1017.6841,
2021.02.11 15:01:00,45.0,24.0,24.119999,6.8999996,-49.26,-0.05027977,0.36632404,9.893144,-0.0017275269,-0.0029889636,0.013376727,-0.03701068460941315,0.005082240793853998,-1.2204440832138062,1017.677,
2021.02.11 15:01:00,45.0,24.0,23.699999,7.08,-49.26,-0.1340794,0.2777359,10.077502,-0.013333966,-0.00726502,-0.0025057693,-0.027550581842660904,0.013304038904607296,-1.219584584236145,1017.6763,
2021.02.11 15:01:00,45.0,24.0,23.64,7.3799996,-49.379997,-0.23224466,0.30646718,10.034406,-0.015166562,0.001287093,-0.01655567,-0.03052397631108761,0.02314070053398609,-1.1939958333969116,1017.6763,
2021.02.11 15:01:00,45.0,24.0,23.939999,7.2599998,-49.5,-0.15562786,0.30646718,9.972155,-0.0017275269,-0.00604329,-0.0055600954,-0.030718883499503136,0.015604975633323193,-1.2081912755966187,1017.67725,
2021.02.11 15:01:00,45.0,24.0,23.88,7.5,-49.5,-0.18435916,0.30167863,10.07032,-0.0035601228,0.006174015,-0.013501343,-0.029943231493234634,0.018305134028196335,-1.1976876258850098,1017.67725,
2021.02.11 15:01:00,45.0,24.0,23.88,7.5,-49.379997,-0.21787901,0.339987,9.945818,-0.0035601228,-0.0066541554,-0.015944805,-0.03416242077946663,0.02190309204161167,-1.187170386314392,1017.67163,
2021.02.11 15:01:00,45.0,24.0,23.939999,7.44,-49.379997,-0.20111908,0.3040729,10.008069,0.0062137214,-0.0029889636,-0.01899913,-0.030367303639650345,0.02009298838675022,-1.1988496780395508,1017.6775,
2021.02.11 15:01:00,45.0,24.0,23.22,7.62,-49.32,-0.15323359,0.33759275,10.046377,-0.01150137,0.0025088235,-0.022664322,-0.03358688950538635,0.01525143813341856,-1.1789244413375854,1017.6775,
2021.02.11 15:01:00,45.0,24.0,23.22,7.9199996,-49.079998,-0.12929083,0.2849187,10.0439825,0.0025485298,0.0073957457,-0.015944805,-0.02835715003311634,0.012871756218373775,-1.1795649528503418,1017.68677,
2021.02.11 15:01:00,45.0,24.0,23.64,8.04,-49.379997,-0.17957062,0.29689008,9.924269,0.003159395,-0.001156368,-0.025107782,-0.02990175038576126,0.018092116340994835,-1.1741664409637451,1017.68677,
2021.02.11 15:01:00,45.0,24.0,23.88,8.04,-49.079998,-0.21787901,0.30167863,9.953,-0.0060035833,0.0018979582,-0.037935954,-0.030293788760900497,0.021887293085455894,-1.1745740175247192,1017.69214,
2021.02.11 15:01:00,45.0,24.0,24.24,8.04,-48.96,-0.21309046,0.26097596,10.096657,-0.0047818534,6.536258E-5,-0.025718648,-0.02583625353872776,0.021101918071508408,-1.1890110969543457,1017.6926,
2021.02.11 15:01:00,45.0,24.0,23.82,7.98,-49.14,-0.083799616,0.31125572,9.893144,-0.012723101,0.0025088235,-0.026329514,-0.03145026043057442,0.008470271714031696,-1.1841760873794556,1017.6926,
2021.02.11 15:01:00,45.0,24.0,23.46,7.7999997,-48.719997,-0.19393626,0.2944958,10.029617,-0.013333966,0.008617477,-0.03854682,-0.029348697513341904,0.01933394744992256,-1.1813676357269287,1017.68677,
2021.02.11 15:01:01,45.0,24.0,23.16,7.8599997,-49.079998,-0.24182175,0.2657645,9.974549,-0.016388291,0.0049522845,-0.044044606,-0.026630138978362083,0.024239130318164825,-1.1749541759490967,1017.68677,
2021.02.11 15:01:01,45.0,24.0,22.98,8.22,-49.079998,-0.19393626,0.27055305,9.996098,0.003159395,0.0018979582,-0.010447018,-0.02705417387187481,0.0193987637758255,-1.1613962650299072,1017.68115,
2021.02.11 15:01:01,45.0,24.0,23.16,8.099999,-49.14,-0.1699935,0.2753416,10.027223,-0.007836179,-0.0023780984,5.48557E-4,-0.027448564767837524,0.01695157401263714,-1.1701174974441528,1017.6819,
2021.02.11 15:01:01,45.0,24.0,23.039999,8.22,-49.379997,-0.20111908,0.26097596,9.991309,-0.016999159,6.536258E-5,0.002992018,-0.02610906958580017,0.02012668363749981,-1.163156270980835,1017.6819,
2021.02.11 15:01:01,45.0,24.0,23.039999,8.04,-49.559998,-0.16759923,0.2849187,10.034406,-0.015777428,0.008617477,0.003602883,-0.028382591903209686,0.016700902953743935,-1.1683515310287476,1017.68335,
2021.02.11 15:01:01,45.0,24.0,23.34,7.68,-49.379997,-0.19393626,0.23463893,10.099051,-0.016999159,-0.004210694,0.002992018,-0.023225300014019012,0.01920105330646038,-1.194925308227539,1017.68335,
2021.02.11 15:01:01,45.0,24.0,23.16,7.5,-49.379997,-0.08858817,0.25139886,10.00328,-0.0029492574,-0.004210694,0.01826365,-0.025125371292233467,0.00885568093508482,-1.2034636735916138,1017.6885,
2021.02.11 15:01:01,45.0,24.0,23.279999,7.2,-49.14,-0.1699935,0.1987248,9.835681,-0.004170988,0.011671803,-0.010447018,-0.02019871398806572,0.017281627282500267,-1.2203091382980347,1017.68604,
2021.02.11 15:01:01,45.0,24.0,23.039999,7.14,-48.96,-0.2944958,0.2083019,10.156514,-0.0408229,0.010450072,-0.028162109,-0.020497703924775124,0.02898763306438923,-1.2099570035934448,1017.68604,
2021.02.11 15:01:01,45.0,24.0,23.34,7.3799996,-48.96,-0.22985038,0.24900457,10.115811,0.02576141,0.008617477,0.020096244,-0.02460406720638275,0.02271798439323902,-1.2017364501953125,1017.68823,
2021.02.11 15:01:01,45.0,24.0,23.46,7.62,-49.2,-0.098165266,0.28731298,9.838076,0.021485351,0.014726128,0.012765861,-0.029194431379437447,0.009977765381336212,-1.195084571838379,1017.68994,
2021.02.11 15:01:01,45.0,24.0,23.519999,7.98,-49.32,-0.2681588,0.18435916,9.941029,0.009878913,0.04404766,-0.020831726,-0.018536413088440895,0.026968413963913918,-1.189062237739563,1017.68994,
2021.02.11 15:01:01,45.0,24.0,23.88,8.46,-49.2,-0.531529,0.102953814,10.142148,-0.044488095,0.019002186,-0.03976855,-0.01013682596385479,0.05236003175377846,-1.1717349290847778,1017.687,
2021.02.11 15:01:01,45.0,24.0,23.46,8.46,-49.2,-0.12210801,0.33759275,9.950606,-0.007225314,0.022667378,0.039033066,-0.03391129523515701,0.012270798906683922,-1.1534740924835205,1017.687,
2021.02.11 15:01:01,45.0,24.0,23.88,8.34,-48.719997,-0.117319465,0.21787901,9.883567,0.016598431,0.06603881,0.037811335,-0.022039450705051422,0.011869596317410469,-1.1866766214370728,1017.68555,
2021.02.11 15:01:01,45.0,24.0,23.34,8.46,-48.6,-0.7901107,0.19393626,9.368797,-0.038990308,0.03549555,-0.052596718,-0.020624082535505295,0.08413518965244293,-1.110880970954895,1017.68555,
2021.02.11 15:01:01,45.0,24.0,23.699999,8.099999,-48.42,-0.3902668,0.057462595,10.407912,-0.11962452,-0.08667751,-0.028162109,-0.005517115816473961,0.037479568272829056,-1.205194354057312,1017.6826,
2021.02.11 15:01:02,45.0,24.0,23.939999,7.98,-48.36,-0.6296943,0.22745611,9.699207,-0.07747482,0.04282593,-0.028772974,-0.02339746430516243,0.06483125686645508,-1.1558781862258911,1017.6826,
