Time,X-cord,Y-cord,Mag_x,Mag_y,Mag_z,Acc_x,Acc_y,Acc_z,Gyro_x,Gyro_y,Gyro_z,Orn_x,Orn_y,Orn_z,Pressure,
2021.02.11 16:23:22,40.0,25.0,-30.96,-15.0,-43.26,-0.42139238,-0.043096945,8.590658,0.12258844,0.19270721,0.08266595,0.005010655615478754,0.04901311174035072,2.002166509628296,1016.22144,
2021.02.11 16:23:22,40.0,25.0,-30.599998,-14.34,-43.62,0.19633053,0.019154198,9.440625,-0.23232426,-0.17197934,0.063118264,-0.002028470626100898,-0.020793352276086807,2.018336057662964,1016.22144,
2021.02.11 16:23:22,40.0,25.0,-30.179998,-14.5199995,-44.28,-0.24182175,0.102953814,10.2642565,-0.19872668,-0.117612325,-0.024235468,-0.010027204640209675,0.023555241525173187,1.9946082830429077,1016.2346,
2021.02.11 16:23:22,40.0,25.0,-28.98,-15.12,-44.879997,-0.08858817,0.021548472,10.216371,-0.1315315,-0.0443085,-0.09326324,-0.0021091278176754713,0.008670980110764503,2.0437116622924805,1016.2346,
2021.02.11 16:23:22,40.0,25.0,-28.26,-15.059999,-46.079998,-0.11492519,-0.18435916,10.07032,-0.08693834,-0.032702062,-0.105480544,0.018303943797945976,0.011411772109568119,2.0753374099731445,1016.23706,
2021.02.11 16:23:22,40.0,25.0,-28.08,-15.66,-46.68,0.031125572,-0.20351335,9.921875,0.0101892315,-0.04675196,-0.11036747,0.020508604124188423,-0.003137055318802595,2.1074094772338867,1016.2378,
2021.02.11 16:23:22,40.0,25.0,-27.72,-16.14,-46.559998,-0.32083282,-0.18196489,10.180456,-0.017299704,-0.024760813,-0.13358036,0.01786317303776741,0.031504154205322266,2.097221851348877,1016.2378,
2021.02.11 16:23:22,40.0,25.0,-28.08,-15.96,-46.8,-0.38308397,0.04070267,9.821315,0.11464719,0.023497544,-0.08410027,-0.004141147248446941,0.03898560255765915,2.0564000606536865,1016.23413,
2021.02.11 16:23:22,40.0,25.0,-27.84,-16.5,-46.92,-0.6249057,-0.14605077,10.520444,0.06455623,0.10718608,-0.13907814,0.013857253827154636,0.05932946503162384,2.0813746452331543,1016.23413,
2021.02.11 16:23:22,40.0,25.0,-27.66,-16.74,-46.8,-0.5123748,0.071828246,9.684841,0.17084679,0.109018676,0.024633752,-0.007406070828437805,0.05285554751753807,2.0698719024658203,1016.2322,
2021.02.11 16:23:22,40.0,25.0,-27.599998,-16.8,-46.98,-0.15323359,0.10774237,10.202005,0.09204517,0.06320378,0.034407597,-0.010559317655861378,0.015018818899989128,2.093520164489746,1016.228,
2021.02.11 16:23:22,40.0,25.0,-27.3,-17.1,-46.68,-0.14844504,0.61293435,9.694419,0.097542964,0.04976475,0.030131537,-0.06313405930995941,0.015311225317418575,2.0384843349456787,1016.228,
2021.02.11 16:23:23,40.0,25.0,-27.0,-17.039999,-46.2,-0.4740664,0.36871833,10.235525,0.0388999,0.0027281241,-0.04805921,-0.03596929460763931,0.04628271237015724,2.057798385620117,1016.2339,
2021.02.11 16:23:23,40.0,25.0,-27.0,-16.92,-46.26,-0.6057515,0.18675344,10.132571,0.08654739,0.019221485,-0.037063636,-0.018396079540252686,0.05971153825521469,2.0672988891601562,1016.2339,
2021.02.11 16:23:23,40.0,25.0,-26.82,-16.98,-46.2,-0.64166564,-0.04070267,9.821315,0.090212576,0.024719272,-0.002855184,0.004135479219257832,0.0652412623167038,2.0937070846557617,1016.229,
2021.02.11 16:23:23,40.0,25.0,-26.76,-17.279999,-46.26,-0.46927786,0.09337672,9.45978,0.024239134,0.0039498545,0.06556172,-0.00985847506672144,0.04956705868244171,2.096525192260742,1016.2273,
2021.02.11 16:23:23,40.0,25.0,-27.24,-17.4,-46.44,-0.22266756,0.43336374,10.314536,-0.051508155,-0.054082345,0.074724704,-0.04198038950562477,0.021584391593933105,2.0717620849609375,1016.2273,
2021.02.11 16:23:23,40.0,25.0,-27.24,-17.82,-46.32,-0.13168511,0.33759275,9.924269,0.02851519,-0.06996484,0.00936212,-0.034000784158706665,0.013268220238387585,2.098881959915161,1016.23047,
2021.02.11 16:23:23,40.0,25.0,-27.119999,-17.82,-46.379997,-0.46209505,0.13886794,10.230737,-0.051508155,-0.044919364,-0.02790066,-0.013558945618569851,0.04513665288686752,2.103513479232788,1016.23047,
2021.02.11 16:23:23,40.0,25.0,-27.42,-17.52,-45.84,-0.2681588,0.17957062,9.830893,0.002247984,-0.03881071,0.009972986,-0.018257133662700653,0.027270393446087837,2.098245859146118,1016.23047,
2021.02.11 16:23:23,40.0,25.0,-27.24,-17.4,-45.84,-0.27055305,0.09337672,9.993703,-0.0130236475,-0.026593406,-0.002244319,-0.009339861571788788,0.027065740898251534,2.108520746231079,1016.23267,
2021.02.11 16:23:23,40.0,25.0,-27.119999,-17.16,-45.6,-0.19154198,0.22266756,10.041589,-0.004471534,0.008225911,-0.007742106,-0.022166872397065163,0.019072556868195534,2.0943875312805176,1016.23267,
2021.02.11 16:23:23,40.0,25.0,-27.599998,-17.039999,-45.18,-0.21069619,0.34477556,10.0368,0.013854424,-0.018041294,-0.042561423,-0.034330081194639206,0.02098928391933441,2.0682783126831055,1016.23486,
2021.02.11 16:23:23,40.0,25.0,-27.66,-16.92,-45.42,-0.32083282,0.27294734,10.180456,0.008356637,-0.022928217,-0.050502673,-0.026791200041770935,0.031504154205322266,2.06645131111145,1016.23486,
2021.02.11 16:23:23,40.0,25.0,-27.599998,-17.1,-45.3,-0.38308397,0.27055305,9.897932,0.059058454,-0.058969267,-0.0065203756,-0.027307063341140747,0.03868412971496582,2.0671939849853516,1016.2278,
2021.02.11 16:23:23,40.0,25.0,-27.779999,-17.1,-45.48,-0.2657645,0.3423813,9.888355,0.0688323,-0.08034955,0.011805582,-0.03459838405251503,0.026870043948292732,2.062915563583374,1016.229,
2021.02.11 16:23:23,40.0,25.0,-27.84,-17.22,-45.6,-0.1987248,0.3519584,9.979338,0.02851519,-0.025371678,0.02219029,-0.03524711728096008,0.019910994917154312,2.068655490875244,1016.229,
2021.02.11 16:23:23,40.0,25.0,-28.14,-17.46,-45.48,-0.21069619,0.36392978,10.0200405,0.015076155,-0.0064348546,0.014859908,-0.036296214908361435,0.02102437987923622,2.068889617919922,1016.22437,
2021.02.11 16:23:23,40.0,25.0,-28.26,-17.22,-45.6,-0.12689656,0.409421,9.953,-0.002638938,2.846632E-4,0.024633752,-0.04110892117023468,0.012748888693749905,2.0598232746124268,1016.22437,
2021.02.11 16:23:24,40.0,25.0,-28.5,-17.46,-45.36,-0.15083931,0.45491222,10.051166,4.1538838E-4,-3.2620205E-4,0.014249043,-0.045223698019981384,0.015006020665168762,2.0567362308502197,1016.2241,
2021.02.11 16:23:24,40.0,25.0,-28.38,-17.22,-45.18,-0.16520496,0.4285752,10.022434,0.026071727,-3.2620205E-4,0.013027312,-0.042729754000902176,0.016482023522257805,2.0544095039367676,1016.2273,
2021.02.11 16:23:24,40.0,25.0,-28.199999,-16.859999,-45.36,-0.090982445,0.4644893,9.909904,0.02851519,-0.011321777,0.012416447,-0.046834979206323624,0.009180703200399876,2.046184539794922,1016.2273,
2021.02.11 16:23:24,40.0,25.0,-28.56,-17.039999,-44.579998,-0.24182175,0.45251793,9.881172,0.0016371189,0.017999755,-0.032176714,-0.045750319957733154,0.02446809783577919,2.0396883487701416,1016.2241,
2021.02.11 16:23:24,40.0,25.0,-28.38,-16.5,-44.7,-0.15562786,0.4836435,10.182851,4.1538838E-4,-0.0064348546,-0.016905084,-0.04745468497276306,0.015282140113413334,2.0303595066070557,1016.2241,
2021.02.11 16:23:24,40.0,25.0,-28.32,-17.1,-45.0,-0.23224466,0.4644893,9.799767,0.023628267,0.007615046,-0.013850759,-0.04734927788376808,0.023694563657045364,2.042422294616699,1016.2317,
2021.02.11 16:23:24,40.0,25.0,-28.32,-17.4,-44.879997,-0.27294734,0.3328042,10.017646,-0.0020280725,-0.00826745,-0.013239893,-0.033197272568941116,0.02723991498351097,2.0653982162475586,1016.23145,
2021.02.11 16:23:24,40.0,25.0,-28.199999,-17.52,-45.539997,-0.25139886,0.37350687,10.218765,-0.010580186,-0.018652158,0.024633752,-0.03652377426624298,0.024596726521849632,2.0670652389526367,1016.23145,
2021.02.11 16:23:24,40.0,25.0,-28.439999,-17.88,-45.539997,-0.08140534,0.42139238,9.742304,0.01935221,-0.034534656,0.04295971,-0.043225422501564026,0.008355666883289814,2.075104236602783,1016.2344,
2021.02.11 16:23:24,40.0,25.0,-28.74,-17.34,-45.36,-0.08619389,0.3328042,9.96976,-0.036847394,-0.034534656,0.016692502,-0.03336773067712784,0.008645317517220974,2.068441390991211,1016.2344,
2021.02.11 16:23:24,40.0,25.0,-28.74,-17.039999,-45.3,0.04070267,0.505192,10.000886,-0.020964894,-0.0058239894,0.015470773,-0.05047140270471573,-0.004069884307682514,2.046952962875366,1016.2307,
2021.02.11 16:23:24,40.0,25.0,-28.92,-16.619999,-45.059998,-0.12210801,0.409421,10.35045,-0.041123446,-0.01987389,-0.015072489,-0.039532508701086044,0.011796815320849419,2.037562608718872,1016.2324,
2021.02.11 16:23:24,40.0,25.0,-28.68,-16.859999,-45.12,-0.12210801,0.4764607,9.732727,-0.006304129,-0.016208699,-0.007742106,-0.04891159385442734,0.012545467354357243,2.0352559089660645,1016.2324,
2021.02.11 16:23:24,40.0,25.0,-28.98,-16.92,-45.0,-0.17957062,0.29689008,10.0200405,-0.011801916,-0.011932642,-0.002855184,-0.029616206884384155,0.017919227480888367,2.053196668624878,1016.2383,
2021.02.11 16:23:24,40.0,25.0,-29.039999,-17.039999,-45.0,0.016759925,0.47167215,9.90272,-0.00874759,-9.3706726E-4,0.0026426031,-0.047594524919986725,-0.001692454912699759,2.045308828353882,1016.2405,
2021.02.11 16:23:24,40.0,25.0,-28.68,-16.98,-45.3,-0.011971374,0.41181526,9.885961,-0.009969321,-0.002769663,-0.010796432,-0.04163247346878052,0.0012109463568776846,2.054121494293213,1016.2405,
2021.02.11 16:23:24,40.0,25.0,-28.68,-16.68,-45.12,-0.07422252,0.48843205,10.039194,-0.024630086,-0.00826745,-0.0254572,-0.04861285164952278,0.007393140345811844,2.033663749694824,1016.23145,
2021.02.11 16:23:25,40.0,25.0,-28.439999,-16.68,-45.059998,-0.16520496,0.31125572,10.477346,-0.024019223,-0.0015479325,-0.03828537,-0.029695071280002594,0.01576651819050312,2.055483818054199,1016.23145,
2021.02.11 16:23:25,40.0,25.0,-28.32,-16.8,-45.12,-0.117319465,0.409421,9.63935,0.040732495,0.03815831,-0.026068063,-0.04244526848196983,0.01217028871178627,2.046880006790161,1016.22534,
2021.02.11 16:23:25,40.0,25.0,-28.68,-16.74,-45.0,-0.3232271,0.18914771,9.948212,-0.0069149947,8.955284E-4,-0.053557,-0.01900092326104641,0.03247954696416855,2.0564236640930176,1016.2263,
2021.02.11 16:23:25,40.0,25.0,-29.34,-16.619999,-44.16,-0.011971374,0.38308397,10.000886,0.0071349065,0.010058507,0.036240194,-0.03828625753521919,0.0011970307677984238,2.0404796600341797,1016.2263,
2021.02.11 16:23:25,40.0,25.0,-29.76,-16.44,-43.68,-0.05506832,0.3615355,10.08708,0.0053023105,-0.020484755,0.020357694,-0.03582557290792465,0.005459238309413195,2.0310182571411133,1016.2136,
2021.02.11 16:23:25,40.0,25.0,-30.42,-16.44,-43.14,-0.05506832,0.34956414,9.917087,0.026071727,-0.01987389,0.00691866,-0.03523354232311249,0.005552816204726696,2.0235981941223145,1016.2136,
2021.02.11 16:23:25,40.0,25.0,-30.599998,-16.68,-42.78,-0.07901107,0.35435268,9.972155,-1.9547688E-4,-0.00826745,-0.012629028,-0.03551815450191498,0.007923003286123276,2.026395797729492,1016.22314,
2021.02.11 16:23:25,40.0,25.0,-30.66,-16.5,-43.079998,-0.14605077,0.31604427,10.072714,0.0034697147,-0.014986968,-0.009574702,-0.03136269375681877,0.014498628675937653,2.0219483375549316,1016.22217,
2021.02.11 16:23:25,40.0,25.0,-31.08,-16.5,-42.719997,-0.04070267,0.3328042,10.008069,0.007745771,2.846632E-4,-0.012629028,-0.03324105963110924,0.0040669627487659454,2.0202293395996094,1016.22217,
2021.02.11 16:23:25,40.0,25.0,-31.26,-16.26,-42.42,-0.11971374,0.35674694,10.0368,0.0010262536,-0.0058239894,-0.03034412,-0.03552640974521637,0.011926914565265179,2.0056982040405273,1016.2207,
2021.02.11 16:23:25,40.0,25.0,-31.619999,-16.02,-42.18,-0.071828246,0.35674694,10.024829,0.006524041,-0.010710911,-0.0059095104,-0.0355704091489315,0.007164911832660437,1.9976364374160767,1016.2207,
2021.02.11 16:23:25,40.0,25.0,-31.74,-16.08,-42.18,-0.20111908,0.31604427,10.0439825,0.020573942,-0.016208699,0.021579426,-0.03144935518503189,0.020021162927150726,1.9963488578796387,1016.2207,
2021.02.11 16:23:25,40.0,25.0,-31.38,-15.96,-42.54,-0.071828246,0.45970076,9.818921,0.03218038,-0.0064348546,0.04173798,-0.04678243771195412,0.007315158378332853,1.9858365058898926,1016.2207,
2021.02.11 16:23:25,40.0,25.0,-31.5,-16.08,-42.66,-0.14365649,0.3040729,9.912297,0.0040805796,0.0155562945,-0.010796432,-0.030663494020700455,0.014491740614175797,2.002084732055664,1016.21924,
2021.02.11 16:23:25,40.0,25.0,-31.619999,-16.199999,-42.66,-0.08858817,0.2681588,9.8787775,-0.03073874,-0.0039913934,0.013027312,-0.027137182652950287,0.008967283181846142,2.0102505683898926,1016.2202,
2021.02.11 16:23:25,40.0,25.0,-31.199999,-16.32,-42.6,-0.2083019,0.32562137,10.151725,-0.015467108,0.007004181,0.02219029,-0.032057736068964005,0.020515987649559975,2.0074803829193115,1016.2202,
2021.02.11 16:23:26,40.0,25.0,-31.26,-16.619999,-42.54,-0.011971374,0.37111259,9.974549,-0.00752586,0.0027281241,0.02890981,-0.03718877211213112,0.001200191443786025,2.01828932762146,1016.2151,
2021.02.11 16:23:26,40.0,25.0,-30.779999,-16.5,-42.719997,0.0047885496,0.3423813,9.814133,-0.008136725,0.025941003,0.016692502,-0.03487240523099899,-4.8792382585816085E-4,2.0245230197906494,1016.2151,
2021.02.11 16:23:26,40.0,25.0,-30.539999,-16.199999,-42.719997,-0.045491222,0.45491222,10.058349,0.0059131756,-0.0046022586,-4.1172316E-4,-0.045196063816547394,0.004522701725363731,2.005218982696533,1016.2178,
2021.02.11 16:23:26,40.0,25.0,-30.42,-15.78,-42.899998,-0.20590763,0.3423813,10.304958,-0.018521436,0.008836777,-0.03034412,-0.033206067979335785,0.019978754222393036,2.0014820098876953,1016.2202,
2021.02.11 16:23:26,40.0,25.0,-30.42,-15.48,-43.02,-0.19393626,0.35435268,9.873989,0.019963076,-9.3706726E-4,0.011805582,-0.0358651839196682,0.019638601690530777,1.9905240535736084,1016.2202,
2021.02.11 16:23:26,40.0,25.0,-30.84,-15.179999,-42.48,-0.10774237,0.35435268,10.032011,-1.9547688E-4,-0.027815137,0.008751255,-0.03530548885464668,0.010739444755017757,1.9829798936843872,1016.23145,
2021.02.11 16:23:26,40.0,25.0,-30.72,-15.24,-42.719997,-0.08858817,0.38787252,10.185245,0.004691445,0.019221485,-0.012018163,-0.03806197643280029,0.008697477169334888,1.9835180044174194,1016.23145,
2021.02.11 16:23:26,40.0,25.0,-31.08,-15.36,-42.6,-0.06464542,0.4070267,9.953,0.015076155,0.013723698,-0.013850759,-0.04087124019861221,0.006494977045804262,1.9804346561431885,1016.2295,
2021.02.11 16:23:26,40.0,25.0,-31.199999,-15.299999,-42.239998,-0.17478207,0.2849187,10.060742,0.015076155,0.017999755,-0.012629028,-0.02830801159143448,0.017370933666825294,1.9870089292526245,1016.22485,
2021.02.11 16:23:26,40.0,25.0,-30.96,-15.48,-42.48,-0.1987248,0.28731298,9.890749,0.017519616,0.012501968,-0.008352971,-0.029034635052084923,0.0200892835855484,1.9922211170196533,1016.22485,
2021.02.11 16:23:26,40.0,25.0,-31.26,-15.719999,-42.239998,-0.18435916,0.38308397,10.163696,-0.0130236475,0.021664947,0.016081639,-0.03766738250851631,0.018136998638510704,1.98662531375885,1016.2261,
2021.02.11 16:23:26,40.0,25.0,-31.08,-15.96,-42.54,-0.12450229,0.43575802,9.890749,0.01690875,0.0155562945,0.036851056,-0.044025178998708725,0.012587086297571659,1.9900625944137573,1016.2261,
2021.02.11 16:23:26,40.0,25.0,-31.019999,-16.14,-42.96,-0.1699935,0.30646718,10.079897,-0.004471534,0.0033389896,0.013638178,-0.030390119180083275,0.016863008961081505,2.008232355117798,1016.2261,
2021.02.11 16:23:26,40.0,25.0,-31.14,-16.26,-43.079998,-0.14126222,0.32083282,9.998491,0.007745771,0.016778024,0.027688079,-0.03207391873002052,0.014127412810921669,2.009227991104126,1016.22363,
2021.02.11 16:23:26,40.0,25.0,-31.14,-16.08,-43.5,-0.11253092,0.37111259,9.941029,-0.015467108,0.019832352,0.00691866,-0.03731168806552887,0.011319362558424473,1.9995684623718262,1016.22363,
2021.02.11 16:23:26,40.0,25.0,-31.14,-16.26,-43.2,-0.26337022,0.31604427,10.022434,-0.012412782,-0.0076565854,-0.008352971,-0.031512368470430374,0.02627202309668064,2.0038669109344482,1016.22705,
2021.02.11 16:23:26,40.0,25.0,-31.199999,-16.14,-42.78,-0.21069619,0.33759275,10.041589,0.0028588492,-0.010100046,0.0185251,-0.03359941020607948,0.020979277789592743,2.0007622241973877,1016.22705,
2021.02.11 16:23:27,40.0,25.0,-31.199999,-15.96,-42.54,-0.17238778,0.29928434,9.917087,-0.0020280725,-3.2620205E-4,0.017914234,-0.030164944007992744,0.017381155863404274,2.001840114593506,1016.23,
2021.02.11 16:23:27,40.0,25.0,-31.32,-15.839999,-42.239998,-0.24421602,0.26097596,10.008069,-0.017910568,0.0039498545,0.00691866,-0.026062892749905586,0.024397069588303566,1.9987961053848267,1016.23535,
2021.02.11 16:23:27,40.0,25.0,-31.38,-15.36,-42.18,-0.026337024,0.38308397,10.034406,0.0071349065,0.009447643,0.008140391,-0.03815838694572449,0.0026246660854667425,1.9822921752929688,1016.23535,
2021.02.11 16:23:27,40.0,25.0,-31.14,-14.94,-42.12,-0.10774237,0.34477556,10.046377,-0.005082399,0.00456072,-0.026068063,-0.0343029648065567,0.010724088177084923,1.9746087789535522,1016.2324,
2021.02.11 16:23:27,40.0,25.0,-30.9,-14.88,-42.3,-0.22506183,0.2849187,9.998491,0.0071349065,0.0027281241,-0.022402871,-0.028481248766183853,0.022505778819322586,1.9768022298812866,1016.2324,
2021.02.11 16:23:27,40.0,25.0,-30.72,-15.059999,-42.18,-0.1987248,0.29928434,9.996098,0.006524041,0.0027281241,-0.012629028,-0.02992526814341545,0.019877620041370392,1.9833552837371826,1016.2339,
2021.02.11 16:23:27,40.0,25.0,-30.539999,-15.42,-42.18,-0.16281068,0.2849187,9.981731,-0.016077973,0.0015063937,-0.016905084,-0.028532471507787704,0.01630941964685917,1.998275637626648,1016.22656,
2021.02.11 16:23:27,40.0,25.0,-30.72,-15.66,-42.54,-0.17238778,0.33759275,10.0200405,-0.006304129,0.0033389896,-0.007742106,-0.033674031496047974,0.017202602699398994,1.995913028717041,1016.22656,
2021.02.11 16:23:27,40.0,25.0,-31.019999,-16.02,-42.6,-0.16041641,0.3423813,9.98652,-1.9547688E-4,0.0027281241,-0.007131241,-0.034266505390405655,0.01606191322207451,2.0015780925750732,1016.22485,
2021.02.11 16:23:27,40.0,25.0,-30.72,-16.199999,-42.719997,-0.16041641,0.33759275,9.881172,0.014465289,-0.013154373,-0.0010225883,-0.0341474711894989,0.01623312570154667,2.009814500808716,1016.2285,
2021.02.11 16:23:27,40.0,25.0,-30.9,-16.08,-42.719997,-0.18675344,0.30646718,10.139753,-0.00874759,-0.01743043,-0.008352971,-0.03021000325679779,0.018415864557027817,2.007812738418579,1016.2285,
2021.02.11 16:23:27,40.0,25.0,-30.599998,-16.32,-42.66,-0.043096945,0.3304099,9.974549,0.012632693,-0.00704572,0.019135965,-0.03311287984251976,0.004320664331316948,2.021657943725586,1016.2361,
2021.02.11 16:23:27,40.0,25.0,-30.359999,-16.08,-42.48,-0.16520496,0.33759275,9.862018,0.0059131756,-0.0033805282,-0.010185567,-0.03421345353126526,0.016750071197748184,2.0110394954681396,1016.2361,
2021.02.11 16:23:27,40.0,25.0,-30.359999,-15.96,-42.36,-0.18675344,0.30167863,10.118205,-0.012412782,-0.0021587978,-0.008352971,-0.02980152517557144,0.01845507323741913,2.012087345123291,1016.239,
2021.02.11 16:23:27,40.0,25.0,-30.539999,-16.44,-42.3,-0.12929083,0.36632404,9.964972,-1.9547688E-4,0.00578245,-0.00468778,-0.03674153611063957,0.012973803095519543,2.0174896717071533,1016.239,
2021.02.11 16:23:27,40.0,25.0,-30.9,-16.38,-42.12,-0.17238778,0.339987,10.029617,0.0028588492,-0.00826745,-0.009574702,-0.0338803306221962,0.017186179757118225,2.0127694606781006,1016.23486,
2021.02.11 16:23:27,40.0,25.0,-30.84,-16.14,-42.059998,-0.14844504,0.2944958,9.950606,0.009578368,-0.011932642,0.0038643337,-0.02958383783698082,0.014917084015905857,2.013134002685547,1016.2344,
2021.02.11 16:23:28,40.0,25.0,-31.019999,-15.839999,-41.94,-0.18914771,0.32083282,10.079897,-0.00874759,0.01861062,-0.007131241,-0.0318126417696476,0.01876264438033104,1.9990267753601074,1016.2344,
2021.02.11 16:23:28,40.0,25.0,-30.779999,-15.54,-42.3,-0.08619389,0.37590113,9.964972,0.0016371189,0.010058507,0.0056969295,-0.03770296275615692,0.008649472147226334,1.9917654991149902,1016.22925,
2021.02.11 16:23:28,40.0,25.0,-30.72,-15.839999,-42.3,-0.18435916,0.32562137,10.022434,0.008356637,-0.0046022586,-0.007131241,-0.032472338527441025,0.018392575904726982,2.001678705215454,1016.22925,
2021.02.11 16:23:28,40.0,25.0,-30.84,-16.26,-42.54,-0.15562786,0.31125572,10.0439825,-0.00874759,0.019832352,-0.012018163,-0.030975643545389175,0.015493396669626236,2.0139691829681396,1016.2285,
2021.02.11 16:23:28,40.0,25.0,-31.199999,-16.38,-42.719997,-0.15083931,0.33759275,9.96976,-0.003249803,0.011891102,0.0063077947,-0.03384486958384514,0.015128529630601406,2.009516954421997,1016.2378,
2021.02.11 16:23:28,40.0,25.0,-31.019999,-16.5,-42.6,-0.16759923,0.33519846,10.000886,-0.004471534,0.0015063937,-0.007131241,-0.03349963203072548,0.016756869852542877,2.014503002166748,1016.2378,
2021.02.11 16:23:28,40.0,25.0,-30.96,-16.199999,-42.66,-0.16520496,0.32801566,10.017646,0.004691445,0.01738889,-0.0065203756,-0.032727643847465515,0.016489900648593903,2.008408784866333,1016.2351,
2021.02.11 16:23:28,40.0,25.0,-31.26,-16.32,-42.6,-0.15323359,0.31604427,9.96976,-0.003249803,0.007004181,-0.010185567,-0.03168593719601631,0.015368626452982426,2.009629011154175,1016.2351,
2021.02.11 16:23:28,40.0,25.0,-31.56,-16.32,-42.42,-0.2370332,0.33759275,10.063137,-0.008136725,-0.00704572,-0.0052986452,-0.03352560102939606,0.02355024963617325,2.0004425048828125,1016.2312,
2021.02.11 16:23:28,40.0,25.0,-31.8,-16.32,-42.66,-0.31125572,0.3304099,9.998491,-0.0014172074,0.005171585,0.0075295246,-0.033017970621585846,0.031120218336582184,1.9945482015609741,1016.2307,
2021.02.11 16:23:28,40.0,25.0,-31.859999,-16.44,-42.36,-0.24900457,0.27055305,10.106234,-0.002638938,2.846632E-4,0.024633752,-0.026756402105093002,0.024633727967739105,2.0067191123962402,1016.2307,
2021.02.11 16:23:28,40.0,25.0,-31.5,-16.26,-42.6,-0.07901107,0.3615355,9.972155,0.0101892315,-0.0015479325,0.03868365,-0.03623749315738678,0.007923003286123276,2.0037543773651123,1016.2329,
2021.02.11 16:23:28,40.0,25.0,-31.32,-16.199999,-42.719997,-0.16520496,0.33519846,10.008069,-1.9547688E-4,-0.0058239894,0.012416447,-0.03347574546933174,0.01650567725300789,2.0031979084014893,1016.2329,
2021.02.11 16:23:28,40.0,25.0,-31.5,-16.38,-42.54,-0.2370332,0.28013015,10.041589,0.0034697147,-0.00826745,0.010583851,-0.02788199856877327,0.02360076643526554,2.0085437297821045,1016.228,
2021.02.11 16:23:28,40.0,25.0,-31.38,-16.32,-43.079998,-0.1340794,0.3328042,9.943423,0.0040805796,0.00456072,0.0185251,-0.033454250544309616,0.013483411632478237,2.006664752960205,1016.22437,
2021.02.11 16:23:28,40.0,25.0,-31.679998,-16.08,-42.84,-0.10055954,0.3304099,10.05356,-0.00752586,8.955284E-4,0.010583851,-0.03285149484872818,0.010002046823501587,1.9995037317276,1016.22437,
2021.02.11 16:23:29,40.0,25.0,-31.32,-15.96,-43.14,-0.14844504,0.32801566,10.022434,-0.003249803,-0.0015479325,-0.0052986452,-0.03271288052201271,0.014810193330049515,1.9982171058654785,1016.22314,
2021.02.11 16:23:29,40.0,25.0,-31.38,-15.54,-43.02,-0.18435916,0.29210153,9.981731,0.002247984,-0.0064348546,-0.00468778,-0.02925027906894684,0.018467558547854424,1.988890290260315,1016.22314,
2021.02.11 16:23:29,40.0,25.0,-31.199999,-15.48,-42.54,-0.16520496,0.31365,10.0200405,-0.0020280725,-0.0021587978,0.005086064,-0.03128780052065849,0.01648596115410328,1.9885352849960327,1016.2258,
2021.02.11 16:23:29,40.0,25.0,-30.84,-15.66,-42.719997,-0.12210801,0.33759275,10.084685,-0.002638938,-0.002769663,0.0063077947,-0.0334608368575573,0.012107670307159424,1.9969583749771118,1016.23096,
2021.02.11 16:23:29,40.0,25.0,-31.14,-15.24,-42.42,-0.15323359,0.34477556,9.9889145,0.023017403,0.0015063937,0.0044751987,-0.03449806571006775,0.015339161269366741,1.9799714088439941,1016.23096,
2021.02.11 16:23:29,40.0,25.0,-31.32,-15.36,-42.18,-0.1987248,0.30167863,9.984126,0.020573942,-0.0076565854,8.1000733E-4,-0.0302006583660841,0.019901448860764503,1.9840255975723267,1016.2246,
2021.02.11 16:23:29,40.0,25.0,-31.56,-15.36,-42.54,-0.20351335,0.3328042,9.828498,0.029126056,-9.3706726E-4,0.01974683,-0.03384096175432205,0.020703496411442757,1.9765748977661133,1016.2246,
2021.02.11 16:23:29,40.0,25.0,-31.859999,-15.42,-42.54,-0.13647367,0.29928434,10.1541195,-0.002638938,-0.0039913934,0.013638178,-0.029462989419698715,0.013439417816698551,1.9828250408172607,1016.2278,
2021.02.11 16:23:29,40.0,25.0,-31.8,-15.839999,-42.84,-0.0047885496,0.38787252,9.905115,0.014465289,-0.0052131237,0.020357694,-0.039138808846473694,4.834420687984675E-4,1.989274024963379,1016.23096,
2021.02.11 16:23:29,40.0,25.0,-31.26,-15.719999,-43.14,-0.07901107,0.32083282,10.0368,0.0101892315,-0.0046022586,-0.01751595,-0.031953778117895126,0.007871975190937519,1.996862769126892,1016.23096,
2021.02.11 16:23:29,40.0,25.0,-31.56,-15.839999,-42.78,-0.105348095,0.32801566,9.905115,0.0010262536,0.005171585,-0.020570276,-0.03310181945562363,0.01063532568514347,1.9941887855529785,1016.23926,
2021.02.11 16:23:29,40.0,25.0,-31.32,-15.719999,-42.6,-0.17238778,0.32083282,9.976943,-0.015467108,-0.0058239894,-0.032176714,-0.0321415551006794,0.01727689802646637,1.9920248985290527,1016.23975,
2021.02.11 16:23:29,40.0,25.0,-31.14,-15.78,-42.36,-0.08619389,0.36632404,10.101445,-0.015467108,0.00456072,-0.022402871,-0.036247316747903824,0.008532620035111904,1.9954725503921509,1016.23975,
2021.02.11 16:23:29,40.0,25.0,-31.32,-15.96,-42.48,-0.05027977,0.39266106,9.981731,-0.004471534,0.0063933157,-0.05294613,-0.03931719809770584,0.0050371368415653706,1.9961267709732056,1016.24023,
2021.02.11 16:23:29,40.0,25.0,-30.96,-15.839999,-42.78,-0.14844504,0.32562137,9.984126,4.1538838E-4,-0.002769663,-0.059665654,-0.03259875252842903,0.014867009595036507,1.9998387098312378,1016.24023,
2021.02.11 16:23:29,40.0,25.0,-30.96,-16.26,-42.78,-0.21548474,0.339987,10.05356,-0.002638938,8.955284E-4,-0.056611326,-0.03379693627357483,0.02143039181828499,2.0062742233276367,1016.2378,
2021.02.11 16:23:29,40.0,25.0,-30.779999,-16.38,-42.719997,-0.24421602,0.31365,10.015251,0.0059131756,0.0033389896,-0.045004886,-0.0312977097928524,0.024379581212997437,2.01291561126709,1016.2378,
2021.02.11 16:23:30,40.0,25.0,-30.539999,-16.32,-42.42,-0.12929083,0.29928434,9.883567,0.006524041,-0.0021587978,-0.015683355,-0.030269168317317963,0.013080648146569729,2.021360397338867,1016.2312,
2021.02.11 16:23:30,40.0,25.0,-30.599998,-16.44,-42.54,-0.17238778,0.30646718,10.125388,-0.015467108,-3.2620205E-4,-0.01751595,-0.030253583565354347,0.017023654654622078,2.021636962890625,1016.2405,
2021.02.11 16:23:30,40.0,25.0,-30.48,-16.26,-42.899998,-0.14126222,0.3998439,9.866806,-0.0069149947,0.00578245,-0.01751595,-0.04049783945083618,0.014315936714410782,2.0079116821289062,1016.2405,
2021.02.11 16:23:30,40.0,25.0,-30.84,-16.38,-43.02,-0.22266756,0.26097596,10.060742,-0.0130236475,-0.0021587978,-0.032787584,-0.025927867740392685,0.02212870679795742,2.0188450813293457,1016.2434,
2021.02.11 16:23:30,40.0,25.0,-31.199999,-16.5,-42.78,-0.117319465,0.34716985,9.938635,-0.0069149947,0.013112833,-0.018126816,-0.034914713352918625,0.01180383563041687,2.0129759311676025,1016.2434,
2021.02.11 16:23:30,40.0,25.0,-31.26,-16.26,-42.6,-0.15323359,0.28970724,10.122993,-0.012412782,-9.3706726E-4,-0.020570276,-0.028607647866010666,0.015136024914681911,2.0115668773651123,1016.2405,
2021.02.11 16:23:30,40.0,25.0,-31.5,-16.5,-42.239998,-0.18675344,0.28970724,9.91948,0.0034697147,-9.3706726E-4,-0.0034660494,-0.029192419722676277,0.018824713304638863,2.0127289295196533,1016.2412,
2021.02.11 16:23:30,40.0,25.0,-31.5,-16.38,-42.12,-0.14605077,0.2681588,9.943423,-0.0038606685,-0.0052131237,-0.0010225883,-0.026959016919136047,0.014687121845781803,2.0141568183898926,1016.2412,
2021.02.11 16:23:30,40.0,25.0,-31.32,-16.56,-42.54,-0.15562786,0.29210153,9.90272,-0.017299704,0.008225911,-0.008963836,-0.029484910890460014,0.0157143734395504,2.0173184871673584,1016.2273,
2021.02.11 16:23:30,40.0,25.0,-31.199999,-16.859999,-42.78,-0.14365649,0.28970724,10.158908,-0.028295279,0.033271383,-0.0254572,-0.028506984934210777,0.014139995910227299,2.0280237197875977,1016.2273,
2021.02.11 16:23:30,40.0,25.0,-30.96,-16.74,-42.719997,-0.2944958,0.22745611,9.914692,-0.054562483,0.057095133,-0.036452774,-0.022927185520529747,0.029694238677620888,2.0262250900268555,1016.2317,
2021.02.11 16:23:30,40.0,25.0,-30.779999,-16.68,-42.84,-0.16281068,0.2370332,10.206794,-0.00752586,-0.016819563,-0.0065203756,-0.02321595512330532,0.015949854627251625,2.033499240875244,1016.2268,
2021.02.11 16:23:30,40.0,25.0,-30.9,-16.38,-42.719997,-0.026337024,0.23463893,10.00328,0.021184808,-0.00704572,-0.011407297,-0.023451820015907288,0.0026328328531235456,2.0310707092285156,1016.2268,
2021.02.11 16:23:30,40.0,25.0,-30.9,-16.14,-42.719997,-0.1699935,0.22745611,9.991309,-0.0014172074,8.955284E-4,-0.027289793,-0.02275817282497883,0.017012495547533035,2.0182414054870605,1016.2256,
2021.02.11 16:23:30,40.0,25.0,-30.779999,-15.839999,-42.6,-0.25858167,0.27055305,9.938635,0.0028588492,0.033882253,-0.032787584,-0.027206432074308395,0.026011956855654716,2.0028092861175537,1016.2256,
2021.02.11 16:23:30,40.0,25.0,-30.66,-16.02,-42.42,-0.25379312,0.18675344,10.010463,-0.002638938,0.0015063937,-0.018126816,-0.01864766888320446,0.025347355753183365,2.0186452865600586,1016.22656,
2021.02.11 16:23:30,40.0,25.0,-30.48,-16.26,-42.719997,-0.19633053,0.2777359,9.962578,-8.063421E-4,0.022886677,-0.0052986452,-0.02786528877913952,0.019704250618815422,2.019582509994507,1016.23926,
2021.02.11 16:23:31,40.0,25.0,-30.539999,-16.44,-42.239998,-0.17717634,0.25858167,9.948212,-0.010580186,0.023497544,0.0044751987,-0.0259828083217144,0.017807986587285995,2.026942014694214,1016.23926,
2021.02.11 16:23:31,40.0,25.0,-30.48,-16.56,-42.6,-0.18435916,0.26097596,9.91948,0.007745771,-0.0033805282,-0.013239893,-0.026298830285668373,0.018583426252007484,2.029724597930908,1016.2388,
2021.02.11 16:23:31,40.0,25.0,-30.42,-16.56,-42.96,-0.45491222,0.15802214,9.864412,0.0028588492,0.011891102,-0.012018163,-0.01600104384124279,0.046083856374025345,2.027257204055786,1016.2388,
2021.02.11 16:23:31,40.0,25.0,-30.599998,-16.32,-42.96,-0.14365649,0.31604427,10.063137,0.021184808,-0.0076565854,0.016692502,-0.031392622739076614,0.014274547807872295,2.0182266235351562,1016.24634,
2021.02.11 16:23:31,40.0,25.0,-30.599998,-16.5,-43.32,-0.14844504,0.28970724,9.80695,0.03095865,0.013112833,0.027077213,-0.02952904812991619,0.015135562047362328,2.0241923332214355,1016.24194,
2021.02.11 16:23:31,40.0,25.0,-30.779999,-16.32,-42.84,-0.19154198,0.17238778,10.005674,0.018741347,-0.036978114,-0.023624603,-0.0172241423279047,0.019140997901558876,2.0291852951049805,1016.24194,
2021.02.11 16:23:31,40.0,25.0,-31.08,-16.38,-42.48,-0.38068968,0.2466103,10.127783,-0.005082399,0.038769174,-0.026068063,-0.024327896535396576,0.03757096081972122,2.010751485824585,1016.2368,
2021.02.11 16:23:31,40.0,25.0,-31.019999,-16.74,-42.059998,-0.2657645,0.15562786,9.929058,0.120755844,-0.046141095,-0.018126816,-0.015667086467146873,0.026759948581457138,2.035068988800049,1016.2368,
2021.02.11 16:23:31,40.0,25.0,-30.599998,-16.859999,-42.18,0.04070267,0.43575802,9.917087,0.017519616,-0.018652158,0.01974683,-0.04391150921583176,-0.004104273859411478,2.0284667015075684,1016.2351,
2021.02.11 16:23:31,40.0,25.0,-30.72,-17.16,-42.719997,-0.06943397,0.45730647,10.130177,-0.032571334,-0.0021587978,0.009972986,-0.04511130601167679,0.006854064762592316,2.0271830558776855,1016.2295,
2021.02.11 16:23:31,40.0,25.0,-30.06,-16.859999,-42.54,-0.43096948,0.35435268,10.015251,-0.016077973,0.055262536,-0.030954985,-0.03533387929201126,0.04300478845834732,2.0208747386932373,1016.2295,
2021.02.11 16:23:31,40.0,25.0,-30.119999,-16.92,-42.66,-0.36632404,0.37590113,9.883567,0.048673745,-0.0046022586,-4.1172316E-4,-0.037988562136888504,0.037046995013952255,2.021517276763916,1016.23267,
2021.02.11 16:23:31,40.0,25.0,-30.359999,-16.859999,-42.54,-0.16759923,0.45730647,10.151725,0.092656046,0.010058507,-0.03400931,-0.04501061141490936,0.016507934778928757,2.019460678100586,1016.23267,
2021.02.11 16:23:31,40.0,25.0,-30.48,-17.1,-42.059998,-0.014365649,0.5818088,9.866806,0.08960172,-0.079738684,-0.15190631,-0.05889800935983658,0.0014559563715010881,2.016648292541504,1016.22974,
2021.02.11 16:23:31,40.0,25.0,-30.84,-17.64,-42.059998,-0.07422252,0.6105401,10.23313,0.061501913,-0.111503676,-0.21482542,-0.05959087237715721,0.007253031712025404,2.0226893424987793,1016.22754,
2021.02.11 16:23:31,40.0,25.0,-30.779999,-17.82,-41.94,-0.2944958,0.3328042,9.72315,0.15190998,-0.030258598,-0.25636426,-0.03419899567961693,0.030278848484158516,2.044142484664917,1016.22754,
2021.02.11 16:23:32,40.0,25.0,-30.96,-18.3,-41.399998,-0.28252444,0.6344828,9.72315,0.116479784,-0.024149947,-0.1360238,-0.06513505429029465,0.029048707336187363,2.023221015930176,1016.23364,
2021.02.11 16:23:32,40.0,25.0,-30.359999,-19.02,-41.28,-0.44772938,0.23942748,9.948212,-0.14130534,0.07542109,-0.007131241,-0.024038420990109444,0.04497566446661949,2.08204984664917,1016.23364,
2021.02.11 16:23:32,40.0,25.0,-30.119999,-19.26,-40.92,-0.26097596,0.65363705,10.0200405,0.029126056,0.020443216,0.118707,-0.06511866301298141,0.02603951282799244,2.060293197631836,1016.239,
2021.02.11 16:23:32,40.0,25.0,-29.76,-19.859999,-41.16,-0.045491222,0.76137936,9.842864,-0.047842965,0.016778024,0.08266595,-0.07719888538122177,0.004621713422238827,2.0778515338897705,1016.2395,
2021.02.11 16:23:32,40.0,25.0,-29.699999,-19.859999,-41.94,-0.20351335,0.6895511,10.106234,-0.06250373,0.012501968,0.029520674,-0.06811092793941498,0.020134687423706055,2.078772783279419,1016.2395,
2021.02.11 16:23:32,40.0,25.0,-29.699999,-19.38,-41.879997,-0.36632404,0.56265455,9.900327,-0.16940515,-0.03392379,0.022801157,-0.05673211067914963,0.036984335631132126,2.0702531337738037,1016.2451,
2021.02.11 16:23:32,40.0,25.0,-29.76,-18.96,-42.36,-0.071828246,0.36392978,10.106234,-0.2139983,-0.114558004,0.06617259,-0.03599396347999573,0.007107201032340527,2.096281051635742,1016.2451,
2021.02.11 16:23:32,40.0,25.0,-30.119999,-18.24,-42.239998,-0.1987248,0.35674694,10.178062,-0.082662284,0.030827925,0.04112711,-0.03502956032752991,0.01952233724296093,2.067513942718506,1016.2451,
2021.02.11 16:23:32,40.0,25.0,-30.06,-17.76,-41.64,-0.30886146,0.14365649,9.873989,-0.009969321,0.069923304,0.0185251,-0.014540844596922398,0.031270116567611694,2.071817398071289,1016.23926,
2021.02.11 16:23:32,40.0,25.0,-30.66,-17.46,-42.18,0.21548474,0.43336374,9.941029,0.1091494,-0.033312924,0.07411384,-0.043555647134780884,-0.02167290821671486,2.0533339977264404,1016.23926,
2021.02.11 16:23:32,40.0,25.0,-30.96,-17.82,-42.18,-0.083799616,0.46927786,9.900327,0.043175958,0.06442551,-0.002244319,-0.04736309498548508,0.008464125916361809,2.0384597778320312,1016.2395,
2021.02.11 16:23:32,40.0,25.0,-30.779999,-17.699999,-42.42,-0.32801566,0.26337022,9.98652,-0.025240952,-0.026593406,-0.0254572,-0.026352254673838615,0.03283403813838959,2.047428607940674,1016.2395,
2021.02.11 16:23:32,40.0,25.0,-30.779999,-17.64,-42.48,-0.28731298,0.41420954,9.888355,0.031569514,0.01616716,0.0026426031,-0.04184650257229805,0.029047518968582153,2.031569719314575,1016.2366,
2021.02.11 16:23:32,40.0,25.0,-30.0,-17.4,-42.3,-0.19393626,0.45730647,10.077502,0.0120218275,-0.019263025,-0.0034660494,-0.04533945396542549,0.019242102280259132,2.0367074012756348,1016.23315,
2021.02.11 16:23:32,40.0,25.0,-30.0,-17.039999,-42.18,-0.25858167,0.44772938,10.084685,0.0053023105,0.013723698,-0.007742106,-0.044353265315294266,0.025635408237576485,2.0254459381103516,1016.23315,
2021.02.11 16:23:32,40.0,25.0,-29.939999,-17.1,-42.3,-0.2753416,0.4644893,10.0439825,0.06822143,0.01616716,0.005086064,-0.04619527980685234,0.02740672416985035,2.0246968269348145,1016.2412,
2021.02.11 16:23:32,40.0,25.0,-29.58,-17.699999,-42.3,-0.33759275,0.4764607,10.005674,0.048673745,0.01861062,0.028298942,-0.047556083649396896,0.03372733294963837,2.0401813983917236,1016.2412,
2021.02.11 16:23:33,40.0,25.0,-29.64,-17.58,-42.66,-0.34477556,0.48843205,9.917087,0.051117204,0.032049656,0.024022887,-0.04918213188648224,0.03475181385874748,2.0334458351135254,1016.2263,
2021.02.11 16:23:33,40.0,25.0,-29.34,-18.18,-42.84,-0.30646718,0.54828894,9.981731,0.0028588492,-0.0058239894,0.014249043,-0.05484830215573311,0.030693165957927704,2.048293113708496,1016.2229,
2021.02.11 16:23:33,40.0,25.0,-29.4,-18.3,-42.6,-0.22745611,0.5985687,9.948212,0.02851519,-0.011932642,0.011194716,-0.060080353170633316,0.02286003716289997,2.049271821975708,1016.2229,
2021.02.11 16:23:33,40.0,25.0,-29.64,-17.699999,-42.899998,-0.22506183,0.4956149,9.972155,-0.028295279,-0.0021587978,0.0032534683,-0.049646396189928055,0.022565199062228203,2.041808843612671,1016.2202,
2021.02.11 16:23:33,40.0,25.0,-30.119999,-18.42,-42.42,-0.24900457,0.5243462,9.964972,-0.017299704,0.00578245,0.009972986,-0.05255407467484474,0.024982787668704987,2.0502634048461914,1016.22363,
2021.02.11 16:23:33,40.0,25.0,-30.119999,-17.88,-42.48,-0.2370332,0.5554718,9.943423,-0.0631146,-0.015597833,0.0032534683,-0.055789414793252945,0.02383367531001568,2.0334737300872803,1016.22363,
2021.02.11 16:23:33,40.0,25.0,-30.119999,-17.88,-42.48,-0.339987,0.38787252,9.747093,-0.0631146,-0.0033805282,-0.011407297,-0.039748527109622955,0.03486672788858414,2.0452587604522705,1016.2378,
2021.02.11 16:23:33,40.0,25.0,-30.0,-17.76,-42.48,-0.2777359,0.35914123,10.08708,-0.14191622,0.00578245,0.0063077947,-0.03557557612657547,0.027526868507266045,2.051974058151245,1016.2378,
2021.02.11 16:23:33,40.0,25.0,-29.76,-17.46,-42.48,-0.13647367,0.37111259,10.0439825,-0.044177778,-0.06813225,0.02219029,-0.03692854195833206,0.013586769811809063,2.053447961807251,1016.2363,
