Time,X-cord,Y-cord,Mag_x,Mag_y,Mag_z,Acc_x,Acc_y,Acc_z,Gyro_x,Gyro_y,Gyro_z,Orn_x,Orn_y,Orn_z,Pressure,
2021.05.22 15:33:08,73.0,24.0,39.36,4.7999997,-25.8,-0.6775591,0.9696517,9.832987,0.008552114,0.020158553,-0.07086037,-0.09806329011917114,0.0687979981303215,-1.3717806339263916,1001.9204,
2021.05.22 15:33:08,73.0,24.0,38.7,4.8599997,-25.859999,-0.6775591,0.9504981,9.65821,0.06352998,0.031154128,-0.035430185,-0.09785862267017365,0.07003894448280334,-1.3665462732315063,1001.9204,
2021.05.22 15:33:08,73.0,24.0,38.399998,4.92,-25.8,-0.5506664,0.8355764,9.627085,0.07086037,-0.012217305,-0.028710667,-0.08643677830696106,0.057137444615364075,-1.3749191761016846,1001.9221,
2021.05.22 15:33:08,73.0,24.0,38.399998,4.56,-25.74,-0.4285621,0.8355764,9.519346,0.08552113,-0.02687807,-0.008552114,-0.08746412396430969,0.04498973861336708,-1.3863844871520996,1001.9221,
2021.05.22 15:33:08,73.0,24.0,38.1,4.68,-25.5,-0.30406362,0.842759,9.445126,0.07880162,-0.048258353,-0.004886922,-0.08894537389278412,0.03218153491616249,-1.3842008113861084,1001.9221,
2021.05.22 15:33:08,73.0,24.0,38.16,4.68,-25.5,-0.260968,0.8882488,9.500193,0.061086524,-0.058643065,-0.009773844,-0.09319198876619339,0.027462853118777275,-1.3826570510864258,1001.9221,
2021.05.22 15:33:08,73.0,24.0,37.44,4.2599998,-25.5,-0.36152446,0.89782566,9.509769,0.03604105,-0.05681047,-0.032375857,-0.09406431019306183,0.03799781575798988,-1.387176275253296,1001.93726,
2021.05.22 15:33:08,73.0,24.0,37.079998,4.2,-25.439999,-0.4213795,0.90021986,9.457097,0.049480084,-0.06658431,-0.047647487,-0.09481041878461838,0.044527508318424225,-1.3851770162582397,1001.93726,
2021.05.22 15:33:08,73.0,24.0,36.84,4.14,-25.68,-0.2873042,1.0127473,9.792285,-0.016493361,-0.054367006,-0.04886922,-0.1030125617980957,0.02933143638074398,-1.3826274871826172,1001.93726,
2021.05.22 15:33:08,73.0,24.0,36.78,3.54,-25.8,-0.37110126,0.9935937,9.485827,0.012217305,-0.093462385,-0.054367006,-0.10428531467914581,0.03910171240568161,-1.394864797592163,1001.93726,
2021.05.22 15:33:08,73.0,24.0,36.78,3.6,-25.439999,-0.24660277,0.9624691,9.378088,-0.012217305,-0.044593163,-0.03726278,-0.10223640501499176,0.026289574801921844,-1.3986772298812866,1001.9365,
2021.05.22 15:33:08,73.0,24.0,37.02,3.36,-25.68,-0.21787235,0.89782566,9.825804,-0.08246681,0.0018325958,-0.018936822,-0.09109896421432495,0.02216985635459423,-1.4141303300857544,1001.9365,
2021.05.22 15:33:08,73.0,24.0,37.2,3.12,-25.38,-0.20111294,0.8690952,9.876082,-0.059864793,-0.034208454,-0.026267206,-0.08775579184293747,0.02036082185804844,-1.4246551990509033,1001.9365,
2021.05.22 15:33:08,73.0,24.0,37.38,3.54,-25.14,-0.21068975,0.9552865,9.586384,-0.018325957,-0.06658431,-0.047036625,-0.0992986187338829,0.021974483504891396,-1.406725525856018,1001.9365,
2021.05.22 15:33:08,73.0,24.0,37.68,3.9599998,-25.8,-0.33039984,1.0151415,9.648633,-0.030543262,-0.03481932,-0.0580322,-0.10476431995630264,0.03422980010509491,-1.3887543678283691,1001.9353,
2021.05.22 15:33:08,73.0,24.0,37.62,4.38,-25.98,-0.3878607,1.0031705,9.7563715,-0.02687807,-0.008552114,-0.037873644,-0.10238171368837357,0.039733681827783585,-1.3773155212402344,1001.9353,
2021.05.22 15:33:08,73.0,24.0,37.38,5.1,-26.279999,-0.3854665,0.9528923,9.828198,-0.03359759,-0.004886922,-0.007330383,-0.09657903760671616,0.03920036926865578,-1.3605836629867554,1001.9353,
2021.05.22 15:33:08,73.0,24.0,37.26,5.2799997,-26.58,-0.4285621,0.8451532,10.350134,-0.07452556,0.03359759,0.010995574,-0.08140604943037033,0.041382789611816406,-1.3648536205291748,1001.9353,
2021.05.22 15:33:08,73.0,24.0,37.62,5.22,-26.34,-0.46447513,1.0821792,9.947908,-0.018325957,-0.025045475,-0.028099801,-0.1082414984703064,0.04665684700012207,-1.3483681678771973,1001.93555,
2021.05.22 15:33:08,73.0,24.0,37.86,5.1,-26.099998,-0.2633622,1.2162545,8.62152,0.1459968,-0.14294247,-0.04520403,-0.14008262753486633,0.030537575483322144,-1.336194634437561,1001.93555,
2021.05.22 15:33:09,73.0,24.0,38.16,4.92,-26.099998,-0.33997664,1.2090719,9.382876,0.029321533,0.029932396,-0.036651913,-0.12807008624076843,0.036217886954545975,-1.3489758968353271,1001.93555,
2021.05.22 15:33:09,73.0,24.0,38.28,4.56,-25.74,-0.2705448,0.79008657,9.715671,-0.02565634,0.026267206,0.052534413,-0.08111098408699036,0.02783903479576111,-1.3938056230545044,1001.93555,
2021.05.22 15:33:09,73.0,24.0,37.8,4.2599998,-25.8,-0.22505496,0.7661445,9.811439,-0.036651913,-0.058643065,0.06536258,-0.07790832221508026,0.022933997213840485,-1.4024509191513062,1001.928,
2021.05.22 15:33:09,73.0,24.0,37.5,4.2599998,-25.5,-0.1340753,0.81642276,9.555259,-0.01038471,-0.04886922,0.03481932,-0.0852268859744072,0.014030651189386845,-1.3985823392868042,1001.928,
2021.05.22 15:33:09,73.0,24.0,37.26,4.02,-25.56,-0.18435353,0.92895025,9.433155,-0.020158553,-0.05375614,-0.029932396,-0.09814204275608063,0.019540658220648766,-1.3937478065490723,1001.928,
2021.05.22 15:33:09,73.0,24.0,37.32,4.7999997,-26.279999,-0.49799395,0.9720459,9.49301,-0.034208454,0.031154128,-0.10934488,-0.10190118849277496,0.052410975098609924,-1.360968828201294,1001.928,
2021.05.22 15:33:09,73.0,24.0,37.44,4.92,-26.46,-0.5243302,0.9648633,9.706094,-0.07269296,0.073303826,-0.095294975,-0.09893915057182312,0.053968265652656555,-1.3597040176391602,1001.92456,
2021.05.22 15:33:09,73.0,24.0,37.8,4.98,-27.18,-0.41180268,0.9624691,9.617508,-0.07880162,0.017104227,-0.04520403,-0.09965189546346664,0.042791884392499924,-1.360373854637146,1001.92456,
2021.05.22 15:33:09,73.0,24.0,37.62,4.98,-26.88,-0.39504328,0.90740246,9.797073,-0.07880162,0.021991149,-0.029321533,-0.09228169918060303,0.040300749242305756,-1.3662419319152832,1001.92456,
2021.05.22 15:33:09,73.0,24.0,36.84,4.44,-26.82,-0.47165772,0.93373865,10.0748005,-0.093462385,0.014049901,-0.028710667,-0.09231606870889664,0.04678143560886383,-1.3750104904174805,1001.92456,
2021.05.22 15:33:09,73.0,24.0,36.6,4.62,-26.58,-0.46447513,0.8858546,9.631873,-0.004886922,0.031154128,-0.040317107,-0.09160730242729187,0.04818539321422577,-1.3697198629379272,1001.9248,
2021.05.22 15:33:09,73.0,24.0,36.54,4.98,-26.22,-0.34955344,0.8571242,9.7803135,-0.007330383,-0.004886922,-0.016493361,-0.08735887706279755,0.03572530671954155,-1.3667879104614258,1001.9248,
2021.05.22 15:33:09,73.0,24.0,36.66,4.7999997,-26.46,-0.3878607,0.81402856,9.646238,0.0061086523,0.028710667,-0.025045475,-0.08412106335163116,0.040186841040849686,-1.373002529144287,1001.9248,
2021.05.22 15:33:09,73.0,24.0,37.02,5.22,-26.099998,-0.4213795,0.7158663,9.653421,0.010995574,0.018936822,-0.012217305,-0.07395109534263611,0.043623100966215134,-1.3711961507797241,1001.9248,
2021.05.22 15:33:09,73.0,24.0,37.44,5.64,-26.099998,-0.50996494,0.7781156,9.627085,0.009162978,-0.01160644,-0.018325957,-0.08053792268037796,0.052922435104846954,-1.3554025888442993,1001.93115,
2021.05.22 15:33:09,73.0,24.0,37.32,5.64,-26.46,-0.49799395,0.78290397,9.572019,0.009162978,0.010995574,-0.0067195175,-0.08149950206279755,0.051979146897792816,-1.3533574342727661,1001.93115,
2021.05.22 15:33:09,73.0,24.0,37.38,6.24,-26.34,-0.521936,0.8355764,9.696517,-0.01038471,-0.007941248,0.0030543262,-0.08583684265613556,0.05377526581287384,-1.3345739841461182,1001.93115,
2021.05.22 15:33:09,73.0,24.0,37.8,6.42,-26.699999,-0.51954174,0.8355764,9.574412,0.004276057,0.0018325958,0.01038471,-0.08692402392625809,0.054210398346185684,-1.3306547403335571,1001.93115,
2021.05.22 15:33:09,73.0,24.0,37.32,6.72,-26.699999,-0.49081135,0.80205756,9.770737,-0.014660766,0.021991149,0.020158553,-0.0818014070391655,0.05019059777259827,-1.3246115446090698,1001.926,
2021.05.22 15:33:09,73.0,24.0,37.38,6.72,-26.699999,-0.48362875,0.8499416,9.512163,0.01282817,0.0012217305,0.018936822,-0.08900212496519089,0.050799451768398285,-1.319594144821167,1001.926,
2021.05.22 15:33:09,73.0,24.0,37.32,6.66,-26.519999,-0.5386954,0.8283938,9.730036,-0.01038471,0.032986723,0.029321533,-0.08480373024940491,0.05530770868062973,-1.3230735063552856,1001.926,
2021.05.22 15:33:09,73.0,24.0,37.32,6.42,-26.22,-0.37349546,0.79966336,9.617508,0.0036651916,0.013439035,0.047036625,-0.08289361000061035,0.0388154499232769,-1.3357373476028442,1001.926,
2021.05.22 15:33:09,73.0,24.0,37.26,6.0,-26.039999,-0.30406362,0.7781156,9.572019,-0.0061086523,-0.007330383,0.03481932,-0.08107157796621323,0.03175520524382591,-1.3497283458709717,1001.9297,
2021.05.22 15:33:09,73.0,24.0,36.719997,5.52,-25.68,-0.3878607,0.80684596,9.399636,0.012217305,0.047647487,0.0,-0.08555565029382706,0.04123997688293457,-1.3546987771987915,1001.9297,
2021.05.22 15:33:09,73.0,24.0,36.42,5.8199997,-25.859999,-0.45968673,0.90500826,9.595961,-0.030543262,0.008552114,-0.002443461,-0.09392616152763367,0.04786759614944458,-1.336689829826355,1001.9297,
2021.05.22 15:33:10,73.0,24.0,36.239998,6.12,-25.859999,-0.4309563,0.92176765,9.792285,-0.02076942,0.004886922,0.016493361,-0.0937652438879013,0.0439813993871212,-1.3286595344543457,1001.9297,
2021.05.22 15:33:10,73.0,24.0,36.78,6.0,-26.279999,-0.49320555,0.8499416,10.0269165,-0.03359759,0.014660766,0.021380283,-0.0844622254371643,0.049148548394441605,-1.3395580053329468,1001.9292,
2021.05.22 15:33:10,73.0,24.0,37.2,6.24,-26.46,-0.557849,0.8762778,10.007763,6.1086525E-4,-0.051923547,0.01160644,-0.08720239251852036,0.05568400397896767,-1.3316293954849243,1001.9292,
2021.05.22 15:33:10,73.0,24.0,37.62,6.6,-26.4,-0.5554548,0.8403648,9.502586,0.045814894,-0.047036625,0.0012217305,-0.08805638551712036,0.05838657543063164,-1.3236923217773438,1001.9292,
2021.05.22 15:33:10,73.0,24.0,37.44,6.54,-26.34,-0.6607997,0.8283938,9.471462,0.04153884,-0.028099801,-0.0036651916,-0.0870296061038971,0.06965457648038864,-1.3219350576400757,1001.9292,
2021.05.22 15:33:10,73.0,24.0,37.68,6.66,-26.039999,-0.37828386,0.78529817,9.591172,0.0061086523,0.012217305,0.03604105,-0.08163176476955414,0.03942040354013443,-1.3329106569290161,1001.93677,
2021.05.22 15:33:10,73.0,24.0,37.98,6.8399997,-25.92,-0.35913026,0.7733272,9.653421,0.002443461,-0.017104227,0.040927973,-0.0798833966255188,0.03718523308634758,-1.332181692123413,1001.93677,
2021.05.22 15:33:10,73.0,24.0,38.28,6.2999997,-25.98,-0.25139117,0.79966336,9.811439,-0.016493361,-0.026267206,0.042760566,-0.08129685372114182,0.02561664953827858,-1.3492934703826904,1001.93677,
2021.05.22 15:33:10,73.0,24.0,38.579998,6.0,-26.16,-0.34476504,0.8619126,9.61272,0.019547688,-0.021380283,0.014660766,-0.08936747908592224,0.03585013747215271,-1.350272536277771,1001.93677,
2021.05.22 15:33:10,73.0,24.0,38.399998,5.22,-26.46,-0.38067806,0.92176765,9.639056,-0.0036651916,-0.06169739,-0.007330383,-0.09526468068361282,0.039472781121730804,-1.3633688688278198,1001.92554,
2021.05.22 15:33:10,73.0,24.0,38.1,5.04,-26.16,-0.44532153,0.8882488,9.598354,0.02321288,0.021380283,-0.010995574,-0.09218036383390427,0.046362362802028656,-1.3677380084991455,1001.92554,
2021.05.22 15:33:10,73.0,24.0,37.559998,4.7999997,-26.22,-0.48602295,0.8619126,9.85214,-0.005497787,-0.02443461,-0.005497787,-0.08715718984603882,0.04929175227880478,-1.3739854097366333,1001.92554,
2021.05.22 15:33:10,73.0,24.0,37.62,4.74,-25.98,-0.33997664,0.79008657,9.746795,0.009162978,6.1086525E-4,0.016493361,-0.08083536475896835,0.034866731613874435,-1.3842031955718994,1001.92554,
2021.05.22 15:33:10,73.0,24.0,37.44,5.4,-25.5,-0.33758244,0.80205756,9.646238,0.025045475,-0.02076942,0.017104227,-0.0829058513045311,0.03498200327157974,-1.3656409978866577,1001.93335,
2021.05.22 15:33:10,73.0,24.0,37.2,5.04,-25.68,-0.40222588,0.79008657,9.600749,0.015882496,-0.019547688,0.002443461,-0.08203759789466858,0.04187077656388283,-1.3724771738052368,1001.93335,
2021.05.22 15:33:10,73.0,24.0,37.5,4.98,-25.859999,-0.34955344,0.8355764,9.536105,0.015271631,0.004886922,0.002443461,-0.0873408243060112,0.03663938492536545,-1.3726221323013306,1001.93335,
2021.05.22 15:33:10,73.0,24.0,37.38,4.8599997,-25.859999,-0.39264908,0.90261406,9.615114,6.1086525E-4,-0.0018325958,6.1086525E-4,-0.09352270513772964,0.04081397131085396,-1.3698158264160156,1001.93335,
2021.05.22 15:33:10,73.0,24.0,37.02,4.38,-26.22,-0.34476504,0.89303726,9.595961,-0.0030543262,0.0067195175,0.012217305,-0.09273708611726761,0.03591269627213478,-1.381418228149414,1001.9302,
2021.05.22 15:33:10,73.0,24.0,37.32,4.68,-25.92,-0.32561144,0.90979666,9.720459,-0.02443461,-0.012217305,0.012217305,-0.09327217191457748,0.03348501771688461,-1.3759748935699463,1001.9302,
2021.05.22 15:33:10,73.0,24.0,37.32,5.3399997,-25.439999,-0.29927522,0.91458505,9.878476,-0.021380283,0.018936822,0.007330383,-0.09227833151817322,0.03028642199933529,-1.3613739013671875,1001.9302,
2021.05.22 15:33:10,73.0,24.0,37.62,5.52,-25.32,-0.34715924,0.8714894,9.77792,0.007941248,0.010995574,-0.0018325958,-0.08883773535490036,0.03548949956893921,-1.3597596883773804,1001.9302,
2021.05.22 15:33:10,73.0,24.0,37.8,5.58,-25.32,-0.4285621,0.8834604,9.737218,0.015882496,-0.026267206,-0.007330383,-0.0903954952955246,0.04398440197110176,-1.3561279773712158,1001.9238,
2021.05.22 15:33:10,73.0,24.0,37.68,5.7,-25.5,-0.4357447,0.842759,9.363723,0.040927973,0.005497787,0.004276057,-0.08966419845819473,0.04650186374783516,-1.351761817932129,1001.9238,
2021.05.22 15:33:10,73.0,24.0,37.92,4.8599997,-25.92,-0.39264908,0.81642276,9.490616,-0.0067195175,-0.02565634,0.022602014,-0.08573996275663376,0.04134877026081085,-1.3778207302093506,1001.9238,
2021.05.22 15:33:10,73.0,24.0,37.8,4.74,-26.4,-0.33279404,0.81881696,9.495404,-0.021991149,0.009162978,0.021991149,-0.08596765249967575,0.035033565014600754,-1.3804261684417725,1001.9238,
2021.05.22 15:33:10,73.0,24.0,38.1,4.98,-26.46,-0.3878607,0.8834604,9.610326,-0.036651913,-0.010995574,0.0067195175,-0.09159644693136215,0.04033685103058815,-1.3703480958938599,1001.9175,
2021.05.22 15:33:11,73.0,24.0,38.04,4.56,-27.119999,-0.37349546,0.93373865,9.725247,-0.048258353,0.01160644,0.009162978,-0.09564833343029022,0.03838586062192917,-1.3767200708389282,1001.9175,
2021.05.22 15:33:11,73.0,24.0,37.739998,4.74,-26.4,-0.3878607,0.90740246,9.868899,-0.025045475,0.005497787,0.013439035,-0.09161753207445145,0.03928109630942345,-1.3751226663589478,1001.9175,
2021.05.22 15:33:11,73.0,24.0,37.14,4.7999997,-26.099998,-0.34715924,0.8643068,9.873688,-0.012217305,-0.005497787,0.022602014,-0.0872601643204689,0.03514556214213371,-1.3752959966659546,1001.9175,
2021.05.22 15:33:11,73.0,24.0,37.26,4.44,-25.8,-0.2657564,0.89782566,9.674969,0.01160644,-0.01282817,0.019547688,-0.09249910712242126,0.027461545541882515,-1.3842084407806396,1001.917,
2021.05.22 15:33:11,73.0,24.0,37.38,4.44,-25.14,-0.39025488,0.8810662,9.516952,0.02321288,-0.026267206,-0.0012217305,-0.0922384038567543,0.040983326733112335,-1.3836907148361206,1001.917,
2021.05.22 15:33:11,73.0,24.0,37.62,4.8599997,-25.74,-0.37110126,0.8379706,9.643845,0.004886922,0.016493361,-0.002443461,-0.08661027997732162,0.038461655378341675,-1.376782774925232,1001.917,
2021.05.22 15:33:11,73.0,24.0,38.1,4.56,-25.74,-0.30645782,0.80445176,9.636662,0.0,0.005497787,0.007330383,-0.08324328064918518,0.03179052844643593,-1.3907086849212646,1001.917,
2021.05.22 15:33:11,73.0,24.0,37.98,4.8599997,-25.26,-0.39025488,0.8523358,9.713276,-0.004886922,-0.009773844,-0.014049901,-0.08745519071817398,0.04015587642788887,-1.3788198232650757,1001.92676,
2021.05.22 15:33:11,73.0,24.0,37.98,4.7999997,-25.38,-0.35434186,0.85473,9.622296,0.012217305,0.021380283,-0.009773844,-0.088535837829113,0.036808453500270844,-1.3800766468048096,1001.92676,
2021.05.22 15:33:11,73.0,24.0,37.739998,4.68,-25.56,-0.40701428,0.866701,9.643845,-0.0067195175,-0.023823744,-0.01282817,-0.08955082297325134,0.04217953607439995,-1.3796650171279907,1001.92676,
2021.05.22 15:33:11,73.0,24.0,37.8,5.1,-25.56,-0.4165911,0.8475474,9.615114,0.01160644,0.043982297,-0.014049901,-0.08783817291259766,0.043299611657857895,-1.3699305057525635,1001.92676,
2021.05.22 15:33:11,73.0,24.0,37.92,4.8599997,-25.98,-0.47644615,0.8810662,9.653421,-0.019547688,-0.040927973,-0.014049901,-0.09090762585401535,0.04931514337658882,-1.3721753358840942,1001.9326,
2021.05.22 15:33:11,73.0,24.0,37.8,4.98,-26.099998,-0.40701428,0.81402856,9.643845,-0.0012217305,0.032986723,-0.0030543262,-0.08413497358560562,0.04217953607439995,-1.3745930194854736,1001.9326,
2021.05.22 15:33:11,73.0,24.0,37.739998,4.74,-25.859999,-0.36391866,0.8499416,9.816227,-0.02687807,-0.015882496,0.0018325958,-0.0863109603524208,0.037056200206279755,-1.380752444267273,1001.9326,
2021.05.22 15:33:11,73.0,24.0,37.739998,4.7999997,-25.8,-0.38067806,0.8499416,9.572019,-0.0030543262,-0.0012217305,-0.002443461,-0.08849254250526428,0.039748936891555786,-1.3772015571594238,1001.9326,
2021.05.22 15:33:11,73.0,24.0,37.44,4.92,-25.68,-0.4309563,0.81402856,9.797073,-0.007941248,0.002443461,-0.004886922,-0.08281881362199783,0.043959930539131165,-1.3758805990219116,1001.93506,
2021.05.22 15:33:11,73.0,24.0,37.559998,5.16,-25.38,-0.38067806,0.81402856,9.56723,0.01160644,6.1086525E-4,-6.1086525E-4,-0.08481385558843613,0.03976880759000778,-1.3704535961151123,1001.93506,
2021.05.22 15:33:11,73.0,24.0,37.92,5.3399997,-25.14,-0.41180268,0.8523358,9.61272,-0.004276057,-0.008552114,-0.0030543262,-0.08835560828447342,0.042813174426555634,-1.3651373386383057,1001.93506,
2021.05.22 15:33:11,73.0,24.0,37.92,5.16,-24.84,-0.34715924,0.8379706,9.698911,-0.0067195175,-0.008552114,0.0067195175,-0.08612951636314392,0.035778358578681946,-1.3736199140548706,1001.93506,
2021.05.22 15:33:11,73.0,24.0,37.86,5.04,-24.84,-0.34237084,0.80445176,9.742006,0.0012217305,0.0067195175,0.0018325958,-0.08233805000782013,0.03512931242585182,-1.37909996509552,1001.9304,
2021.05.22 15:33:11,73.0,24.0,37.68,4.7999997,-24.9,-0.38307226,0.8451532,9.794679,0.0030543262,-0.022602014,-0.008552114,-0.08600834757089615,0.039090320467948914,-1.3810025453567505,1001.9304,
2021.05.22 15:33:11,73.0,24.0,37.44,4.68,-25.32,-0.4237737,0.90500826,9.651027,0.023823744,-0.004276057,-0.009162978,-0.09341035038232803,0.04388151690363884,-1.3756914138793945,1001.9304,
2021.05.22 15:33:11,73.0,24.0,37.32,4.56,-25.74,-0.39743748,0.8379706,9.65821,0.014049901,-0.015882496,0.0036651916,-0.08647297322750092,0.04112701863050461,-1.382690191268921,1001.9304,
2021.05.22 15:33:11,73.0,24.0,37.5,4.7999997,-26.16,-0.38067806,0.81402856,9.677363,0.015882496,-0.010995574,0.004886922,-0.08385466784238815,0.03931668773293495,-1.3784873485565186,1001.9348,
2021.05.22 15:33:11,73.0,24.0,37.559998,4.8599997,-26.279999,-0.33039984,0.7469909,9.631873,0.018325957,-0.009162978,0.01160644,-0.0773538276553154,0.03428931534290314,-1.3826764822006226,1001.9348,
2021.05.22 15:33:12,73.0,24.0,37.86,4.5,-25.8,-0.36391866,0.7589619,9.61272,0.01038471,-0.016493361,0.0030543262,-0.07873430848121643,0.03783996403217316,-1.3929065465927124,1001.9348,
2021.05.22 15:33:12,73.0,24.0,37.559998,4.5,-25.56,-0.35194764,0.7469909,9.488221,0.009162978,0.0,6.1086525E-4,-0.07851240783929825,0.037076111882925034,-1.392357587814331,1001.9348,
2021.05.22 15:33:12,73.0,24.0,37.68,4.2,-25.26,-0.39743748,0.7757214,9.629479,-0.02076942,-0.022602014,0.002443461,-0.08031526952981949,0.041249584406614304,-1.3994097709655762,1001.9304,
2021.05.22 15:33:12,73.0,24.0,37.44,4.14,-25.74,-0.39025488,0.82121116,9.629479,-0.018936822,0.007941248,0.0012217305,-0.08500566333532333,0.04050493612885475,-1.395599126815796,1001.9304,
2021.05.22 15:33:12,73.0,24.0,36.78,4.62,-25.859999,-0.36391866,0.8762778,9.698911,-0.027488936,-0.013439035,0.005497787,-0.0900404080748558,0.037504009902477264,-1.37630295753479,1001.9304,
2021.05.22 15:33:12,73.0,24.0,37.38,4.7999997,-25.859999,-0.34237084,0.82360536,9.682152,-0.022602014,0.004276057,0.005497787,-0.08480725437402725,0.03534630313515663,-1.3788100481033325,1001.9304,
2021.05.22 15:33:12,73.0,24.0,37.32,5.8199997,-25.98,-0.35913026,0.8499416,9.8042555,-0.025045475,0.0018325958,0.0067195175,-0.08641723543405533,0.036613669246435165,-1.350015640258789,1001.9221,
2021.05.22 15:33:12,73.0,24.0,37.68,6.0,-25.26,-0.2777274,0.81642276,9.651027,-0.007941248,-0.02687807,0.01282817,-0.08435870707035065,0.02876904048025608,-1.3524091243743896,1001.9221,
2021.05.22 15:33:12,73.0,24.0,37.8,5.8799996,-25.8,-0.32800564,0.770933,9.785102,-0.0061086523,0.02321288,0.004276057,-0.07858002930879593,0.03350837528705597,-1.3577568531036377,1001.9221,
2021.05.22 15:33:12,73.0,24.0,37.739998,5.7599998,-26.099998,-0.35913026,0.79726917,9.55047,0.0030543262,-0.04337143,-0.009162978,-0.08322791010141373,0.037585705518722534,-1.3556747436523438,1001.9221,
2021.05.22 15:33:12,73.0,24.0,37.92,4.8599997,-25.92,-0.35194764,0.82360536,9.610326,-0.004276057,0.019547688,-0.01282817,-0.08543416112661362,0.036605462431907654,-1.3790866136550903,1001.92847,
2021.05.22 15:33:12,73.0,24.0,37.8,4.7999997,-25.98,-0.39983168,0.85473,9.679757,-0.007330383,-0.026267206,-0.0067195175,-0.0879976898431778,0.041282493621110916,-1.3770536184310913,1001.92847,
2021.05.22 15:33:12,73.0,24.0,38.34,4.62,-25.619999,-0.30166942,0.7350199,9.825804,-0.014049901,0.02565634,6.1086525E-4,-0.074630968272686,0.03069211356341839,-1.3966336250305176,1001.92847,
2021.05.22 15:33:12,73.0,24.0,37.98,4.74,-25.439999,-0.32561144,0.79008657,9.849746,-0.007941248,0.0036651916,-0.0036651916,-0.07999900728464127,0.03304581716656685,-1.3881237506866455,1001.92847,
2021.05.22 15:33:12,73.0,24.0,37.62,5.04,-25.74,-0.4309563,0.830788,9.490616,0.013439035,-0.032986723,-0.02321288,-0.08722583949565887,0.04537750408053398,-1.3700544834136963,1001.91626,
2021.05.22 15:33:12,73.0,24.0,37.44,4.98,-25.92,-0.35194764,0.7565677,9.634268,0.014049901,0.029321533,-0.008552114,-0.07831597328186035,0.03651457652449608,-1.378562331199646,1001.91626,
2021.05.22 15:33:12,73.0,24.0,37.38,5.04,-25.98,-0.37828386,0.78529817,9.607931,-0.01282817,-0.0067195175,-0.0036651916,-0.08149023354053497,0.03935171663761139,-1.3736568689346313,1001.91626,
2021.05.22 15:33:12,73.0,24.0,37.68,5.1,-26.22,-0.35434186,0.79726917,9.82341,-0.019547688,0.013439035,-0.0018325958,-0.08093022555112839,0.036055538803339005,-1.3742039203643799,1001.91626,
2021.05.22 15:33:12,73.0,24.0,37.86,4.8599997,-25.98,-0.38307226,0.80924016,9.739613,0.0012217305,-0.018325957,-0.005497787,-0.08283334970474243,0.03931109979748726,-1.379876971244812,1001.91895,
2021.05.22 15:33:12,73.0,24.0,38.34,5.1,-25.68,-0.37828386,0.81163436,9.722853,0.007330383,0.0061086523,-0.002443461,-0.08322121202945709,0.038887061178684235,-1.3765785694122314,1001.91895,
2021.05.22 15:33:12,73.0,24.0,38.1,5.64,-25.74,-0.39504328,0.80684596,9.646238,0.01160644,-0.01282817,-0.0012217305,-0.08337977528572083,0.04093021899461746,-1.3607258796691895,1001.91895,
2021.05.22 15:33:12,73.0,24.0,37.92,5.3399997,-25.38,-0.40462008,0.7613561,9.653421,0.01038471,-0.005497787,0.0012217305,-0.07863736897706985,0.041890159249305725,-1.371430516242981,1001.91895,
2021.05.22 15:33:12,73.0,24.0,37.559998,5.52,-25.439999,-0.30645782,0.78529817,9.636662,0.009773844,-0.0018325958,0.007941248,-0.08127011358737946,0.03179052844643593,-1.3651319742202759,1001.9241,
2021.05.22 15:33:12,73.0,24.0,37.559998,5.16,-25.98,-0.38067806,0.7733272,9.603143,0.01038471,-0.0036651916,-0.004276057,-0.08029236644506454,0.03962024301290512,-1.3722280263900757,1001.9241,
2021.05.22 15:33:12,73.0,24.0,37.62,4.68,-26.279999,-0.39743748,0.80205756,9.68694,0.0018325958,0.009773844,-0.0067195175,-0.08254027366638184,0.041005175560712814,-1.3825324773788452,1001.9241,
2021.05.22 15:33:13,73.0,24.0,37.92,4.8599997,-26.46,-0.3854665,0.80684596,9.765948,6.1086525E-4,-0.01160644,0.0018325958,-0.08236723393201828,0.03944998234510422,-1.379345417022705,1001.9241,
2021.05.22 15:33:13,73.0,24.0,38.1,4.38,-26.16,-0.36391866,0.81402856,9.6845455,0.012217305,-0.021380283,0.0030543262,-0.08379840850830078,0.03755958378314972,-1.3928054571151733,1001.9263,
2021.05.22 15:33:13,73.0,24.0,37.68,4.44,-26.099998,-0.40940848,0.8331822,9.473856,0.021380283,-0.01282817,-0.0030543262,-0.08763834834098816,0.04318768158555031,-1.3854345083236694,1001.9263,
2021.05.22 15:33:13,73.0,24.0,37.92,4.62,-25.619999,-0.40701428,0.78769237,9.605537,-0.0018325958,-0.015271631,0.009773844,-0.0817478746175766,0.04234754666686058,-1.387402892112732,1001.9263,
2021.05.22 15:33:13,73.0,24.0,38.04,4.62,-25.68,-0.20590134,0.81642276,9.660604,-0.015271631,-0.002443461,0.02565634,-0.08429114520549774,0.02131028100848198,-1.390475869178772,1001.9263,
2021.05.22 15:33:13,73.0,24.0,38.1,4.98,-26.519999,-0.32800564,0.80205756,9.691729,-0.007941248,-0.0012217305,0.0061086523,-0.08252173662185669,0.03383095934987068,-1.378117322921753,1001.9304,
2021.05.22 15:33:13,73.0,24.0,38.219997,4.92,-26.58,-0.2633622,0.80445176,9.782708,-0.007941248,0.0036651916,0.0030543262,-0.08201782405376434,0.026914695277810097,-1.3819721937179565,1001.9304,
2021.05.22 15:33:13,73.0,24.0,37.8,5.04,-26.82,-0.34955344,0.8355764,9.6845455,-6.1086525E-4,-0.026267206,-0.0012217305,-0.08601049333810806,0.036078281700611115,-1.371328592300415,1001.9304,
2021.05.22 15:33:13,73.0,24.0,37.26,5.22,-27.06,-0.36391866,0.842759,9.548077,0.021380283,-0.013439035,-0.017104227,-0.08797310292720795,0.038095902651548386,-1.3612191677093506,1001.9304,
2021.05.22 15:33:13,73.0,24.0,36.96,4.7999997,-26.699999,-0.30885202,0.8499416,9.679757,-0.0061086523,0.008552114,-0.002443461,-0.08753714710474014,0.03189617767930031,-1.3734062910079956,1001.92554,
2021.05.22 15:33:13,73.0,24.0,37.02,4.92,-26.34,-0.35434186,0.8451532,9.7084875,-0.0036651916,-0.021380283,-0.009773844,-0.08677662909030914,0.036481961607933044,-1.3709232807159424,1001.92554,
2021.05.22 15:33:13,73.0,24.0,37.26,4.8599997,-25.859999,-0.31364042,0.8523358,9.715671,-0.005497787,-0.021991149,-0.005497787,-0.08745860308408737,0.032270703464746475,-1.375440239906311,1001.92554,
2021.05.22 15:33:13,73.0,24.0,37.32,5.1,-25.619999,-0.32561144,0.8331822,9.634268,-0.01160644,-0.042760566,-0.0030543262,-0.0862174928188324,0.03378435596823692,-1.3705562353134155,1001.92554,
2021.05.22 15:33:13,73.0,24.0,37.739998,5.3399997,-25.5,-0.22744916,0.82121116,9.746795,0.010995574,0.021380283,6.1086525E-4,-0.08403319865465164,0.02333155646920204,-1.3706101179122925,1001.9309,
2021.05.22 15:33:13,73.0,24.0,38.04,5.2799997,-25.619999,-0.320823,0.8499416,9.682152,-0.004276057,-0.037873644,-0.004886922,-0.08751213550567627,0.03312338888645172,-1.368910551071167,1001.9309,
2021.05.22 15:33:13,73.0,24.0,38.1,5.2799997,-25.8,-0.21308395,0.830788,9.636662,0.020158553,-0.0018325958,-0.01160644,-0.08597763627767563,0.022108200937509537,-1.3722810745239258,1001.9309,
2021.05.22 15:33:13,73.0,24.0,38.1,4.7999997,-25.68,-0.260968,0.8475474,9.643845,0.008552114,-0.018936822,-0.007941248,-0.08762767165899277,0.02705397456884384,-1.3826732635498047,1001.9309,
2021.05.22 15:33:13,73.0,24.0,37.62,5.04,-25.56,-0.4141969,0.8571242,9.667787,0.002443461,-0.018325957,-0.030543262,-0.08834592998027802,0.042816806584596634,-1.370313286781311,1001.9324,
2021.05.22 15:33:13,73.0,24.0,37.26,5.04,-25.98,-0.33279404,0.8403648,9.682152,-0.0012217305,-0.0030543262,-0.002443461,-0.08652742952108383,0.03435838222503662,-1.3705848455429077,1001.9324,
2021.05.22 15:33:13,73.0,24.0,37.38,5.22,-26.099998,-0.24420857,0.81402856,9.758766,0.002443461,-0.0061086523,-6.1086525E-4,-0.08319651335477829,0.025019314140081406,-1.370656967163086,1001.9324,
2021.05.22 15:33:13,73.0,24.0,37.44,5.2799997,-26.279999,-0.29209262,0.81881696,9.674969,0.014049901,-0.009773844,-0.013439035,-0.08439303934574127,0.030181383714079857,-1.3669863939285278,1001.9324,
2021.05.22 15:33:13,73.0,24.0,38.1,5.2799997,-26.46,-0.35194764,0.866701,9.497798,0.017104227,-0.026267206,-0.013439035,-0.09093872457742691,0.037038762122392654,-1.3638601303100586,1001.9314,
2021.05.22 15:33:13,73.0,24.0,38.1,5.7,-26.279999,-0.2633622,0.80684596,9.725247,-0.007941248,0.0067195175,0.004276057,-0.0827442854642868,0.027073640376329422,-1.3615421056747437,1001.9314,
2021.05.22 15:33:13,73.0,24.0,37.98,5.7599998,-26.699999,-0.320823,0.8714894,9.583989,0.005497787,-0.018325957,-0.009162978,-0.09063193202018738,0.03346240147948265,-1.3513612747192383,1001.9314,
2021.05.22 15:33:13,73.0,24.0,38.1,5.8199997,-26.34,-0.33039984,0.8738836,9.828198,-0.01282817,-0.004276057,-0.0012217305,-0.08863291889429092,0.033604882657527924,-1.352756142616272,1001.9314,
2021.05.22 15:33:14,73.0,24.0,37.739998,5.8199997,-26.699999,-0.22744916,0.79966336,9.720459,0.015882496,0.01038471,0.01282817,-0.08205881714820862,0.023394746705889702,-1.35688054561615,1001.9358,
2021.05.22 15:33:14,73.0,24.0,38.1,5.58,-26.46,-0.38067806,0.8595184,9.718064,0.015271631,-0.012217305,0.0036651916,-0.08814863115549088,0.03915219008922577,-1.3576092720031738,1001.9358,
2021.05.22 15:33:14,73.0,24.0,37.86,5.1,-25.68,-0.33039984,0.8858546,9.878476,0.031154128,-0.04153884,0.018936822,-0.08938628435134888,0.03343397378921509,-1.371123194694519,1001.9358,
2021.05.22 15:33:14,73.0,24.0,38.04,5.22,-26.16,0.0,0.79248077,9.0429,0.1142318,-0.07574729,0.055588737,-0.08741236478090286,1.0E-6,-1.3765404224395752,1001.9358,
2021.05.22 15:33:14,73.0,24.0,38.04,5.16,-25.74,-0.5626374,1.0031705,9.919178,0.0012217305,0.01282817,-0.040927973,-0.10063107311725616,0.056661464273929596,-1.3569282293319702,1001.92725,
2021.05.22 15:33:14,73.0,24.0,37.559998,4.8599997,-26.22,-0.11492168,0.7445967,9.801862,-0.04337143,-0.019547688,0.0030543262,-0.07581401616334915,0.011723938398063183,-1.3885411024093628,1001.92725,
2021.05.22 15:33:14,73.0,24.0,37.26,4.8599997,-26.4,-0.06943185,1.0486604,9.619903,0.018325957,-0.19425514,0.0012217305,-0.10857792943716049,0.007217396050691605,-1.365435242652893,1001.92725,
