Time,X-cord,Y-cord,Mag_x,Mag_y,Mag_z,Acc_x,Acc_y,Acc_z,Gyro_x,Gyro_y,Gyro_z,Orn_x,Orn_y,Orn_z,Pressure,
2021.05.22 15:35:07,83.0,24.0,50.1,0.59999996,-21.0,-0.110133275,1.0893618,9.289502,0.13622294,-0.12461651,-0.04886922,-0.11672676354646683,0.011855114251375198,-1.508474588394165,1001.91455,
2021.05.22 15:35:07,83.0,24.0,49.98,0.17999999,-21.119999,-0.79487497,1.1755531,9.564836,0.06169739,0.044593163,-0.17104226,-0.12187439948320389,0.0829133540391922,-1.503467082977295,1001.91455,
2021.05.22 15:35:07,83.0,24.0,49.86,0.48,-20.88,-0.2873042,0.8738836,9.560047,0.021991149,-0.036651913,0.0,-0.09111572802066803,0.030043549835681915,-1.5197681188583374,1001.91455,
2021.05.22 15:35:07,83.0,24.0,50.039997,0.9,-21.0,-0.32561144,0.90021986,9.574412,0.0018325958,-0.04337143,0.029932396,-0.0936940461397171,0.03399540111422539,-1.5096373558044434,1001.92896,
2021.05.22 15:35:07,83.0,24.0,50.28,0.59999996,-21.3,-0.059855044,0.80445176,9.730036,0.01282817,-0.02443461,0.037873644,-0.08248800039291382,0.006151496898382902,-1.5234040021896362,1001.92896,
2021.05.22 15:35:07,83.0,24.0,50.46,0.84,-21.06,-0.22266077,0.79487497,9.588778,0.01038471,0.0,0.010995574,-0.08268508315086365,0.02321680262684822,-1.5173463821411133,1001.92896,
2021.05.22 15:35:07,83.0,24.0,50.76,0.96,-21.539999,-0.19871874,0.82599956,9.593566,0.020158553,0.007941248,-0.02565634,-0.0858691856265068,0.020710788667201996,-1.5133367776870728,1001.92896,
2021.05.22 15:35:07,83.0,24.0,50.76,0.59999996,-21.24,-0.32321724,0.830788,10.409989,-0.028099801,0.12705997,-0.053145275,-0.07959982007741928,0.031038787215948105,-1.5226778984069824,1001.9375,
2021.05.22 15:35:07,83.0,24.0,50.82,0.96,-20.699999,-0.7206547,0.90740246,9.411607,0.15149458,0.0012217305,-0.08307768,-0.09583722800016403,0.07642172276973724,-1.5036373138427734,1001.9375,
2021.05.22 15:35:07,83.0,24.0,50.76,1.0799999,-20.82,-0.44532153,0.92176765,9.241618,0.08857546,-0.062308256,0.02565634,-0.09929768741130829,0.048149291425943375,-1.5029222965240479,1001.9375,
2021.05.22 15:35:07,83.0,24.0,50.399998,1.14,-20.64,-0.15562311,0.9720459,9.533711,0.015882496,-0.0067195175,0.04520403,-0.10159425437450409,0.016322005540132523,-1.5047557353973389,1001.9375,
2021.05.22 15:35:08,83.0,24.0,50.219997,1.56,-20.82,-0.23942018,0.93613285,9.782708,-0.002443461,0.03970624,-0.0012217305,-0.09537373483181,0.024468928575515747,-1.4974408149719238,1001.9326,
2021.05.22 15:35:08,83.0,24.0,49.98,0.9,-20.939999,-0.36870706,0.9720459,9.801862,0.01160644,0.032375857,-0.04520403,-0.0987769141793251,0.037598296999931335,-1.5069165229797363,1001.9326,
2021.05.22 15:35:08,83.0,24.0,50.039997,0.78,-20.58,-0.32800564,0.878672,9.679757,0.02443461,0.076358154,-0.03726278,-0.09047442674636841,0.03387276828289032,-1.5143154859542847,1001.9326,
2021.05.22 15:35:08,83.0,24.0,50.039997,0.71999997,-20.699999,-0.4165911,0.9816227,10.134656,-0.016493361,0.04886922,-0.03848451,-0.09647586196660995,0.0410824716091156,-1.511718988418579,1001.9326,
2021.05.22 15:35:08,83.0,24.0,50.039997,0.24,-20.76,-0.581791,1.0893618,9.576807,0.07391469,-0.002443461,-0.055588737,-0.11305651813745499,0.060675427317619324,-1.5109256505966187,1001.93774,
2021.05.22 15:35:08,83.0,24.0,49.98,0.78,-20.939999,-0.51475334,1.1420342,9.296685,0.0842994,0.009773844,-0.032986723,-0.12204568088054657,0.055313076823949814,-1.4959355592727661,1001.93774,
2021.05.22 15:35:08,83.0,24.0,50.039997,0.71999997,-21.3,-0.4285621,1.1540052,9.595961,0.017104227,-0.013439035,-0.004276057,-0.1195666566491127,0.04463101923465729,-1.4991542100906372,1001.93774,
2021.05.22 15:35:08,83.0,24.0,50.039997,0.71999997,-21.42,-0.37828386,1.043872,9.627085,0.018325957,0.050701816,6.1086525E-4,-0.1079261377453804,0.03927350416779518,-1.5051274299621582,1001.93774,
2021.05.22 15:35:08,83.0,24.0,50.039997,0.78,-21.06,-0.521936,0.9959879,9.437943,0.03604105,0.039095376,-0.013439035,-0.10498179495334625,0.05524560809135437,-1.5039149522781372,1001.9348,
2021.05.22 15:35:08,83.0,24.0,50.34,0.65999997,-20.699999,-0.5530606,0.9672575,9.433155,0.01038471,0.0061086523,0.005497787,-0.10200699418783188,0.058562397956848145,-1.5084642171859741,1001.9348,
2021.05.22 15:35:08,83.0,24.0,50.1,0.06,-20.039999,-0.39743748,0.8355764,9.65821,-0.019547688,0.028099801,0.042760566,-0.08622713387012482,0.04112701863050461,-1.5309754610061646,1001.9348,
2021.05.22 15:35:08,83.0,24.0,50.1,0.17999999,-20.1,-0.22026655,0.94331545,9.334992,-0.031154128,-0.017715093,0.04642576,-0.1006818413734436,0.0235914159566164,-1.5241156816482544,1001.9348,
2021.05.22 15:35:08,83.0,24.0,50.399998,0.0,-20.1,-0.4237737,1.0582372,9.435549,-0.040927973,-0.02565634,-6.1086525E-4,-0.11157600581645966,0.04488230124115944,-1.5205315351486206,1001.92993,
2021.05.22 15:35:08,83.0,24.0,50.28,0.12,-20.34,-0.78290397,1.1611878,9.572019,-0.05375614,0.015882496,-0.027488936,-0.12032285332679749,0.08160924166440964,-1.5080475807189941,1001.92993,
2021.05.22 15:35:08,83.0,24.0,50.52,0.71999997,-20.699999,-0.7206547,1.2521675,9.995792,-0.089186326,-0.0067195175,0.021380283,-0.1243009939789772,0.07197128236293793,-1.4947761297225952,1001.92993,
2021.05.22 15:35:08,83.0,24.0,51.059998,0.59999996,-20.46,-0.5410896,1.1851299,10.06283,-0.07147124,0.01282817,0.073303826,-0.1170654147863388,0.05371938273310661,-1.5046972036361694,1001.92993,
2021.05.22 15:35:08,83.0,24.0,50.82,0.59999996,-20.46,-0.38307226,1.1348516,9.667787,6.1086525E-4,0.0061086523,0.09285152,-0.11675931513309479,0.0396028570830822,-1.5066078901290894,1001.9236,
2021.05.22 15:35:08,83.0,24.0,51.059998,0.48,-20.46,-0.23942018,1.0247183,9.581595,0.02687807,-0.030543262,0.09285152,-0.10650856792926788,0.024982308968901634,-1.515695333480835,1001.9236,
2021.05.22 15:35:08,83.0,24.0,50.7,0.06,-20.22,-0.12928689,0.82360536,9.469068,0.021380283,0.012217305,0.09773844,-0.08675210922956467,0.01365275401622057,-1.5336943864822388,1001.9236,
2021.05.22 15:35:08,83.0,24.0,50.64,-0.12,-20.039999,-0.22744916,0.8595184,9.631873,0.005497787,-0.023823744,0.05681047,-0.08897647261619568,0.023609831929206848,-1.5355796813964844,1001.9236,
2021.05.22 15:35:08,83.0,24.0,50.399998,-0.12,-20.16,-0.4285621,0.9624691,9.387665,0.009773844,-0.008552114,0.018325957,-0.10206232964992523,0.04561994597315788,-1.5269895792007446,1001.92114,
2021.05.22 15:35:08,83.0,24.0,50.399998,-0.12,-20.22,-0.5554548,1.0893618,9.797073,-0.02565634,-0.022602014,-0.005497787,-0.11056158691644669,0.05663536116480827,-1.52156400680542,1001.92114,
2021.05.22 15:35:08,83.0,24.0,50.52,0.29999998,-20.88,-0.48362875,1.127669,9.504981,-0.007330383,0.010995574,0.02076942,-0.11793665587902069,0.050837766379117966,-1.5090527534484863,1001.92114,
2021.05.22 15:35:08,83.0,24.0,50.1,-0.06,-20.64,-0.41180268,1.091756,9.849746,-0.045814894,-0.018936822,0.027488936,-0.11029486358165741,0.041784122586250305,-1.521225094795227,1001.92114,
2021.05.22 15:35:08,83.0,24.0,50.46,-0.42,-20.699999,-0.30406362,0.9840169,9.722853,0.0012217305,0.059864793,0.027488936,-0.10081421583890915,0.031262896955013275,-1.5341941118240356,1001.92114,
2021.05.22 15:35:09,83.0,24.0,50.039997,-0.59999996,-20.64,-0.29209262,0.94810385,9.775525,-0.010995574,-0.03604105,0.014660766,-0.09664224833250046,0.029871104285120964,-1.5396792888641357,1001.92114,
2021.05.22 15:35:09,83.0,24.0,50.399998,-1.14,-20.34,-0.29209262,0.8690952,9.569624,0.018325957,0.002443461,0.0,-0.0905277207493782,0.030513418838381767,-1.5538825988769531,1001.92114,
2021.05.22 15:35:09,83.0,24.0,50.52,-0.84,-20.76,-0.34237084,0.8858546,9.557653,0.002443461,-0.007941248,-0.020158553,-0.0923624187707901,0.035806331783533096,-1.5457961559295654,1001.92114,
2021.05.22 15:35:09,83.0,24.0,50.579998,-0.24,-20.1,-0.5363012,0.9864111,9.56723,-0.0061086523,-0.01160644,-0.0421497,-0.10258017480373383,0.05599745362997055,-1.5281662940979004,1001.92993,
2021.05.22 15:35:09,83.0,24.0,50.94,-0.17999999,-20.16,-0.58897364,0.9648633,9.674969,-0.013439035,0.028099801,-0.029321533,-0.09921666979789734,0.06080099195241928,-1.5280838012695312,1001.92993,
2021.05.22 15:35:09,83.0,24.0,50.7,-0.12,-20.34,-0.5386954,0.9768343,9.85214,-0.02076942,0.007941248,-0.007330383,-0.09868000447750092,0.05462361499667168,-1.5273168087005615,1001.92993,
2021.05.22 15:35:09,83.0,24.0,50.7,0.35999998,-19.98,-0.5506664,0.9911995,9.734824,0.005497787,-0.007330383,0.0036651916,-0.10130943357944489,0.056506432592868805,-1.5169953107833862,1001.92993,
2021.05.22 15:35:09,83.0,24.0,50.82,0.17999999,-20.76,-0.49081135,0.9720459,9.7084875,0.015882496,0.019547688,0.017715093,-0.09966430068016052,0.05051187053322792,-1.5205963850021362,1001.93164,
2021.05.22 15:35:09,83.0,24.0,50.52,0.06,-20.76,-0.4357447,0.9696517,9.500193,0.029932396,-0.016493361,0.028710667,-0.10160820931196213,0.04583480954170227,-1.522404432296753,1001.93164,
2021.05.22 15:35:09,83.0,24.0,50.7,0.35999998,-20.699999,-0.36870706,0.91697925,9.674969,0.0012217305,0.004276057,0.03481932,-0.09442810714244843,0.03809094801545143,-1.5208971500396729,1001.93164,
2021.05.22 15:35:09,83.0,24.0,51.0,0.17999999,-21.3,-0.4237737,0.92176765,9.631873,0.015271631,0.02076942,0.02076942,-0.09531751275062561,0.04396866634488106,-1.5224926471710205,1001.93164,
2021.05.22 15:35:09,83.0,24.0,51.0,0.12,-20.64,-0.35913026,0.93373865,9.730036,-6.1086525E-4,-0.019547688,0.014660766,-0.09560689330101013,0.03689270466566086,-1.525651216506958,1001.92285,
2021.05.22 15:35:09,83.0,24.0,51.66,0.24,-20.52,-0.46686932,0.9792285,9.507375,0.021380283,0.021380283,-0.0030543262,-0.1025121733546257,0.04906660318374634,-1.5195406675338745,1001.92285,
2021.05.22 15:35:09,83.0,24.0,51.539997,0.84,-20.4,-0.47405192,0.9744401,9.655815,-0.01038471,-0.02687807,-0.0012217305,-0.10045674443244934,0.04905558004975319,-1.5088160037994385,1001.92285,
2021.05.22 15:35:09,83.0,24.0,51.18,0.84,-19.92,-0.50038815,0.9911995,9.603143,-0.0012217305,0.03604105,0.0,-0.10271357744932175,0.05205962806940079,-1.5080054998397827,1001.92285,
2021.05.22 15:35:09,83.0,24.0,51.12,0.84,-20.16,-0.3854665,0.9720459,9.569624,-0.01038471,-0.032986723,0.0061086523,-0.10114753246307373,0.04025844857096672,-1.509650468826294,1001.9226,
2021.05.22 15:35:09,83.0,24.0,50.579998,0.42,-20.1,-0.4165911,0.9552865,9.888053,-0.03176499,0.005497787,0.014049901,-0.09622643142938614,0.04210585355758667,-1.519480586051941,1001.9226,
2021.05.22 15:35:09,83.0,24.0,50.52,-0.59999996,-19.92,-0.49081135,0.9768343,9.507375,0.007941248,-0.007941248,-0.013439035,-0.10225041955709457,0.05157849192619324,-1.536423683166504,1001.9226,
2021.05.22 15:35:09,83.0,24.0,50.7,-0.53999996,-20.1,-0.47165772,0.9528923,9.600749,0.0018325958,-0.0067195175,-0.004886922,-0.09880948811769485,0.04908771440386772,-1.5368032455444336,1001.9226,
2021.05.22 15:35:09,83.0,24.0,50.7,-1.02,-19.98,-0.50996494,0.9792285,9.583989,-0.002443461,0.0,-6.1086525E-4,-0.10167719423770905,0.053159959614276886,-1.5449005365371704,1001.92554,
2021.05.22 15:35:09,83.0,24.0,50.76,-0.59999996,-20.279999,-0.40462008,0.93613285,9.837775,-0.030543262,-0.012217305,0.018936822,-0.09479165077209473,0.04110605642199516,-1.5403748750686646,1001.92554,
2021.05.22 15:35:09,83.0,24.0,50.7,-0.24,-20.279999,-0.45968673,0.9600749,9.696517,-0.002443461,0.0,0.005497787,-0.09858068823814392,0.047371938824653625,-1.530739426612854,1001.92554,
2021.05.22 15:35:09,83.0,24.0,50.7,-0.35999998,-20.34,-0.50996494,1.0031705,9.64145,0.0,-0.014660766,-0.008552114,-0.10353094339370728,0.05284372717142105,-1.5301002264022827,1001.92554,
2021.05.22 15:35:09,83.0,24.0,50.64,0.0,-20.16,-0.50996494,0.9840169,9.61272,-0.0036651916,-0.0061086523,0.0,-0.10186854749917984,0.053001370280981064,-1.5239616632461548,1001.9221,
2021.05.22 15:35:09,83.0,24.0,50.46,-0.12,-19.68,-0.4405331,0.9888053,9.643845,-0.01038471,-0.012217305,0.017104227,-0.10206951946020126,0.04564850404858589,-1.5280345678329468,1001.9221,
2021.05.22 15:35:10,83.0,24.0,50.46,-0.17999999,-19.92,-0.37588966,0.94570965,9.607931,-0.004276057,0.023823744,0.014660766,-0.09803953766822815,0.039102908223867416,-1.5312888622283936,1001.9221,
2021.05.22 15:35:10,83.0,24.0,50.579998,-0.29999998,-19.56,-0.40701428,0.9744401,9.773131,-0.020158553,-0.01038471,0.0036651916,-0.0992920771241188,0.04162219911813736,-1.5336592197418213,1001.9221,
2021.05.22 15:35:10,83.0,24.0,50.82,-0.48,-20.1,-0.35673606,0.9888053,9.739613,-0.0018325958,-0.0036651916,0.0012217305,-0.10111008584499359,0.03661097213625908,-1.5360910892486572,1001.9182,
2021.05.22 15:35:10,83.0,24.0,51.18,-0.48,-20.279999,-0.50278234,0.9888053,9.564836,0.017104227,0.013439035,-0.025045475,-0.10287225991487503,0.052517373114824295,-1.5332850217819214,1001.9182,
2021.05.22 15:35:10,83.0,24.0,51.48,-0.65999997,-20.039999,-0.557849,1.0247183,9.6845455,-0.0036651916,-0.031154128,-0.013439035,-0.1052442267537117,0.05753840133547783,-1.5358526706695557,1001.9182,
2021.05.22 15:35:10,83.0,24.0,51.3,-0.53999996,-20.52,-0.50757074,0.9720459,9.629479,0.014049901,0.042760566,0.0012217305,-0.10046548396348953,0.052661359310150146,-1.535141944885254,1001.9182,
2021.05.22 15:35:10,83.0,24.0,50.94,-0.71999997,-20.52,-0.49320555,0.9768343,9.653421,-0.0012217305,-0.030543262,0.007330383,-0.1007167175412178,0.051046885550022125,-1.5385854244232178,1001.9241,
2021.05.22 15:35:10,83.0,24.0,50.94,-0.9,-20.52,-0.36152446,0.9504981,9.722853,0.0,0.01282817,0.01282817,-0.09738265722990036,0.03716583922505379,-1.5452336072921753,1001.9241,
2021.05.22 15:35:10,83.0,24.0,50.94,-0.65999997,-20.699999,-0.49081135,0.9840169,9.461885,0.022602014,-0.009773844,-0.009773844,-0.10348730534315109,0.05182601511478424,-1.5356371402740479,1001.9241,
2021.05.22 15:35:10,83.0,24.0,51.0,-0.84,-20.52,-0.45729253,0.9816227,9.691729,-0.017104227,-0.028710667,0.0,-0.10082893818616867,0.04714882746338844,-1.5414022207260132,1001.9241,
2021.05.22 15:35:10,83.0,24.0,51.48,-0.65999997,-20.699999,-0.4309563,1.0103531,9.55047,0.012217305,0.037873644,6.1086525E-4,-0.10529253631830215,0.04509350284934044,-1.535938024520874,1001.91797,
2021.05.22 15:35:10,83.0,24.0,51.18,-0.65999997,-20.46,-0.4141969,0.9720459,9.797073,-0.029932396,-0.043982297,0.008552114,-0.09880663454532623,0.04225245490670204,-1.5395162105560303,1001.91797,
2021.05.22 15:35:10,83.0,24.0,51.239998,-0.53999996,-20.16,-0.40462008,0.9983821,9.773131,0.007941248,0.043982297,0.0036651916,-0.10171611607074738,0.04137764498591423,-1.5365910530090332,1001.91797,
2021.05.22 15:35:10,83.0,24.0,51.12,-1.0799999,-20.4,-0.46208093,0.9888053,9.674969,0.005497787,-0.032375857,-0.009773844,-0.10173363238573074,0.04772419109940529,-1.5459916591644287,1001.91797,
2021.05.22 15:35:10,83.0,24.0,51.12,-1.26,-19.74,-0.48362875,0.94810385,9.543288,0.029932396,0.02321288,-0.005497787,-0.09889670461416245,0.05063405632972717,-1.5518563985824585,1001.9153,
2021.05.22 15:35:10,83.0,24.0,51.12,-1.26,-19.92,-0.49799395,0.9792285,9.557653,0.01038471,-0.02443461,-0.004886922,-0.10196130722761154,0.05205713212490082,-1.5499634742736816,1001.9153,
2021.05.22 15:35:10,83.0,24.0,50.76,-1.62,-20.4,-0.45250413,0.9696517,9.564836,0.007330383,0.009773844,0.008552114,-0.1009194552898407,0.04727388918399811,-1.5570679903030396,1001.9153,
2021.05.22 15:35:10,83.0,24.0,51.0,-0.84,-20.46,-0.46926352,0.9744401,9.749189,-0.012217305,-0.0012217305,0.01160644,-0.09950558841228485,0.04809647426009178,-1.54202139377594,1001.9153,
2021.05.22 15:35:10,83.0,24.0,50.82,-0.78,-20.699999,-0.37349546,0.9624691,9.579201,-0.009162978,0.004276057,0.015882496,-0.10006329417228699,0.03897051513195038,-1.5410306453704834,1001.9326,
2021.05.22 15:35:10,83.0,24.0,51.239998,-1.02,-20.82,-0.44771573,1.0223241,9.770737,-0.014660766,-0.01038471,0.0030543262,-0.10414338856935501,0.04579007625579834,-1.5431040525436401,1001.9326,
2021.05.22 15:35:10,83.0,24.0,51.18,-0.65999997,-20.82,-0.4213795,0.9840169,9.574412,-0.0067195175,0.004276057,0.002443461,-0.10231775045394897,0.043982621282339096,-1.536998987197876,1001.9326,
2021.05.22 15:35:10,83.0,24.0,51.18,-0.71999997,-20.58,-0.45250413,1.0031705,9.643845,-0.002443461,-0.007941248,-0.004886922,-0.1035359725356102,0.04688716307282448,-1.5377854108810425,1001.9326,
2021.05.22 15:35:10,83.0,24.0,51.239998,-0.48,-20.939999,-0.39504328,0.9840169,9.605537,-0.008552114,-0.009773844,0.007330383,-0.10200092196464539,0.04110345616936684,-1.5337170362472534,1001.93555,
2021.05.22 15:35:10,83.0,24.0,50.82,0.0,-20.939999,-0.4213795,0.91937345,9.828198,-0.015271631,0.002443461,0.0067195175,-0.09318791329860687,0.04284830018877983,-1.5277302265167236,1001.93555,
2021.05.22 15:35:10,83.0,24.0,50.879997,-0.53999996,-20.699999,-0.37588966,0.92176765,9.507375,0.018936822,-0.0018325958,-0.01282817,-0.09657584875822067,0.039516061544418335,-1.5378073453903198,1001.93555,
2021.05.22 15:35:11,83.0,24.0,50.76,-1.02,-20.699999,-0.51235914,1.0055647,9.655815,-0.018936822,-0.023823744,-0.022602014,-0.10362204909324646,0.05301252007484436,-1.5425368547439575,1001.93555,
2021.05.22 15:35:11,83.0,24.0,50.64,-0.96,-20.939999,-0.39983168,0.9935937,9.605537,-6.1086525E-4,0.02321288,-0.004276057,-0.10298454761505127,0.04160111024975777,-1.542399525642395,1001.92944,
2021.05.22 15:35:11,83.0,24.0,50.64,-1.1999999,-20.939999,-0.50757074,1.0079589,9.7324295,-0.017104227,-0.017104227,-0.01282817,-0.1030600517988205,0.05210531875491142,-1.5459628105163574,1001.92944,
2021.05.22 15:35:11,83.0,24.0,50.82,-0.84,-21.06,-0.3184288,0.91458505,9.753978,-0.0036651916,-0.0012217305,0.0036651916,-0.09344249218702316,0.03263445571064949,-1.5452085733413696,1001.92944,
2021.05.22 15:35:11,83.0,24.0,50.76,-0.9,-20.88,-0.45250413,0.9552865,9.6845455,0.012217305,0.010995574,-0.02687807,-0.09821577370166779,0.04669039696455002,-1.5430160760879517,1001.92944,
2021.05.22 15:35:11,83.0,24.0,50.16,-0.84,-20.4,-0.4357447,0.94570965,9.694122,0.004276057,-0.03359759,-0.022602014,-0.09714975208044052,0.04491913318634033,-1.5431740283966064,1001.9326,
2021.05.22 15:35:11,83.0,24.0,50.219997,-0.53999996,-20.1,-0.4285621,0.94092125,9.425972,0.032375857,0.018325957,-0.02565634,-0.09939060360193253,0.045434802770614624,-1.5366730690002441,1001.9326,
2021.05.22 15:35:11,83.0,24.0,50.52,-0.53999996,-19.92,-0.49081135,0.9768343,9.753978,-0.018325957,-0.018325957,-0.02443461,-0.09968917071819305,0.05027669295668602,-1.5365285873413086,1001.9326,
2021.05.22 15:35:11,83.0,24.0,50.1,-0.12,-20.22,-0.39504328,0.93373865,9.7084875,-0.0012217305,0.031154128,-0.013439035,-0.09580384939908981,0.040668074041604996,-1.530036449432373,1001.9326,
2021.05.22 15:35:11,83.0,24.0,50.52,0.42,-20.22,-0.51714754,0.94810385,9.615114,0.009162978,-0.03176499,-0.034208454,-0.09814689308404922,0.053733084350824356,-1.516912579536438,1001.93555,
2021.05.22 15:35:11,83.0,24.0,51.059998,0.53999996,-20.34,-0.4261679,0.94331545,9.562442,0.0061086523,0.0036651916,-0.017715093,-0.0982329472899437,0.04453738033771515,-1.5159012079238892,1001.93555,
2021.05.22 15:35:11,83.0,24.0,50.82,0.29999998,-20.34,-0.51475334,0.9672575,9.629479,-0.0018325958,0.004276057,-0.026267206,-0.09996995329856873,0.05340515822172165,-1.518563151359558,1001.93555,
2021.05.22 15:35:11,83.0,24.0,51.059998,0.06,-20.46,-0.5291186,0.9672575,9.617508,-0.01038471,-0.008552114,-0.02321288,-0.10008518397808075,0.05496077984571457,-1.5230739116668701,1001.93555,
2021.05.22 15:35:11,83.0,24.0,51.12,-0.78,-20.76,-0.581791,0.9744401,9.622296,0.002443461,0.03176499,-0.020158553,-0.10074218362569809,0.060389284044504166,-1.5382945537567139,1001.93115,
2021.05.22 15:35:11,83.0,24.0,50.879997,-1.14,-20.699999,-0.45968673,0.91937345,9.710882,-0.023823744,-0.018325957,0.0067195175,-0.09428825229406357,0.047301966696977615,-1.54996919631958,1001.93115,
2021.05.22 15:35:11,83.0,24.0,50.64,-0.35999998,-20.699999,-0.545878,0.91937345,9.531317,0.007941248,0.020158553,-0.0036651916,-0.09600432962179184,0.057209547609090805,-1.5323290824890137,1001.93115,
2021.05.22 15:35:11,83.0,24.0,50.94,0.17999999,-20.22,-0.51235914,0.93373865,9.682152,-0.017104227,-0.02076942,0.0036651916,-0.09600833803415298,0.052868589758872986,-1.5231857299804688,1001.93115,
2021.05.22 15:35:11,83.0,24.0,51.059998,0.42,-19.5,-0.47165772,0.94331545,9.406818,-0.0030543262,-6.1086525E-4,0.013439035,-0.09982126951217651,0.050098028033971786,-1.5185927152633667,1001.92285,
2021.05.22 15:35:11,83.0,24.0,51.059998,0.24,-19.38,-0.47165772,0.9504981,9.830592,-0.031154128,-0.008552114,0.016493361,-0.09627809375524521,0.04794180393218994,-1.5241985321044922,1001.92285,
2021.05.22 15:35:11,83.0,24.0,51.42,-0.06,-19.38,-0.39983168,0.90500826,9.911995,-0.028099801,0.02321288,0.023823744,-0.09097830951213837,0.04031630605459213,-1.533502459526062,1001.92285,
2021.05.22 15:35:11,83.0,24.0,51.059998,-0.48,-19.08,-0.5410896,0.9911995,9.634268,0.004276057,0.0018325958,-0.007941248,-0.10236180573701859,0.056104082614183426,-1.5355138778686523,1001.92285,
2021.05.22 15:35:11,83.0,24.0,50.82,-0.59999996,-19.26,-0.641646,0.92655605,9.691729,0.014660766,-0.021991149,6.1086525E-4,-0.09510613232851028,0.0661090537905693,-1.5395238399505615,1001.9265,
2021.05.22 15:35:11,83.0,24.0,50.28,-0.24,-19.32,-0.4381389,0.93373865,9.485827,0.009162978,-0.03481932,0.029321533,-0.0980152115225792,0.046155985444784164,-1.5327730178833008,1001.9265,
2021.05.22 15:35:11,83.0,24.0,50.16,-0.48,-19.08,-0.4333505,0.85473,9.428367,0.0061086523,-0.007941248,0.035430185,-0.09031320363283157,0.04593009129166603,-1.5413784980773926,1001.9265,
2021.05.22 15:35:11,83.0,24.0,50.1,-0.42,-19.859999,-0.4141969,0.79487497,9.605537,-0.04520403,-0.01282817,0.050701816,-0.0824873223900795,0.04309394210577011,-1.542467713356018,1001.9265,
2021.05.22 15:35:12,83.0,24.0,49.86,-0.12,-20.1,-0.49320555,0.89543146,9.660604,-0.073303826,0.008552114,0.02565634,-0.09230536222457886,0.05100899562239647,-1.530524492263794,1001.9238,
2021.05.22 15:35:12,83.0,24.0,50.46,-0.24,-20.16,-0.4357447,0.91697925,9.730036,-0.06169739,-0.009162978,0.028710667,-0.09387106448411942,0.044753558933734894,-1.5332353115081787,1001.9238,
2021.05.22 15:35:12,83.0,24.0,50.34,0.12,-20.82,-0.44532153,0.842759,9.742006,-0.03970624,0.030543262,0.021991149,-0.08620334416627884,0.04567968100309372,-1.5280929803848267,1001.9238,
2021.05.22 15:35:12,83.0,24.0,50.34,-0.12,-20.82,-0.32321724,1.0079589,9.935937,-0.04520403,-0.06414085,0.004276057,-0.10104682296514511,0.0325186550617218,-1.527612566947937,1001.9238,
2021.05.22 15:35:12,83.0,24.0,50.7,0.06,-20.88,-0.38067806,0.89543146,9.655815,0.02443461,-0.017715093,0.0067195175,-0.09239909797906876,0.03940434008836746,-1.5273011922836304,1001.9204,
2021.05.22 15:35:12,83.0,24.0,50.52,0.24,-20.939999,-0.34715924,0.878672,9.773131,0.008552114,-0.005497787,0.005497787,-0.08960961550474167,0.035506874322891235,-1.5251495838165283,1001.9204,
2021.05.22 15:35:12,83.0,24.0,50.579998,-0.12,-20.88,-0.37349546,0.81642276,9.636662,0.030543262,-0.010995574,-0.004276057,-0.08445557206869125,0.038738373667001724,-1.534505009651184,1001.9204,
2021.05.22 15:35:12,83.0,24.0,50.579998,-0.17999999,-20.699999,-0.40701428,0.79008657,9.548077,0.029321533,0.0036651916,-0.014660766,-0.08248557895421982,0.042602092027664185,-1.5365301370620728,1001.9204,
2021.05.22 15:35:12,83.0,24.0,50.28,-0.53999996,-20.4,-0.36391866,0.79726917,9.562442,0.017715093,-0.03604105,-0.015882496,-0.08312277495861053,0.03803872689604759,-1.5442570447921753,1001.9219,
2021.05.22 15:35:12,83.0,24.0,50.52,-0.65999997,-20.64,-0.45489833,0.8475474,9.619903,0.009773844,0.023823744,-0.023823744,-0.08777904510498047,0.04725200682878494,-1.5433393716812134,1001.9219,
2021.05.22 15:35:12,83.0,24.0,50.7,-0.42,-20.279999,-0.48602295,0.8571242,9.758766,-0.009162978,-0.027488936,-0.019547688,-0.0874985009431839,0.04976261407136917,-1.53913152217865,1001.9219,
2021.05.22 15:35:12,83.0,24.0,50.94,-0.06,-19.98,-0.5554548,0.92655605,9.653421,0.01038471,0.0,-0.02443461,-0.09553195536136627,0.057476308196783066,-1.5281314849853516,1001.9219,
2021.05.22 15:35:12,83.0,24.0,51.3,0.17999999,-20.22,-0.48841715,0.9816227,9.615114,0.012217305,-0.0012217305,-0.0061086523,-0.10160903632640839,0.050753187388181686,-1.5212152004241943,1001.9263,
2021.05.22 15:35:12,83.0,24.0,51.18,0.35999998,-20.34,-0.46447513,0.90740246,9.651027,0.004886922,-0.0012217305,0.005497787,-0.09363800287246704,0.04808991029858589,-1.5212173461914062,1001.9263,
2021.05.22 15:35:12,83.0,24.0,50.82,-0.17999999,-20.22,-0.20590134,0.8523358,9.749189,0.0067195175,0.0,0.022602014,-0.08718524873256683,0.021116703748703003,-1.5375746488571167,1001.9263,
2021.05.22 15:35:12,83.0,24.0,51.539997,-0.48,-20.34,-0.31124622,0.8331822,9.689334,0.009773844,-0.021380283,-6.1086525E-4,-0.08573461323976517,0.0321115180850029,-1.5431931018829346,1001.9263,
2021.05.22 15:35:12,83.0,24.0,51.42,-0.48,-20.34,-0.37828386,0.8762778,9.665392,0.023823744,-0.007941248,-0.02321288,-0.09034541249275208,0.03911800682544708,-1.540419101715088,1001.9204,
2021.05.22 15:35:12,83.0,24.0,50.76,-0.78,-20.22,-0.48602295,0.92895025,9.545682,0.018325957,-0.036651913,-0.034208454,-0.09688608348369598,0.05087154731154442,-1.5420767068862915,1001.9204,
2021.05.22 15:35:12,83.0,24.0,50.34,-0.42,-20.58,-0.45729253,0.89782566,9.674969,0.022602014,-6.1086525E-4,-0.028099801,-0.0924311950802803,0.04723038151860237,-1.5363647937774658,1001.9204,
2021.05.22 15:35:12,83.0,24.0,49.86,-0.24,-20.76,-0.34955344,0.94331545,9.720459,0.0,-0.03481932,-0.017104227,-0.09667930006980896,0.0359451025724411,-1.5313575267791748,1001.9204,
2021.05.22 15:35:12,83.0,24.0,49.98,-0.48,-20.699999,-0.3878607,0.93852705,9.694122,0.020158553,-6.1086525E-4,-0.022602014,-0.09643656015396118,0.03998855501413345,-1.5360702276229858,1001.9153,
2021.05.22 15:35:12,83.0,24.0,50.28,-0.48,-20.88,-0.35673606,0.90740246,9.809045,0.014049901,-0.004886922,-0.027488936,-0.09218358993530273,0.03635205328464508,-1.5382533073425293,1001.9153,
2021.05.22 15:35:12,83.0,24.0,50.82,-0.71999997,-20.76,-0.39264908,0.8882488,9.385271,0.04520403,-0.043982297,-0.03481932,-0.09427979588508606,0.04181234911084175,-1.5420348644256592,1001.9153,
2021.05.22 15:35:12,83.0,24.0,50.34,-0.71999997,-20.76,-0.4381389,0.94570965,9.562442,0.019547688,-0.014660766,-0.039095376,-0.0984751358628273,0.04578670486807823,-1.5394119024276733,1001.9153,
2021.05.22 15:35:12,83.0,24.0,50.28,-0.65999997,-21.0,-0.4261679,0.9600749,9.56723,0.01038471,-0.0030543262,-0.02687807,-0.09991710633039474,0.04451511800289154,-1.5371513366699219,1001.9199,
2021.05.22 15:35:13,83.0,24.0,50.34,-0.35999998,-20.4,-0.3854665,0.90021986,9.847352,-0.019547688,0.027488936,-0.01282817,-0.09109468758106232,0.039124201983213425,-1.5369741916656494,1001.9199,
2021.05.22 15:35:13,83.0,24.0,50.039997,-0.53999996,-20.1,-0.3854665,0.9576807,9.660604,-0.004886922,0.002443461,-0.015882496,-0.09873171895742416,0.03987971320748329,-1.5374950170516968,1001.9199,
2021.05.22 15:35:13,83.0,24.0,50.399998,-0.48,-20.52,-0.49081135,0.9552865,9.718064,0.002443461,0.025045475,-0.021991149,-0.09786135703325272,0.05046217516064644,-1.5348479747772217,1001.9199,
2021.05.22 15:35:13,83.0,24.0,50.34,0.17999999,-20.46,-0.49320555,0.9888053,9.65821,0.009773844,-0.009773844,-0.012217305,-0.10189244896173477,0.05102161690592766,-1.5196819305419922,1001.9209,
2021.05.22 15:35:13,83.0,24.0,50.219997,0.17999999,-21.06,-0.4237737,0.9888053,9.667787,0.010995574,0.0030543262,0.007330383,-0.10182683169841766,0.04380553960800171,-1.5192408561706543,1001.9209,
2021.05.22 15:35:13,83.0,24.0,50.399998,0.35999998,-21.3,-0.37588966,0.9624691,9.739613,0.005497787,0.02443461,0.012217305,-0.09842745214700699,0.03857475891709328,-1.5175409317016602,1001.9209,
2021.05.22 15:35:13,83.0,24.0,50.28,0.65999997,-20.699999,-0.38307226,1.0295067,9.718064,0.01282817,-0.021380283,-0.0012217305,-0.1054624691605568,0.039398178458213806,-1.5093239545822144,1001.9209,
2021.05.22 15:35:13,83.0,24.0,50.399998,0.65999997,-20.88,-0.3854665,1.0414777,9.560047,0.032375857,0.012217305,-0.005497787,-0.1084253117442131,0.04029873386025429,-1.5076003074645996,1001.9209,
2021.05.22 15:35:13,83.0,24.0,50.46,0.78,-20.939999,-0.37110126,0.9935937,9.77792,0.004886922,-0.010995574,0.0012217305,-0.10119609534740448,0.03793478012084961,-1.5087507963180542,1001.9209,
2021.05.22 15:35:13,83.0,24.0,50.64,0.96,-21.0,-0.260968,1.0055647,9.660604,0.023823744,-0.004886922,0.0018325958,-0.10367818176746368,0.02700706571340561,-1.5055817365646362,1001.9209,
2021.05.22 15:35:13,83.0,24.0,50.7,0.71999997,-21.3,-0.38307226,1.0199299,9.536105,0.03970624,-0.04337143,-0.020158553,-0.10646428912878036,0.04014914110302925,-1.5067578554153442,1001.9209,
2021.05.22 15:35:13,83.0,24.0,50.7,0.17999999,-21.539999,-0.36391866,0.9504981,9.672575,0.018936822,-0.0036651916,-0.009773844,-0.09788402915000916,0.037606023252010345,-1.5213125944137573,1001.9343,
2021.05.22 15:35:13,83.0,24.0,50.579998,-0.42,-21.119999,-0.48123455,1.0223241,9.634268,0.013439035,-0.008552114,-0.02076942,-0.10558705031871796,0.049908820539712906,-1.5289441347122192,1001.9343,
2021.05.22 15:35:13,83.0,24.0,50.64,-0.17999999,-21.18,-0.545878,1.1085154,9.662998,0.009773844,-0.028710667,-0.020158553,-0.11403800547122955,0.0564315989613533,-1.5191367864608765,1001.9343,
2021.05.22 15:35:13,83.0,24.0,50.64,-0.35999998,-21.06,-0.37588966,1.115698,9.44752,0.029321533,0.022602014,0.0012217305,-0.11745774000883102,0.03976614773273468,-1.5237189531326294,1001.9343,
2021.05.22 15:35:13,83.0,24.0,51.0,-0.42,-20.76,-0.35913026,1.0462662,9.816227,-0.009162978,-0.005497787,0.017715093,-0.10611402988433838,0.036569055169820786,-1.5314360857009888,1001.9326,
2021.05.22 15:35:13,83.0,24.0,51.18,0.24,-21.119999,-0.320823,0.9840169,9.763555,-0.0012217305,0.0061086523,0.022602014,-0.1003917008638382,0.03284742683172226,-1.5208402872085571,1001.9326,
2021.05.22 15:35:13,83.0,24.0,51.0,0.0,-20.939999,-0.30885202,0.9864111,9.698911,0.028099801,-0.028099801,0.012217305,-0.10130378603935242,0.031833235174417496,-1.5254911184310913,1001.9326,
2021.05.22 15:35:13,83.0,24.0,50.82,0.35999998,-21.06,-0.47165772,1.0055647,9.572019,0.050701816,0.008552114,0.0018325958,-0.10454269498586655,0.04923481494188309,-1.5142613649368286,1001.9326,
2021.05.22 15:35:13,83.0,24.0,50.34,0.42,-21.0,-0.6536171,1.067814,10.113108,0.03359759,-0.055588737,-0.008552114,-0.10497993230819702,0.06454092264175415,-1.5104399919509888,1001.9231,
2021.05.22 15:35:13,83.0,24.0,50.219997,-0.06,-20.88,-0.17238252,1.0749966,9.143456,0.09896017,-0.12644911,0.043982297,-0.11701217293739319,0.018850868567824364,-1.5208927392959595,1001.9231,
2021.05.22 15:35:13,83.0,24.0,50.28,0.0,-20.699999,-0.60333884,1.0151415,10.170568,-0.03848451,0.07513642,-0.004886922,-0.09930875152349472,0.05925259739160538,-1.522964596748352,1001.9231,
2021.05.22 15:35:13,83.0,24.0,50.46,-0.42,-21.119999,-0.1604115,0.7398083,9.876082,0.03481932,-0.095294975,0.05497787,-0.07475961744785309,0.01624099351465702,-1.5464622974395752,1001.9231,
