Time,X-cord,Y-cord,Mag_x,Mag_y,Mag_z,Acc_x,Acc_y,Acc_z,Gyro_x,Gyro_y,Gyro_z,Orn_x,Orn_y,Orn_z,Pressure,
2021.05.22 15:28:58,51.0,24.0,30.119999,4.5,-18.84,-0.10055647,1.2689269,9.61272,-0.009162978,-0.044593163,0.015882496,-0.13123907148838043,0.010460390709340572,-1.3420013189315796,1001.94385,
2021.05.22 15:28:58,51.0,24.0,29.939999,4.74,-19.08,0.055066638,1.0486604,9.859323,-0.05009095,0.06841691,0.019547688,-0.10596228390932083,-0.005585177335888147,-1.350961685180664,1001.94385,
2021.05.22 15:28:58,51.0,24.0,29.519999,4.62,-19.08,-0.031124622,0.9911995,9.548077,-0.007330383,-0.03176499,-0.028710667,-0.10344036668539047,0.003259767545387149,-1.3511825799942017,1001.94385,
2021.05.22 15:28:58,51.0,24.0,29.82,4.2599998,-19.02,-0.1604115,1.0247183,9.239224,0.020158553,-0.012217305,-0.044593163,-0.11044161766767502,0.0173602644354105,-1.3574721813201904,1001.94385,
2021.05.22 15:28:58,51.0,24.0,30.179998,4.38,-19.02,0.06703765,1.0007763,9.509769,-0.040317107,-0.02687807,-0.0061086523,-0.10484813153743744,-0.007049228996038437,-1.3651190996170044,1001.93677,
2021.05.22 15:28:58,51.0,24.0,30.72,4.2599998,-18.539999,-0.045489833,0.94331545,9.7324295,-0.03604105,-0.027488936,-0.042760566,-0.09662210196256638,0.0046740127727389336,-1.3760404586791992,1001.93677,
2021.05.22 15:28:58,51.0,24.0,30.9,4.56,-18.6,-0.15562311,0.8858546,9.933543,-0.03481932,-0.015271631,-0.06780604,-0.08893197774887085,0.015665143728256226,-1.3697667121887207,1001.93677,
2021.05.22 15:28:58,51.0,24.0,31.08,4.92,-18.3,-0.30645782,0.80205756,9.938332,-0.022602014,-0.03176499,-0.080634214,-0.08049082010984421,0.030826173722743988,-1.362343430519104,1001.93677,
2021.05.22 15:28:58,51.0,24.0,30.96,4.3199997,-18.06,-0.51714754,0.7302315,9.497798,0.01038471,-0.076358154,-0.07147124,-0.07662028819322586,0.05439549311995506,-1.378865361213684,1001.9321,
2021.05.22 15:28:58,51.0,24.0,30.72,4.62,-18.359999,-0.20590134,0.79008657,9.583989,-0.049480084,-0.057421334,-0.016493361,-0.08223328739404678,0.021480582654476166,-1.3701480627059937,1001.9321,
2021.05.22 15:28:58,51.0,24.0,30.96,4.8599997,-18.66,-0.20829555,0.6655881,9.617508,-0.065973446,-0.021991149,-0.012217305,-0.06907955557107925,0.02165457047522068,-1.3711154460906982,1001.9321,
2021.05.22 15:28:58,51.0,24.0,30.84,4.38,-18.9,-0.1340753,0.6679823,9.749189,-0.049480084,-0.05131268,0.007330383,-0.06840333342552185,0.013751588761806488,-1.3868005275726318,1001.9321,
2021.05.22 15:28:58,51.0,24.0,31.26,4.92,-19.26,-0.06464344,0.78290397,10.156203,-0.07696902,-0.03604105,0.02076942,-0.07693257927894592,0.006364836357533932,-1.3680452108383179,1001.9363,
2021.05.22 15:28:58,51.0,24.0,31.199999,4.92,-19.74,-0.32800564,0.9576807,9.76116,0.0018325958,-0.06047566,-0.0067195175,-0.09774354845285416,0.03359050303697586,-1.3476988077163696,1001.9363,
2021.05.22 15:28:58,51.0,24.0,31.08,4.92,-19.439999,-0.2825158,1.0654198,9.7084875,0.018936822,-0.06658431,0.03848451,-0.10925780236721039,0.029091667383909225,-1.3418411016464233,1001.9363,
2021.05.22 15:28:58,51.0,24.0,31.32,5.3399997,-19.38,0.021547815,1.0031705,9.883265,-0.017104227,-0.037873644,0.08674286,-0.10115526616573334,-0.0021802291739732027,-1.3432279825210571,1001.9363,
2021.05.22 15:28:59,51.0,24.0,30.84,5.04,-19.26,-0.033518825,0.91937345,9.80665,0.0030543262,0.017715093,0.059864793,-0.09347623586654663,0.0034179554786533117,-1.3525333404541016,1001.94336,
2021.05.22 15:28:59,51.0,24.0,30.84,4.62,-18.9,0.2896984,0.78290397,9.811439,0.0012217305,0.02687807,0.059864793,-0.079591765999794,-0.029518021270632744,-1.380820631980896,1001.94336,
2021.05.22 15:28:59,51.0,24.0,30.539999,4.62,-18.84,0.4189853,0.7541735,9.873688,0.022602014,0.036651913,0.03481932,-0.07616584748029709,-0.04240908846259117,-1.3833048343658447,1001.94336,
2021.05.22 15:28:59,51.0,24.0,30.3,4.62,-18.84,-0.08379706,0.7278373,9.866506,0.04153884,0.044593163,-0.0580322,-0.07363247871398926,0.008492879569530487,-1.3738932609558105,1001.94336,
2021.05.22 15:28:59,51.0,24.0,30.3,4.62,-18.779999,-0.17717093,0.79248077,9.476251,0.07452556,-0.03970624,-0.049480084,-0.08341944217681885,0.018694132566452026,-1.3661245107650757,1001.9414,
2021.05.22 15:28:59,51.0,24.0,30.42,4.8599997,-18.779999,-0.19153613,0.91697925,9.208099,0.065973446,-0.052534413,-0.040317107,-0.0992354229092598,0.020797833800315857,-1.3493613004684448,1001.9414,
2021.05.22 15:28:59,51.0,24.0,30.48,4.56,-19.26,-0.1364695,1.055843,9.375694,0.04886922,-0.004886922,-0.058643065,-0.11213066428899765,0.014554640278220177,-1.3513208627700806,1001.9414,
2021.05.22 15:28:59,51.0,24.0,30.599998,4.56,-19.26,-0.30885202,1.2138603,9.461885,0.027488936,0.02076942,-0.069027774,-0.12752534449100494,0.032630112022161484,-1.338131070137024,1001.9414,
2021.05.22 15:28:59,51.0,24.0,30.779999,5.1,-19.5,-0.41180268,1.1875241,9.603143,0.040317107,0.01160644,-0.048258353,-0.12292350083589554,0.042855821549892426,-1.3216406106948853,1001.9429,
2021.05.22 15:28:59,51.0,24.0,30.72,5.04,-19.619999,-0.4429273,1.1180922,9.751583,0.02565634,0.01038471,0.027488936,-0.11404242366552353,0.045389868319034576,-1.3275012969970703,1001.9429,
2021.05.22 15:28:59,51.0,24.0,30.96,4.98,-19.08,-0.21068975,1.0319009,9.895236,-0.0036651916,-0.015271631,0.077579886,-0.10388363897800446,0.02128882333636284,-1.345542311668396,1001.9429,
2021.05.22 15:28:59,51.0,24.0,31.32,4.68,-19.32,-0.1412579,1.0702082,9.758766,-0.013439035,-0.009773844,0.07696902,-0.10921849310398102,0.014473963528871536,-1.3548898696899414,1001.9429,
2021.05.22 15:28:59,51.0,24.0,31.619999,4.5,-19.32,-0.33997664,1.1611878,9.23683,0.06169739,0.017715093,0.017104227,-0.12497302144765854,0.03679002821445465,-1.3474290370941162,1001.938,
2021.05.22 15:28:59,51.0,24.0,31.74,4.14,-19.38,-0.28491,1.13964,9.61272,-0.0036651916,0.06169739,0.06719518,-0.11795329302549362,0.029630180448293686,-1.3650457859039307,1001.938,
2021.05.22 15:28:59,51.0,24.0,31.679998,4.2,-19.619999,-0.17477672,1.1540052,9.809045,-0.019547688,0.059253927,0.09407325,-0.11709032207727432,0.017816029489040375,-1.3653169870376587,1001.938,
2021.05.22 15:28:59,51.0,24.0,31.32,4.08,-19.26,-0.1604115,1.316811,10.177752,-0.018325957,0.032986723,0.08857546,-0.1286507546901703,0.01575969159603119,-1.3617161512374878,1001.938,
2021.05.22 15:28:59,51.0,24.0,31.08,4.08,-19.199999,-0.18674773,1.2880806,9.344569,0.08124508,-0.005497787,0.065973446,-0.1369524747133255,0.01998196728527546,-1.3543860912322998,1001.92944,
2021.05.22 15:28:59,51.0,24.0,30.9,4.2599998,-19.02,0.009576807,1.30484,9.208099,0.054367006,-0.023823744,0.09040806,-0.14076834917068481,-0.0010400412138551474,-1.351792335510254,1001.92944,
2021.05.22 15:28:59,51.0,24.0,31.08,4.2,-18.84,0.20590134,1.0606314,10.077195,-0.03726278,0.08246681,0.100792766,-0.10484284162521362,-0.020429564639925957,-1.3798267841339111,1001.92944,
2021.05.22 15:28:59,51.0,24.0,31.32,4.2,-19.14,0.11971009,1.0582372,9.782708,0.040927973,6.1086525E-4,0.026267206,-0.10774725675582886,-0.012236296199262142,-1.376993179321289,1001.92944,
2021.05.22 15:28:59,51.0,24.0,31.08,3.84,-19.32,-0.19393034,1.0342951,9.531317,0.06414085,-0.002443461,-0.032375857,-0.10807028412818909,0.02034384198486805,-1.3786367177963257,1001.9331,
2021.05.22 15:28:59,51.0,24.0,30.599998,4.02,-19.38,-0.21547815,1.1228806,9.23683,0.05681047,-0.029321533,-0.02687807,-0.12093941867351532,0.023323919624090195,-1.3611090183258057,1001.9331,
2021.05.22 15:28:59,51.0,24.0,30.599998,3.72,-19.5,-0.23463176,1.1707647,9.241618,0.0030543262,-0.044593163,-0.018325957,-0.12597252428531647,0.025383148342370987,-1.3664379119873047,1001.9331,
2021.05.22 15:28:59,51.0,24.0,30.539999,3.3,-19.56,-0.21547815,1.1994951,9.801862,-0.06658431,0.02076942,-0.01038471,-0.12173963338136673,0.02197984978556633,-1.3826385736465454,1001.9331,
2021.05.22 15:28:59,51.0,24.0,30.9,3.48,-19.199999,-0.18435353,1.2593501,10.043676,-0.06963864,0.02565634,-0.010995574,-0.12471558898687363,0.01835312321782112,-1.379611611366272,1001.9419,
2021.05.22 15:29:00,51.0,24.0,31.199999,3.72,-19.02,-0.16519992,1.2761095,9.880871,-0.017715093,-0.0067195175,-0.02321288,-0.12842079997062683,0.016717609018087387,-1.3728982210159302,1001.9419,
2021.05.22 15:29:00,51.0,24.0,31.08,4.14,-19.199999,-0.23942018,1.30484,9.631873,0.021991149,-0.004276057,-0.03359759,-0.13461023569107056,0.024851955473423004,-1.3526380062103271,1001.9419,
2021.05.22 15:29:00,51.0,24.0,30.3,4.92,-19.38,-0.19393034,1.2210429,9.701305,0.015271631,-0.0067195175,-0.0061086523,-0.12518063187599182,0.01998746581375599,-1.328978419303894,1001.9419,
2021.05.22 15:29:00,51.0,24.0,30.3,4.7999997,-19.68,-0.059855044,1.0845734,9.653421,0.015882496,0.002443461,0.018325957,-0.1118798777461052,0.006200317293405533,-1.3432389497756958,1001.9448,
2021.05.22 15:29:00,51.0,24.0,30.48,4.14,-20.279999,-0.079008654,0.9911995,9.631873,0.016493361,-0.01160644,0.0036651916,-0.10254386812448502,0.008202649652957916,-1.3684194087982178,1001.9448,
2021.05.22 15:29:00,51.0,24.0,30.179998,3.6599998,-20.4,-0.17956513,0.9888053,9.552865,0.03176499,-0.0061086523,-0.022602014,-0.10312337428331375,0.018794778734445572,-1.3785603046417236,1001.9448,
2021.05.22 15:29:00,51.0,24.0,30.539999,3.4199998,-20.22,-0.24660277,1.0534488,9.753978,-0.009773844,-0.002443461,-0.03726278,-0.10755085200071335,0.025276891887187958,-1.384666919708252,1001.9448,
2021.05.22 15:29:00,51.0,24.0,30.539999,3.36,-20.1,-0.24899697,1.1947067,9.416395,0.013439035,-0.009162978,-0.039095376,-0.1261572539806366,0.026436759158968925,-1.3745733499526978,1001.9487,
2021.05.22 15:29:00,51.0,24.0,30.66,3.84,-19.74,-0.4285621,1.271321,9.502586,0.002443461,-0.01038471,-0.040317107,-0.13286364078521729,0.04506898298859596,-1.3523602485656738,1001.9487,
2021.05.22 15:29:00,51.0,24.0,30.84,4.2599998,-19.56,-0.24660277,1.2401965,9.967062,-0.0421497,0.037873644,0.002443461,-0.12375573068857193,0.02473672479391098,-1.352391004562378,1001.9487,
2021.05.22 15:29:00,51.0,24.0,31.199999,4.2599998,-18.96,-0.18195933,1.1971009,9.763555,-0.008552114,0.030543262,0.014049901,-0.1219792440533638,0.018634429201483727,-1.359801173210144,1001.9487,
2021.05.22 15:29:00,51.0,24.0,31.26,4.62,-18.84,-0.24420857,1.2066777,9.648633,0.03481932,0.0061086523,-0.009773844,-0.12437665462493896,0.025304771959781647,-1.3465481996536255,1001.9531,
2021.05.22 15:29:00,51.0,24.0,31.619999,4.44,-18.539999,-0.18674773,1.1731589,9.6845455,0.012217305,0.013439035,0.0036651916,-0.12052766233682632,0.019280675798654556,-1.359336256980896,1001.9531,
2021.05.22 15:29:00,51.0,24.0,31.619999,4.14,-18.42,-0.2681506,1.1324574,9.560047,0.021380283,6.1086525E-4,0.0036651916,-0.11786192655563354,0.028041737154126167,-1.3683818578720093,1001.9531,
2021.05.22 15:29:00,51.0,24.0,31.92,3.72,-18.72,-0.29448682,1.151611,9.696517,-0.0030543262,0.012217305,0.01038471,-0.11815772205591202,0.03036103956401348,-1.381186842918396,1001.9531,
2021.05.22 15:29:00,51.0,24.0,31.98,3.6,-19.02,-0.21068975,1.0965444,9.89763,-0.023823744,0.028710667,0.017715093,-0.11031381785869598,0.021283674985170364,-1.3907326459884644,1001.9509,
2021.05.22 15:29:00,51.0,24.0,31.32,3.1799998,-18.779999,-0.02633622,1.1133038,9.720459,-0.010995574,-0.047647487,0.015271631,-0.11403471976518631,0.002709353109821677,-1.4027109146118164,1001.9509,
2021.05.22 15:29:00,51.0,24.0,31.32,3.12,-18.779999,-0.33997664,1.1827357,9.064447,0.029932396,-0.096516706,-0.017104227,-0.1296575665473938,0.03748903051018715,-1.387481451034546,1001.9509,
2021.05.22 15:29:00,51.0,24.0,31.38,3.12,-18.779999,-0.2633622,1.0199299,9.222465,-0.030543262,-0.086132,0.053145275,-0.11009978502988815,0.028548836708068848,-1.4017475843429565,1001.9509,
2021.05.22 15:29:00,51.0,24.0,31.199999,3.1799998,-18.66,-0.25378537,0.9911995,9.440337,-0.09468412,-0.07880162,0.081855945,-0.10457539558410645,0.02687660977244377,-1.4030259847640991,1001.9502,
2021.05.22 15:29:00,51.0,24.0,31.32,3.78,-18.9,-0.2681506,0.93852705,9.560047,-0.12950343,-0.084910266,0.089186326,-0.09782000631093979,0.02804173342883587,-1.3878980875015259,1001.9502,
2021.05.22 15:29:00,51.0,24.0,31.5,4.2,-18.9,-0.18195933,0.8834604,9.662998,-0.14049901,-0.07819075,0.09712757,-0.09115760773420334,0.01882830075919628,-1.3817822933197021,1001.9502,
2021.05.22 15:29:00,51.0,24.0,31.08,4.3199997,-19.38,-0.06703765,0.91219085,9.981427,-0.15515977,-0.040927973,0.09162979,-0.09113361686468124,0.0067161382175982,-1.3766673803329468,1001.9502,
2021.05.22 15:29:00,51.0,24.0,30.72,4.44,-19.5,-0.08140286,0.94570965,9.888053,-0.10323623,-0.048258353,0.07391469,-0.09534840285778046,0.00823226012289524,-1.3674722909927368,1001.95776,
2021.05.22 15:29:00,51.0,24.0,31.019999,4.08,-19.5,-0.08619126,0.8810662,9.952697,-0.086132,-0.013439035,0.08002335,-0.08829190582036972,0.008659874089062214,-1.384734034538269,1001.95776,
2021.05.22 15:29:01,51.0,24.0,31.08,4.2599998,-19.68,-0.12689269,0.830788,9.737218,-0.036651913,-0.03359759,0.096516706,-0.08510755002498627,0.01303098164498806,-1.3800365924835205,1001.95776,
2021.05.22 15:29:01,51.0,24.0,31.08,3.9599998,-20.039999,-0.055066638,0.8858546,9.528923,-0.036651913,-0.119729586,0.108123146,-0.09269684553146362,0.005778830032795668,-1.3851710557937622,1001.95776,
2021.05.22 15:29:01,51.0,24.0,31.26,3.72,-20.039999,0.10055647,0.7422025,9.703699,-0.06352998,-0.05131268,0.15882497,-0.07633384317159653,-0.010362324304878712,-1.4066280126571655,1001.9402,
2021.05.22 15:29:01,51.0,24.0,31.019999,3.84,-20.4,0.07182605,0.7517793,9.562442,-0.049480084,-0.077579886,0.14782938,-0.07845434546470642,-0.007511124946177006,-1.3989968299865723,1001.9402,
2021.05.22 15:29:01,51.0,24.0,30.48,3.6,-20.58,0.36870706,0.8379706,9.217676,-0.042760566,-0.14966199,0.17165314,-0.09058784693479538,-0.03997868672013283,-1.4018467664718628,1001.9402,
2021.05.22 15:29:01,51.0,24.0,30.179998,3.84,-20.34,0.33039984,0.93613285,9.445126,-0.045814894,-0.14355333,0.13805555,-0.09873016923666,-0.03496672958135605,-1.3875654935836792,1001.9402,
2021.05.22 15:29:01,51.0,24.0,30.539999,3.4199998,-21.06,0.1412579,1.0007763,9.964667,-0.06780604,-0.01038471,0.077579886,-0.10008684545755386,-0.014174927957355976,-1.395426630973816,1001.93994,
2021.05.22 15:29:01,51.0,24.0,30.119999,3.06,-20.76,0.021547815,1.0366893,10.168175,-0.028710667,0.06169739,0.014660766,-0.10160301625728607,-0.0021191395353525877,-1.4019060134887695,1001.93994,
2021.05.22 15:29:01,51.0,24.0,30.539999,2.58,-20.4,0.23463176,1.0390835,10.206482,0.014660766,0.039095376,0.021380283,-0.10143006592988968,-0.02298445627093315,-1.4247268438339233,1001.93994,
2021.05.22 15:29:01,51.0,24.0,30.539999,2.46,-19.859999,0.260968,0.89064306,10.1226845,0.06536258,0.07147124,0.022602014,-0.08772987872362137,-0.025774803012609482,-1.438808560371399,1001.93994,
2021.05.22 15:29:01,51.0,24.0,30.42,2.8799999,-19.26,0.39025488,0.7110779,9.605537,0.13316862,0.042760566,0.010995574,-0.0738324448466301,-0.04060578718781471,-1.436867594718933,1001.9341,
2021.05.22 15:29:01,51.0,24.0,30.96,2.7,-19.619999,0.3878607,0.7206547,8.889671,0.15760323,-0.015271631,-0.01282817,-0.08081308752298355,-0.0436028316617012,-1.4405184984207153,1001.9341,
2021.05.22 15:29:01,51.0,24.0,30.84,2.6399999,-19.92,0.21308395,0.7781156,8.9040365,0.12461651,0.10445796,-0.0720821,-0.08714281767606735,-0.023926595225930214,-1.4343366622924805,1001.9341,
2021.05.22 15:29:01,51.0,24.0,31.08,2.46,-20.22,-0.009576807,0.8403648,9.655815,0.018325957,0.1740966,-0.11484267,-0.08681319653987885,9.91817214526236E-4,-1.4361815452575684,1001.9341,
2021.05.22 15:29:01,51.0,24.0,31.019999,2.28,-20.58,-0.12689269,0.8619126,9.169792,-0.02565634,0.0580322,-0.07819075,-0.0937105044722557,0.013837236911058426,-1.4338328838348389,1001.9321,
2021.05.22 15:29:01,51.0,24.0,31.199999,2.46,-20.46,-0.21308395,0.9552865,9.629479,-0.119729586,0.12767084,-0.047036625,-0.09885680675506592,0.02212468348443508,-1.424325942993164,1001.9321,
2021.05.22 15:29:01,51.0,24.0,31.32,2.6399999,-20.22,0.33758244,0.7781156,10.431537,-0.07269296,0.111177474,-0.029321533,-0.0744159147143364,-0.03235042840242386,-1.444433331489563,1001.9321,
2021.05.22 15:29:01,51.0,24.0,31.5,2.9399998,-19.98,-0.31124622,0.9864111,9.696517,0.13561209,0.081855945,-0.18325958,-0.1013278216123581,0.032087747007608414,-1.4085921049118042,1001.9321,
2021.05.22 15:29:01,51.0,24.0,31.8,3.1799998,-19.08,-0.31124622,1.0103531,9.969456,0.09285152,0.07391469,-0.124005646,-0.1009511649608612,0.03120984323322773,-1.4060354232788086,1001.9512,
2021.05.22 15:29:01,51.0,24.0,31.5,3.1799998,-19.02,-0.22266077,1.0151415,10.314221,0.08368854,0.047647487,-0.069027774,-0.09808286279439926,0.021584391593933105,-1.408370852470398,1001.9512,
2021.05.22 15:29:01,51.0,24.0,31.619999,3.36,-18.96,-0.38307226,1.1563994,9.844957,0.14844026,-0.017104227,-0.06414085,-0.11683768779039383,0.038890887051820755,-1.388489842414856,1001.9512,
2021.05.22 15:29:01,51.0,24.0,31.8,3.1799998,-19.14,-0.3184288,1.067814,9.229648,0.13988814,-0.040317107,-0.013439035,-0.11511393636465073,0.03448696807026863,-1.3964345455169678,1001.9512,
2021.05.22 15:29:01,51.0,24.0,31.74,3.48,-19.439999,-0.09816227,1.0582372,9.351752,0.06352998,-0.008552114,0.015882496,-0.11267376691102982,0.010496285744011402,-1.3925541639328003,1001.9436,
2021.05.22 15:29:01,51.0,24.0,31.679998,3.6,-18.96,0.04309563,1.0534488,9.174581,0.03970624,0.031154128,0.0,-0.11432065069675446,-0.004697251599282026,-1.3925833702087402,1001.9436,
2021.05.22 15:29:01,51.0,24.0,31.56,3.6,-18.779999,0.110133275,1.0534488,9.490616,-0.013439035,-0.0030543262,-0.009773844,-0.11053907126188278,-0.011603917926549911,-1.3960723876953125,1001.9436,
2021.05.22 15:29:02,51.0,24.0,31.14,3.6599998,-18.48,0.08140286,1.0319009,9.631873,-0.030543262,0.06841691,-0.040927973,-0.1067231148481369,-0.008451203815639019,-1.394360899925232,1001.9436,
2021.05.22 15:29:02,51.0,24.0,31.199999,3.6599998,-18.359999,0.02633622,1.055843,9.861717,-0.04520403,0.028099801,-0.06841691,-0.10665813833475113,-0.0026705448981374502,-1.3939419984817505,1001.9365,
2021.05.22 15:29:02,51.0,24.0,31.5,3.48,-18.84,-0.24899697,1.0821792,9.770737,-0.023823744,-0.013439035,-0.099571034,-0.11027207970619202,0.025478435680270195,-1.3915150165557861,1001.9365,
2021.05.22 15:29:02,51.0,24.0,31.619999,3.48,-18.9,-0.32321724,1.0582372,9.65821,0.004886922,-0.019547688,-0.09773844,-0.10907275974750519,0.03345305845141411,-1.3909507989883423,1001.9365,
2021.05.22 15:29:02,51.0,24.0,31.679998,3.6,-18.72,-0.40940848,1.1109096,9.533711,0.016493361,-0.03481932,-0.08735373,-0.1158953607082367,0.04291687533259392,-1.381949543952942,1001.9365,
2021.05.22 15:29:02,51.0,24.0,31.439999,2.8799999,-18.96,-0.2753332,1.0366893,9.56723,0.004886922,-0.03359759,-0.05497787,-0.10789289325475693,0.02877083607017994,-1.4102336168289185,1001.94214,
2021.05.22 15:29:02,51.0,24.0,31.56,3.1799998,-18.6,-0.16519992,1.0127473,9.91439,-0.05131268,0.007941248,-0.036651913,-0.10178212076425552,0.01666109822690487,-1.4087955951690674,1001.94214,
2021.05.22 15:29:02,51.0,24.0,30.84,3.06,-18.779999,-0.110133275,1.115698,9.67018,-0.018325957,-0.02687807,-0.0421497,-0.11485981941223145,0.011388465762138367,-1.4015755653381348,1001.94214,
2021.05.22 15:29:02,51.0,24.0,30.599998,3.12,-19.199999,-0.10534488,1.1228806,9.411607,0.014049901,-0.037873644,-0.050701816,-0.11873938143253326,0.011192613281309605,-1.3944915533065796,1001.94214,
2021.05.22 15:29:02,51.0,24.0,30.66,3.4199998,-18.779999,-0.23223756,1.1444284,9.85214,-0.015271631,-0.0018325958,-0.05375614,-0.1156102865934372,0.02356792986392975,-1.3860218524932861,1001.9468,
2021.05.22 15:29:02,51.0,24.0,30.599998,3.84,-19.199999,-0.23463176,1.0079589,9.7563715,-0.029321533,-0.026267206,-0.05009095,-0.1029181033372879,0.024044446647167206,-1.378469705581665,1001.9468,
2021.05.22 15:29:02,51.0,24.0,31.199999,3.8999999,-19.199999,-0.37110126,1.0007763,9.533711,0.0030543262,-0.07941248,-0.061086524,-0.10451075434684753,0.03890551999211311,-1.3759033679962158,1001.9468,
2021.05.22 15:29:02,51.0,24.0,31.439999,3.4199998,-19.14,-0.11731588,0.93852705,9.667787,-0.017104227,-0.027488936,0.004276057,-0.09676744043827057,0.012134123593568802,-1.4028722047805786,1001.9468,
2021.05.22 15:29:02,51.0,24.0,31.679998,3.4199998,-19.26,-0.25378537,0.9600749,9.603143,-0.012217305,0.020158553,-0.0012217305,-0.09960942715406418,0.02642117626965046,-1.3991737365722656,1001.949,
2021.05.22 15:29:02,51.0,24.0,31.199999,3.1799998,-18.96,-0.21547815,0.9792285,9.5385,-0.02321288,-0.02076942,-0.0012217305,-0.10227633267641068,0.0225865188986063,-1.4042783975601196,1001.949,
2021.05.22 15:29:02,51.0,24.0,31.199999,3.06,-19.38,-0.2801216,1.0606314,9.557653,-0.04337143,0.02321288,0.026267206,-0.11047270148992538,0.029300227761268616,-1.4001024961471558,1001.949,
2021.05.22 15:29:02,51.0,24.0,31.32,3.84,-19.38,-0.31603462,1.0726024,9.753978,-0.06719518,0.036651913,0.049480084,-0.10946857929229736,0.03238925710320473,-1.376261591911316,1001.949,
2021.05.22 15:29:02,51.0,24.0,31.5,4.02,-19.439999,-0.49081135,1.0606314,9.816227,-0.061086524,0.054367006,0.069027774,-0.10749797523021698,0.04995839297771454,-1.368652105331421,1001.9487,
2021.05.22 15:29:02,51.0,24.0,31.859999,4.02,-19.619999,-0.545878,1.0007763,9.653421,-0.040317107,0.06169739,0.12767084,-0.10313800722360611,0.05648745968937874,-1.3715132474899292,1001.9487,
2021.05.22 15:29:02,51.0,24.0,31.619999,4.14,-19.38,-0.09816227,1.043872,9.782708,-0.08246681,0.03970624,0.19547687,-0.1062982827425003,0.010033925995230675,-1.3758013248443604,1001.9487,
2021.05.22 15:29:02,51.0,24.0,31.38,3.9599998,-19.26,0.15801731,0.92176765,10.180145,-0.077579886,0.02687807,0.15699236,-0.09028857201337814,-0.015520861372351646,-1.3946973085403442,1001.9487,
2021.05.22 15:29:02,51.0,24.0,30.9,3.9599998,-19.14,-0.0047884034,1.0079589,9.703699,0.061086524,-0.005497787,0.04886922,-0.10350247472524643,4.934616154059768E-4,-1.3815138339996338,1001.93384,
2021.05.22 15:29:02,51.0,24.0,30.599998,3.36,-18.84,-0.10295067,0.94810385,9.481039,0.07819075,-0.029321533,0.0067195175,-0.09966281056404114,0.010858158580958843,-1.3997244834899902,1001.93384,
2021.05.22 15:29:02,51.0,24.0,30.779999,3.6,-18.42,-0.18435353,0.8858546,9.284714,0.08002335,0.047036625,-0.014660766,-0.0951034426689148,0.019852986559271812,-1.395345687866211,1001.93384,
2021.05.22 15:29:02,51.0,24.0,31.32,3.24,-18.06,-0.021547815,0.8403648,9.821015,0.016493361,0.09407325,-0.025045475,-0.08535987883806229,0.002194048138335347,-1.4193516969680786,1001.93384,
2021.05.22 15:29:03,51.0,24.0,31.679998,3.06,-18.539999,-0.33039984,0.7517793,9.610326,0.043982297,0.05009095,-0.08307768,-0.07802131772041321,0.03436613455414772,-1.4242372512817383,1001.93726,
2021.05.22 15:29:03,51.0,24.0,32.1,3.24,-18.779999,-0.49799395,0.8571242,9.404425,0.056199603,0.043982297,-0.10567969,-0.09076295793056488,0.05290374532341957,-1.408677577972412,1001.93726,
2021.05.22 15:29:03,51.0,24.0,31.619999,2.9399998,-18.72,-0.19871874,0.93134445,9.504981,-0.02076942,-0.01038471,-0.02687807,-0.0976518914103508,0.020903754979372025,-1.4177772998809814,1001.93726,
2021.05.22 15:29:03,51.0,24.0,31.32,3.24,-18.779999,-0.30885202,1.0366893,9.516952,-0.03970624,-0.0067195175,-0.019547688,-0.10844635963439941,0.03244144469499588,-1.3978362083435059,1001.93726,
2021.05.22 15:29:03,51.0,24.0,31.019999,3.84,-18.72,-0.29209262,1.1013328,9.85214,-0.07147124,-0.029932396,-0.005497787,-0.11127548664808273,0.029638947919011116,-1.37637460231781,1001.9375,
2021.05.22 15:29:03,51.0,24.0,30.84,4.44,-18.6,-0.32561144,1.0510546,9.797073,-0.047647487,0.0018325958,-0.0012217305,-0.10681521147489548,0.03322335332632065,-1.3586499691009521,1001.9375,
2021.05.22 15:29:03,51.0,24.0,30.96,4.7999997,-18.779999,-0.34237084,0.9864111,9.7324295,-0.004276057,-0.049480084,-0.017715093,-0.10094607621431351,0.03516385331749916,-1.3506296873092651,1001.9375,
2021.05.22 15:29:03,51.0,24.0,30.66,4.98,-19.08,-0.36391866,0.92895025,9.552865,0.014660766,0.01038471,-0.035430185,-0.09686849266290665,0.038076821714639664,-1.3436509370803833,1001.9375,
2021.05.22 15:29:03,51.0,24.0,30.359999,4.7999997,-19.02,-0.23702596,0.80684596,9.655815,0.010995574,0.027488936,-0.021380283,-0.08334196358919144,0.02454255521297455,-1.3589200973510742,1001.9397,
2021.05.22 15:29:03,51.0,24.0,30.179998,4.5,-18.9,-0.14844051,0.82599956,9.821015,0.0,0.030543262,-0.01038471,-0.08389830589294434,0.015113428235054016,-1.3692915439605713,1001.9397,
2021.05.22 15:29:03,51.0,24.0,30.84,4.44,-18.84,-0.22266077,0.8834604,9.56723,0.0,-0.01160644,-0.040927973,-0.09205641597509384,0.02326907217502594,-1.3689779043197632,1001.9397,
2021.05.22 15:29:03,51.0,24.0,31.019999,4.2,-18.359999,-0.36870706,0.9528923,9.514558,0.03604105,-0.009162978,-0.04886922,-0.09974377602338791,0.03873250633478165,-1.3712278604507446,1001.9397,
2021.05.22 15:29:03,51.0,24.0,31.439999,4.08,-18.3,-0.320823,0.9648633,9.703699,-0.03176499,-0.010995574,-0.03726278,-0.09905298799276352,0.03304988890886307,-1.3794035911560059,1001.9363,
2021.05.22 15:29:03,51.0,24.0,31.74,4.2,-18.48,-0.50996494,1.055843,9.519346,0.030543262,0.023823744,-0.053145275,-0.11030710488557816,0.053520262241363525,-1.3655338287353516,1001.9363,
2021.05.22 15:29:03,51.0,24.0,31.5,4.2,-18.779999,-0.45010993,1.0510546,9.868899,-0.025045475,-0.016493361,-0.028099801,-0.105992391705513,0.04557734355330467,-1.3674184083938599,1001.9363,
2021.05.22 15:29:03,51.0,24.0,31.56,4.38,-18.84,-0.45010993,1.0175357,9.639056,-0.0030543262,-0.01160644,-0.0036651916,-0.10506066679954529,0.046662576496601105,-1.3623062372207642,1001.9363,
2021.05.22 15:29:03,51.0,24.0,31.38,4.08,-19.08,-0.4357447,1.0103531,9.636662,0.008552114,-0.06047566,0.029321533,-0.10435720533132553,0.045186616480350494,-1.3704462051391602,1001.9346,
2021.05.22 15:29:03,51.0,24.0,31.14,4.14,-18.779999,-0.28491,1.0031705,9.552865,0.007330383,-0.035430185,0.050701816,-0.10458287596702576,0.02981572039425373,-1.3714936971664429,1001.9346,
2021.05.22 15:29:03,51.0,24.0,30.96,4.02,-18.66,-0.20350714,0.93613285,9.56723,0.004886922,-0.028710667,0.05497787,-0.09751542657613754,0.02126806229352951,-1.3806450366973877,1001.9346,
2021.05.22 15:29:03,51.0,24.0,30.96,4.02,-19.08,-0.15562311,0.89303726,9.6845455,0.0067195175,-0.03359759,0.047647487,-0.09194076806306839,0.016067838296294212,-1.3837640285491943,1001.9346,
2021.05.22 15:29:03,51.0,24.0,30.84,4.02,-18.84,-0.15801731,0.92655605,9.665392,0.01038471,-0.0030543262,0.027488936,-0.0955585390329361,0.016347317025065422,-1.381555199623108,1001.9358,
2021.05.22 15:29:03,51.0,24.0,30.96,4.08,-19.199999,-0.15562311,0.9935937,9.753978,0.0012217305,-0.06047566,0.014660766,-0.10150249302387238,0.015953481197357178,-1.3757752180099487,1001.9358,
2021.05.22 15:29:03,51.0,24.0,31.14,4.08,-19.14,-0.23702596,0.9911995,9.576807,0.03481932,-0.02565634,-0.0036651916,-0.10310143232345581,0.024744946509599686,-1.374168872833252,1001.9358,
2021.05.22 15:29:03,51.0,24.0,31.019999,3.9599998,-19.199999,-0.2777274,1.0702082,9.600749,0.029932396,-0.034208454,-0.0012217305,-0.11096697300672531,0.028919614851474762,-1.3711942434310913,1001.9358,
2021.05.22 15:29:03,51.0,24.0,30.9,4.56,-19.38,-0.22744916,0.9648633,9.763555,0.0036651916,-0.028099801,0.018325957,-0.09847657382488251,0.02329152077436447,-1.3599976301193237,1001.92944,
2021.05.22 15:29:04,51.0,24.0,30.779999,4.38,-19.14,-0.19871874,0.9744401,9.643845,0.021991149,-0.023823744,0.016493361,-0.10067969560623169,0.020602844655513763,-1.3648990392684937,1001.92944,
2021.05.22 15:29:04,51.0,24.0,30.66,4.38,-19.32,-0.17717093,0.94570965,9.593566,0.015882496,-0.027488936,0.0061086523,-0.09824338555335999,0.01846558414399624,-1.3654956817626953,1001.92944,
2021.05.22 15:29:04,51.0,24.0,30.9,4.2,-19.439999,-0.16519992,0.9983821,9.67018,0.004276057,-0.023823744,0.007330383,-0.10286397486925125,0.01708177477121353,-1.36978018283844,1001.92944,
2021.05.22 15:29:04,51.0,24.0,30.96,3.78,-19.26,-0.14844051,1.0127473,9.363723,0.03176499,-0.028099801,0.004886922,-0.10772424936294556,0.015851395204663277,-1.3812183141708374,1001.93164,
2021.05.22 15:29:04,51.0,24.0,31.32,3.78,-19.26,-0.1340753,1.0175357,9.722853,-0.018325957,-0.014660766,0.014049901,-0.10426460206508636,0.01378883421421051,-1.3858659267425537,1001.93164,
2021.05.22 15:29:04,51.0,24.0,31.32,3.54,-19.14,-0.17956513,1.0271125,9.765948,-0.02443461,-0.0018325958,0.0018325958,-0.10477002710103989,0.018384790048003197,-1.3924286365509033,1001.93164,
2021.05.22 15:29:04,51.0,24.0,31.08,3.54,-18.9,-0.12928689,1.0151415,9.734824,-0.0018325958,-0.016493361,-0.005497787,-0.10389475524425507,0.013280084356665611,-1.3934924602508545,1001.93164,
2021.05.22 15:29:04,51.0,24.0,31.32,3.8999999,-18.84,-0.20350714,1.0893618,9.560047,0.01160644,-0.021991149,-0.016493361,-0.11343454569578171,0.021284036338329315,-1.376512050628662,1001.9363,
2021.05.22 15:29:04,51.0,24.0,31.019999,3.72,-19.14,-0.1412579,1.0510546,9.674969,-0.009773844,-0.014049901,-0.005497787,-0.10820066928863525,0.014599310234189034,-1.3838582038879395,1001.9363,
2021.05.22 15:29:04,51.0,24.0,31.08,3.84,-19.08,-0.12449849,1.0175357,9.607931,0.0030543262,0.0012217305,0.0018325958,-0.10550370812416077,0.012957162223756313,-1.3826452493667603,1001.9363,
2021.05.22 15:29:04,51.0,24.0,31.199999,3.72,-19.14,-0.1316811,0.9888053,9.911995,-0.013439035,0.0,-0.0012217305,-0.09942077845335007,0.01328424271196127,-1.3904304504394531,1001.9363,
2021.05.22 15:29:04,51.0,24.0,30.72,3.4199998,-19.14,-0.14604631,0.9888053,9.43076,0.018936822,-0.032986723,-0.007941248,-0.10445481538772583,0.015484927222132683,-1.3936346769332886,1001.9414,
2021.05.22 15:29:04,51.0,24.0,30.9,3.8999999,-19.26,-0.20590134,1.0390835,9.540894,0.010995574,-0.018325957,-0.026267206,-0.10845579952001572,0.02157757803797722,-1.3753550052642822,1001.9414,
2021.05.22 15:29:04,51.0,24.0,31.019999,4.2,-19.199999,-0.10534488,0.9983821,9.562442,-0.01282817,-0.0012217305,0.0036651916,-0.10402342677116394,0.011016079224646091,-1.3719971179962158,1001.9414,
2021.05.22 15:29:04,51.0,24.0,30.9,4.3199997,-19.199999,-0.20350714,0.9959879,9.794679,-0.02076942,-0.005497787,-0.009162978,-0.10131658613681793,0.020774327218532562,-1.3669325113296509,1001.9414,
2021.05.22 15:29:04,51.0,24.0,31.5,4.5,-19.5,-0.016759412,0.9624691,9.821015,-0.016493361,0.012217305,0.010995574,-0.09768889099359512,0.0017064830753952265,-1.3705801963806152,1001.95044,
2021.05.22 15:29:04,51.0,24.0,31.32,4.08,-19.26,-0.21787235,1.0079589,9.607931,0.0030543262,-0.004886922,-0.013439035,-0.10450003296136856,0.022672416642308235,-1.374483585357666,1001.95044,
2021.05.22 15:29:04,51.0,24.0,31.26,3.8999999,-19.32,-0.16519992,0.9864111,9.667787,0.018936822,-0.0067195175,-0.014660766,-0.10166411101818085,0.017086004838347435,-1.3824498653411865,1001.95044,
2021.05.22 15:29:04,51.0,24.0,31.38,4.08,-19.439999,-0.1604115,0.9840169,9.533711,0.01160644,-0.010995574,0.0018325958,-0.10283580422401428,0.01682412624359131,-1.3765535354614258,1001.95044,
2021.05.22 15:29:04,51.0,24.0,31.199999,4.02,-19.26,-0.16759412,0.9792285,9.665392,-0.01160644,-0.0012217305,0.012217305,-0.10095327347517014,0.017337871715426445,-1.3789360523223877,1001.9463,
2021.05.22 15:29:04,51.0,24.0,31.019999,4.2,-19.08,-0.33997664,1.055843,10.25676,-0.008552114,-0.03359759,0.019547688,-0.10252395272254944,0.03313446044921875,-1.3683212995529175,1001.9463,
2021.05.22 15:29:04,51.0,24.0,30.66,4.02,-19.199999,0.49081135,1.0893618,8.571242,0.1826487,-0.092240654,0.08857546,-0.12621264159679413,-0.057200100272893906,-1.3782943487167358,1001.9463,
2021.05.22 15:29:04,51.0,24.0,30.96,3.78,-18.9,-0.41180268,1.0486604,10.043676,-0.077579886,0.09407325,-0.032986723,-0.10394635796546936,0.04097823426127434,-1.3791890144348145,1001.9463,
2021.05.22 15:29:04,51.0,24.0,30.9,4.14,-19.32,-0.093373865,1.0127473,10.311827,-0.03359759,-0.06291912,0.021991149,-0.09789425879716873,0.009054779075086117,-1.376814842224121,1001.94116,
2021.05.22 15:29:04,51.0,24.0,31.019999,3.4199998,-19.859999,0.06703765,1.0486604,9.603143,0.13439035,-0.16432275,0.034208454,-0.108766108751297,-0.006980689708143473,-1.3950778245925903,1001.94116,
