Time,X-cord,Y-cord,Mag_x,Mag_y,Mag_z,Acc_x,Acc_y,Acc_z,Gyro_x,Gyro_y,Gyro_z,Orn_x,Orn_y,Orn_z,Pressure,
2021.05.22 15:29:33,54.0,24.0,33.059998,3.24,-17.94,0.2657564,0.7015011,9.526528,0.08735373,0.07513642,-0.10629055,-0.0734754428267479,-0.027889225631952286,-1.4380384683609009,1001.9453,
2021.05.22 15:29:33,54.0,24.0,33.239998,3.36,-17.76,-0.06464344,0.8619126,9.868899,-0.013439035,0.30726522,-0.23823744,-0.08711335062980652,0.006550124380737543,-1.4235926866531372,1001.9475,
2021.05.22 15:29:33,54.0,24.0,33.36,3.6599998,-17.58,0.04309563,0.7781156,10.093954,-0.055588737,0.021991149,-0.1826487,-0.07693443447351456,-0.004269423894584179,-1.4226619005203247,1001.9475,
2021.05.22 15:29:33,54.0,24.0,33.899998,3.72,-17.4,0.23702596,0.7398083,9.765948,0.092240654,0.047036625,-0.14172074,-0.07558728009462357,-0.024265890941023827,-1.4272116422653198,1001.9475,
2021.05.22 15:29:33,54.0,24.0,34.079998,3.72,-16.98,0.19393034,0.7350199,9.323022,0.22296582,0.116675265,-0.14966199,-0.0786595493555069,-0.020798232406377792,-1.42694091796875,1001.9475,
2021.05.22 15:29:33,54.0,24.0,33.899998,3.9599998,-16.74,0.28491,0.80684596,8.717288,0.26816985,0.017104227,-0.16554448,-0.09224506467580795,-0.03267170116305351,-1.4157190322875977,1001.95166,
2021.05.22 15:29:33,54.0,24.0,33.66,3.48,-16.56,0.260968,0.8355764,8.714894,0.16798794,-0.051923547,-0.13561209,-0.09554436802864075,-0.029936110600829124,-1.426893711090088,1001.95166,
2021.05.22 15:29:33,54.0,24.0,33.12,3.06,-16.44,-0.04309563,0.6703765,9.301474,-0.0012217305,0.015882496,-0.12156218,-0.07194690406322479,0.004633171483874321,-1.4430323839187622,1001.95166,
2021.05.22 15:29:33,54.0,24.0,33.0,3.48,-17.16,-0.2753332,0.5315128,10.441113,-0.1704314,0.02443461,-0.06963864,-0.050844207406044006,0.02636398933827877,-1.436633586883545,1001.95166,
2021.05.22 15:29:33,54.0,24.0,32.82,3.54,-17.34,-0.06464344,0.6919243,10.426748,-0.16187929,-0.02565634,-0.044593163,-0.06626208126544952,0.006199690513312817,-1.428279161453247,1001.9512,
2021.05.22 15:29:33,54.0,24.0,33.12,4.08,-17.76,-0.12210429,1.0271125,9.552865,-6.1086525E-4,-0.09773844,-0.08368854,-0.10709863901138306,0.012781258672475815,-1.3903512954711914,1001.9512,
2021.05.22 15:29:33,54.0,24.0,33.719997,4.44,-17.94,-0.01436521,1.0606314,9.411607,0.06047566,-0.059864793,-0.07696902,-0.1122203841805458,0.0015263280365616083,-1.3823109865188599,1001.9512,
2021.05.22 15:29:33,54.0,24.0,33.6,3.9599998,-17.699999,-0.074220255,0.93613285,9.792285,0.010995574,0.02076942,-0.016493361,-0.09530665725469589,0.007579316850751638,-1.4035228490829468,1001.9512,
2021.05.22 15:29:33,54.0,24.0,34.02,3.6599998,-17.699999,-0.06943185,0.93134445,9.935937,-0.02321288,-0.002443461,0.02076942,-0.0934595838189125,0.006987838074564934,-1.4151709079742432,1001.949,
2021.05.22 15:29:33,54.0,24.0,33.719997,3.9599998,-17.16,-0.20350714,0.92895025,9.672575,0.037873644,-0.051923547,0.042760566,-0.09572488814592361,0.021036498248577118,-1.4029988050460815,1001.949,
2021.05.22 15:29:33,54.0,24.0,33.12,4.2599998,-17.279999,-0.39743748,0.7637503,9.962274,0.018325957,-0.02321288,0.06780604,-0.07645400613546371,0.03987311199307442,-1.3976603746414185,1001.949,
2021.05.22 15:29:33,54.0,24.0,33.0,4.56,-16.68,0.12928689,0.8595184,10.280702,-0.07880162,0.008552114,0.11911872,-0.08340448886156082,-0.01257502380758524,-1.3949865102767944,1001.949,
2021.05.22 15:29:33,54.0,24.0,33.0,4.62,-16.98,0.37110126,1.079785,8.966286,0.018936822,-0.12339478,0.064751714,-0.1197485402226448,-0.04136490449309349,-1.3815277814865112,1001.9512,
2021.05.22 15:29:33,54.0,24.0,33.48,4.02,-17.279999,0.15562311,1.1348516,8.678981,0.116675265,-0.0842994,-0.054367006,-0.1300002932548523,-0.017929114401340485,-1.3907890319824219,1001.9512,
2021.05.22 15:29:33,54.0,24.0,33.54,3.84,-17.1,-0.16759412,0.8403648,9.67018,0.027488936,-0.010995574,-0.05131268,-0.08667197078466415,0.01732928864657879,-1.4110345840454102,1001.9512,
2021.05.22 15:29:33,54.0,24.0,33.36,4.08,-17.699999,-0.20111294,0.50517654,10.103531,-0.06291912,0.06047566,0.03848451,-0.04994851350784302,0.019902585074305534,-1.420678734779358,1001.9512,
2021.05.22 15:29:33,54.0,24.0,33.6,4.38,-17.88,-0.48841715,0.7422025,10.070012,-0.018936822,0.0030543262,0.002443461,-0.0734851285815239,0.04846416041254997,-1.395255446434021,1001.94336,
2021.05.22 15:29:34,54.0,24.0,33.0,4.56,-17.46,-0.5363012,0.8619126,9.390059,0.042760566,-0.02687807,-0.01160644,-0.09138530492782593,0.05705174058675766,-1.3760106563568115,1001.94336,
2021.05.22 15:29:34,54.0,24.0,33.6,4.3199997,-17.039999,-0.5722142,1.127669,9.414001,-0.0061086523,0.054367006,-0.02443461,-0.11900074779987335,0.06070861965417862,-1.371925711631775,1001.94336,
2021.05.22 15:29:34,54.0,24.0,34.079998,4.02,-16.68,-0.51235914,1.0103531,9.679757,-0.043982297,0.11301007,0.02321288,-0.10385700315237045,0.052881643176078796,-1.3943177461624146,1001.94336,
2021.05.22 15:29:34,54.0,24.0,33.96,3.6,-16.619999,-0.37349546,0.9552865,9.737218,-0.03481932,0.09468412,0.06047566,-0.0977223664522171,0.03833871707320213,-1.4120675325393677,1001.9436,
2021.05.22 15:29:34,54.0,24.0,34.2,3.4199998,-16.5,-0.1316811,0.9864111,9.679757,-0.02687807,0.06536258,0.08979719,-0.10154463350772858,0.01360292173922062,-1.4211541414260864,1001.9436,
2021.05.22 15:29:34,54.0,24.0,33.66,3.72,-16.859999,-0.20111294,0.92655605,9.727641,-0.02565634,0.099571034,0.06047566,-0.09494315832853317,0.020671434700489044,-1.4110138416290283,1001.9436,
2021.05.22 15:29:34,54.0,24.0,33.18,3.84,-16.92,-0.30166942,0.9696517,9.809045,-0.02687807,0.06719518,0.026267206,-0.09848643094301224,0.030744517222046852,-1.4013620615005493,1001.9436,
2021.05.22 15:29:34,54.0,24.0,33.18,3.9599998,-16.8,-0.48602295,0.9864111,9.703699,0.013439035,0.02321288,0.015271631,-0.10117914527654648,0.05004453659057617,-1.3930473327636719,1001.93726,
2021.05.22 15:29:34,54.0,24.0,33.48,4.44,-17.58,-0.60333884,0.94092125,9.682152,0.028710667,0.015271631,0.03481932,-0.09669042378664017,0.062234070152044296,-1.3778729438781738,1001.93726,
2021.05.22 15:29:34,54.0,24.0,33.66,4.44,-17.58,-0.5530606,0.92416185,9.691729,0.029321533,0.015882496,0.06414085,-0.09491479396820068,0.05700339376926422,-1.3809499740600586,1001.93726,
2021.05.22 15:29:34,54.0,24.0,33.899998,3.8999999,-17.52,-0.6871359,0.91458505,9.655815,0.06047566,-0.002443461,0.077579886,-0.0942000150680542,0.07104314863681793,-1.395974040031433,1001.93726,
2021.05.22 15:29:34,54.0,24.0,33.96,3.72,-17.16,-0.5243302,0.91697925,9.646238,0.07147124,0.007330383,0.13072516,-0.09463715553283691,0.054302483797073364,-1.405639886856079,1001.9436,
2021.05.22 15:29:34,54.0,24.0,33.899998,3.06,-16.68,-0.29927522,0.9816227,9.749189,0.055588737,-0.042760566,0.16920967,-0.10030248761177063,0.030687808990478516,-1.4274088144302368,1001.9436,
2021.05.22 15:29:34,54.0,24.0,33.84,3.06,-16.619999,-0.22505496,1.0031705,9.689334,0.07941248,-0.010995574,0.15027285,-0.10313829034566879,0.0232229083776474,-1.4272162914276123,1001.9436,
2021.05.22 15:29:34,54.0,24.0,34.079998,2.52,-16.8,-0.17717093,1.0534488,9.425972,0.09590584,-0.044593163,0.10323623,-0.11127887666225433,0.018793826922774315,-1.4399992227554321,1001.9436,
2021.05.22 15:29:34,54.0,24.0,33.899998,2.52,-16.68,-0.14844051,1.0726024,9.504981,0.06719518,0.0018325958,0.07452556,-0.11235739290714264,0.015615859068930149,-1.4397437572479248,1001.9441,
2021.05.22 15:29:34,54.0,24.0,33.48,2.6399999,-16.98,-0.1364695,1.0295067,9.703699,0.035430185,0.040927973,0.051923547,-0.10568848252296448,0.0140627296641469,-1.437231421470642,1001.9441,
2021.05.22 15:29:34,54.0,24.0,33.719997,2.34,-16.619999,-0.110133275,1.0295067,10.065224,0.0012217305,0.050701816,0.026267206,-0.10192301124334335,0.010941523127257824,-1.4504272937774658,1001.9441,
2021.05.22 15:29:34,54.0,24.0,33.48,3.0,-16.619999,-0.17238252,1.0127473,9.895236,0.034208454,0.044593163,0.007941248,-0.10197646170854568,0.01741899736225605,-1.429057002067566,1001.9441,
2021.05.22 15:29:34,54.0,24.0,33.36,2.76,-16.98,-0.17717093,1.0486604,9.617508,0.04886922,-0.023823744,-0.016493361,-0.10858926922082901,0.018419625237584114,-1.4309754371643066,1001.94214,
2021.05.22 15:29:34,54.0,24.0,33.239998,2.46,-16.92,-0.22744916,1.0342951,9.564836,0.03726278,-0.004886922,-0.037873644,-0.10768640041351318,0.023775244131684303,-1.4390952587127686,1001.94214,
2021.05.22 15:29:34,54.0,24.0,32.94,2.3999999,-17.34,-0.14844051,1.0007763,9.390059,0.04642576,-0.007330383,-0.043982297,-0.10616429150104523,0.01580694504082203,-1.4405330419540405,1001.94214,
2021.05.22 15:29:34,54.0,24.0,32.94,2.1,-17.279999,-0.14604631,0.94092125,9.481039,0.0061086523,-0.018936822,-0.04337143,-0.09890685975551605,0.015402821823954582,-1.4536141157150269,1001.94214,
2021.05.22 15:29:34,54.0,24.0,32.88,1.8,-17.58,-0.20350714,0.842759,9.435549,0.014660766,0.019547688,-0.058643065,-0.0890604555606842,0.0215647853910923,-1.4659548997879028,1001.9436,
2021.05.22 15:29:34,54.0,24.0,33.18,2.04,-17.039999,-0.320823,0.8619126,9.765948,-0.03481932,-0.010995574,-0.06536258,-0.08798162639141083,0.03283938020467758,-1.4600850343704224,1001.9436,
2021.05.22 15:29:35,54.0,24.0,33.48,2.22,-16.859999,-0.31603462,0.90979666,9.682152,-0.050701816,0.009773844,-0.07391469,-0.09364168345928192,0.03262936323881149,-1.4532068967819214,1001.9436,
2021.05.22 15:29:35,54.0,24.0,33.54,2.82,-17.1,-0.4165911,1.1109096,9.49301,-0.051923547,-0.042760566,-0.12217305,-0.11638310551643372,0.04385584965348244,-1.420661211013794,1001.9436,
2021.05.22 15:29:35,54.0,24.0,34.14,2.9399998,-16.74,-0.51714754,1.1133038,9.622296,-0.08552113,0.02687807,-0.118507855,-0.11502371728420258,0.05369305610656738,-1.4198304414749146,1001.9407,
2021.05.22 15:29:35,54.0,24.0,34.5,3.06,-17.16,-0.40222588,1.0055647,10.292673,-0.1459968,0.0720821,-0.081855945,-0.0973142609000206,0.039058979600667953,-1.428512692451477,1001.9407,
2021.05.22 15:29:35,54.0,24.0,34.26,2.9399998,-17.52,-0.40222588,1.1587936,10.070012,-0.08674286,0.01282817,-0.1160644,-0.11447926610708237,0.03992171958088875,-1.4205466508865356,1001.9407,
2021.05.22 15:29:35,54.0,24.0,34.68,2.58,-17.22,-0.39983168,1.1899183,9.325416,0.028710667,-0.058643065,-0.111177474,-0.12679843604564667,0.042849235236644745,-1.4266339540481567,1001.9407,
2021.05.22 15:29:35,54.0,24.0,34.26,3.06,-17.22,-0.36391866,1.0654198,9.208099,0.026267206,-0.0036651916,-0.07819075,-0.1151033490896225,0.039501022547483444,-1.4178773164749146,1001.94946,
2021.05.22 15:29:35,54.0,24.0,34.26,2.9399998,-17.16,-0.47165772,0.89543146,9.483433,-0.02565634,0.016493361,-0.028710667,-0.09402597695589066,0.04969396814703941,-1.4309723377227783,1001.94946,
2021.05.22 15:29:35,54.0,24.0,34.5,2.9399998,-16.68,-0.44532153,0.7134721,9.797073,-0.06658431,-0.040927973,0.05131268,-0.07262197136878967,0.04542328044772148,-1.4452273845672607,1001.94946,
2021.05.22 15:29:35,54.0,24.0,34.2,3.6599998,-17.46,-0.32800564,0.5722142,9.619903,-0.061086524,-0.03604105,0.06658431,-0.059377897530794144,0.03408336266875267,-1.4300562143325806,1001.94946,
2021.05.22 15:29:35,54.0,24.0,34.68,3.48,-17.039999,-0.5674258,0.7493851,9.205706,-0.05681047,-0.09468412,0.022602014,-0.0810721293091774,0.061560604721307755,-1.422378420829773,1001.9536,
2021.05.22 15:29:35,54.0,24.0,34.32,4.3199997,-16.92,-0.51235914,0.92655605,9.277532,-0.10323623,-0.06352998,0.042760566,-0.0993904322385788,0.055169761180877686,-1.3879836797714233,1001.9536,
2021.05.22 15:29:35,54.0,24.0,33.78,4.38,-17.16,-0.5722142,0.878672,9.859323,-0.14782938,0.03726278,0.069027774,-0.08873756229877472,0.057972848415374756,-1.387878179550171,1001.9536,
2021.05.22 15:29:35,54.0,24.0,33.719997,4.3199997,-16.199999,-0.46447513,0.89303726,10.232818,-0.119729586,0.059253927,0.073303826,-0.08696223795413971,0.04535960406064987,-1.395323634147644,1001.9536,
2021.05.22 15:29:35,54.0,24.0,33.18,4.38,-16.74,-0.35913026,0.94331545,10.180145,-0.06414085,0.027488936,0.0580322,-0.09234131127595901,0.03526289388537407,-1.3882641792297363,1001.9492,
2021.05.22 15:29:35,54.0,24.0,33.36,4.02,-16.32,-0.1316811,0.90979666,9.674969,0.03359759,-0.023823744,0.05375614,-0.09375178068876266,0.013609652407467365,-1.4041789770126343,1001.9492,
2021.05.22 15:29:35,54.0,24.0,33.84,4.38,-16.32,-0.033518825,0.7254431,9.646238,0.026267206,0.016493361,0.05131268,-0.07506301254034042,0.0034747940953820944,-1.406516432762146,1001.9492,
2021.05.22 15:29:35,54.0,24.0,33.54,4.2599998,-16.38,-0.18674773,0.59136784,9.528923,0.044593163,0.004276057,0.018325957,-0.06196894496679306,0.01959548145532608,-1.4123550653457642,1001.9492,
2021.05.22 15:29:35,54.0,24.0,33.48,4.2,-16.14,-0.2825158,0.6655881,9.902418,0.02321288,0.0036651916,-0.008552114,-0.06708654016256332,0.028522243723273277,-1.4105135202407837,1001.9453,
2021.05.22 15:29:35,54.0,24.0,33.3,4.02,-16.68,-0.41180268,0.7493851,9.545682,0.058643065,-0.010995574,-0.017104227,-0.07827195525169373,0.04311347380280495,-1.4057097434997559,1001.9453,
2021.05.22 15:29:35,54.0,24.0,33.66,3.72,-16.68,-0.60573304,0.90261406,9.52174,0.045814894,-0.037873644,-0.040927973,-0.09432311356067657,0.06353018432855606,-1.404142141342163,1001.9453,
2021.05.22 15:29:35,54.0,24.0,33.899998,3.72,-17.039999,-0.4285621,0.9768343,9.442732,0.05009095,-0.008552114,0.0030543262,-0.10297634452581406,0.045354269444942474,-1.4029240608215332,1001.9453,
2021.05.22 15:29:35,54.0,24.0,33.719997,3.72,-17.16,-0.17956513,0.8571242,9.837775,-0.02443461,0.015882496,0.03604105,-0.08689196407794952,0.018250590190291405,-1.4149413108825684,1001.94165,
2021.05.22 15:29:35,54.0,24.0,34.079998,3.36,-17.16,-0.08379706,0.7445967,9.991004,-0.014049901,0.04337143,0.039095376,-0.0743865892291069,0.008387054316699505,-1.434698224067688,1001.94165,
2021.05.22 15:29:35,54.0,24.0,33.54,3.78,-17.34,-0.34715924,0.7254431,9.504981,0.051923547,-0.0067195175,-0.02076942,-0.0761241689324379,0.03650769963860512,-1.4145604372024536,1001.94165,
2021.05.22 15:29:36,54.0,24.0,33.6,3.1799998,-17.279999,-0.46208093,0.7398083,9.591172,0.054367006,-6.1086525E-4,-0.032986723,-0.07689303159713745,0.0481405109167099,-1.430545687675476,1001.94165,
2021.05.22 15:29:36,54.0,24.0,33.54,3.36,-17.22,-0.4189853,0.7445967,9.239224,0.03726278,-0.02443461,0.0061086523,-0.08033481985330582,0.04531748965382576,-1.423618197441101,1001.9436,
2021.05.22 15:29:36,54.0,24.0,33.36,3.9599998,-17.16,-0.40701428,0.82599956,9.44752,-0.02076942,-0.027488936,0.01282817,-0.08712813258171082,0.0430549755692482,-1.401768445968628,1001.9436,
2021.05.22 15:29:36,54.0,24.0,34.02,3.12,-16.98,-0.32800564,0.8379706,9.636662,-0.03359759,-0.017715093,0.018325957,-0.08668839186429977,0.034024134278297424,-1.4317420721054077,1001.9436,
2021.05.22 15:29:36,54.0,24.0,33.78,3.48,-17.039999,-0.28491,0.89064306,9.636662,-0.02687807,0.027488936,0.01160644,-0.09212052077054977,0.029556607827544212,-1.4179494380950928,1001.9436,
2021.05.22 15:29:36,54.0,24.0,34.32,3.0,-16.92,-0.24660277,0.89782566,9.902418,-0.049480084,-0.017104227,0.02687807,-0.09039221704006195,0.024898141622543335,-1.4361189603805542,1001.95044,
2021.05.22 15:29:36,54.0,24.0,34.2,2.6399999,-16.92,-0.29688102,0.8619126,9.945514,-0.015882496,-0.0036651916,0.01038471,-0.08640916645526886,0.029841884970664978,-1.4473828077316284,1001.95044,
2021.05.22 15:29:36,54.0,24.0,33.42,3.3,-16.56,-0.48123455,0.8499416,9.5385,0.03848451,0.0,-0.0061086523,-0.0887594074010849,0.05040906369686127,-1.4212791919708252,1001.95044,
2021.05.22 15:29:36,54.0,24.0,34.02,2.9399998,-16.02,-0.35194764,0.8499416,9.560047,0.014660766,-0.040317107,0.02565634,-0.08861273527145386,0.03679780662059784,-1.4381966590881348,1001.95044,
2021.05.22 15:29:36,54.0,24.0,34.02,3.54,-16.56,-0.260968,0.830788,9.545682,0.017104227,0.027488936,0.02687807,-0.08678184449672699,0.027332045137882233,-1.4216493368148804,1001.95874,
2021.05.22 15:29:36,54.0,24.0,34.26,3.48,-16.14,-0.17238252,0.82599956,9.7803135,-0.01160644,-0.018325957,0.018325957,-0.08424235135316849,0.01762363314628601,-1.428223729133606,1001.95874,
2021.05.22 15:29:36,54.0,24.0,34.8,3.6599998,-16.32,-0.25617957,0.842759,9.56723,0.029321533,-0.005497787,-0.016493361,-0.08782998472452164,0.02677037939429283,-1.4217348098754883,1001.95874,
2021.05.22 15:29:36,54.0,24.0,34.38,3.9599998,-16.44,-0.39264908,0.94092125,9.722853,0.015882496,0.004886922,-0.025045475,-0.09639569371938705,0.04036220908164978,-1.404453158378601,1001.95874,
2021.05.22 15:29:36,54.0,24.0,34.2,3.1799998,-15.599999,-0.30885202,0.93373865,9.672575,0.01160644,-0.017715093,0.005497787,-0.09618772566318512,0.031919848173856735,-1.4301948547363281,1001.9573,
2021.05.22 15:29:36,54.0,24.0,34.26,3.48,-16.38,-0.39743748,0.9624691,9.545682,0.026267206,-0.015882496,-0.01160644,-0.10040168464183807,0.041611284017562866,-1.4156919717788696,1001.9573,
2021.05.22 15:29:36,54.0,24.0,33.84,2.9399998,-16.98,-0.3878607,0.93613285,9.574412,0.02443461,0.007330383,-0.0030543262,-0.09738528728485107,0.04048799350857735,-1.4295871257781982,1001.9573,
2021.05.22 15:29:36,54.0,24.0,33.899998,3.0,-16.98,-0.32321724,0.8523358,9.749189,-0.008552114,0.009773844,0.015271631,-0.08715695887804031,0.03314110264182091,-1.4346745014190674,1001.9573,
2021.05.22 15:29:36,54.0,24.0,33.899998,3.78,-17.52,-0.2657564,0.90021986,9.605537,0.0030543262,0.0061086523,0.007941248,-0.09341036528348923,0.0276599433273077,-1.4080536365509033,1001.95166,
2021.05.22 15:29:36,54.0,24.0,34.079998,3.54,-17.279999,-0.32321724,0.91697925,9.603143,0.007941248,-0.021380283,6.1086525E-4,-0.09514522552490234,0.033644743263721466,-1.414562463760376,1001.95166,
2021.05.22 15:29:36,54.0,24.0,34.14,3.72,-17.34,-0.34715924,0.92655605,9.516952,0.01160644,0.01282817,-0.007941248,-0.09698852151632309,0.03646182268857956,-1.4079673290252686,1001.95166,
2021.05.22 15:29:36,54.0,24.0,34.32,3.54,-17.699999,-0.36152446,0.8834604,9.737218,-0.0030543262,-0.004276057,0.0018325958,-0.09042056649923325,0.037111058831214905,-1.4163368940353394,1001.95166,
2021.05.22 15:29:36,54.0,24.0,34.5,3.06,-17.22,-0.34237084,0.8882488,9.797073,0.0061086523,0.0067195175,-0.007330383,-0.09036265313625336,0.03493202105164528,-1.4326741695404053,1001.9568,
2021.05.22 15:29:36,54.0,24.0,34.38,2.9399998,-17.22,-0.25617957,0.90740246,9.557653,0.02321288,0.02443461,-0.0067195175,-0.09462237358093262,0.026797188445925713,-1.4347856044769287,1001.9568,
2021.05.22 15:29:36,54.0,24.0,34.559998,2.28,-16.74,-0.40701428,0.9624691,9.552865,0.028710667,-0.01160644,-0.025045475,-0.10032262653112411,0.04258076101541519,-1.4504051208496094,1001.9568,
2021.05.22 15:29:36,54.0,24.0,34.32,2.1599998,-16.56,-0.32321724,0.9528923,9.512163,0.01160644,0.007941248,-0.012217305,-0.09978588670492172,0.033966295421123505,-1.4552967548370361,1001.9568,
2021.05.22 15:29:37,54.0,24.0,33.899998,2.3999999,-16.92,-0.39983168,0.9983821,9.569624,0.0067195175,0.005497787,-0.004276057,-0.1038622185587883,0.04175705090165138,-1.442259430885315,1001.9514,
2021.05.22 15:29:37,54.0,24.0,33.719997,2.28,-16.74,-0.36152446,0.9624691,9.696517,-0.0012217305,0.002443461,-0.0012217305,-0.09886695444583893,0.03726669028401375,-1.4491230249404907,1001.9514,
2021.05.22 15:29:37,54.0,24.0,33.66,2.9399998,-16.68,-0.37588966,0.9576807,9.696517,-0.012217305,-0.0012217305,0.01160644,-0.09837274253368378,0.038746029138565063,-1.429547905921936,1001.9514,
2021.05.22 15:29:37,54.0,24.0,33.96,3.12,-16.8,-0.38307226,0.9720459,9.588778,0.017104227,6.1086525E-4,0.009162978,-0.10094817727804184,0.03992883116006851,-1.4235801696777344,1001.9514,
2021.05.22 15:29:37,54.0,24.0,34.5,2.9399998,-16.619999,-0.38307226,0.94810385,9.64145,0.01282817,0.013439035,0.01160644,-0.09794429689645767,0.03971092402935028,-1.4331516027450562,1001.94946,
2021.05.22 15:29:37,54.0,24.0,34.68,3.1799998,-16.5,-0.32321724,0.9504981,9.548077,0.012217305,-0.0067195175,0.015271631,-0.09916531294584274,0.03383863344788551,-1.427708387374878,1001.94946,
2021.05.22 15:29:37,54.0,24.0,34.92,2.82,-16.8,-0.33518824,0.9624691,9.579201,0.0036651916,0.0018325958,0.016493361,-0.10007797926664352,0.034976985305547714,-1.4373699426651,1001.94946,
2021.05.22 15:29:37,54.0,24.0,34.86,2.9399998,-16.56,-0.2681506,0.9624691,9.68694,-0.005497787,0.0012217305,0.021991149,-0.098994679749012,0.027674593031406403,-1.4361919164657593,1001.94946,
2021.05.22 15:29:37,54.0,24.0,34.44,3.24,-16.5,-0.34715924,0.90021986,9.672575,0.0030543262,0.009162978,0.009773844,-0.09274260699748993,0.03587568551301956,-1.4278777837753296,1001.95337,
2021.05.22 15:29:37,54.0,24.0,34.079998,3.1799998,-16.68,-0.31364042,0.93373865,9.600749,0.01282817,-0.009773844,0.0018325958,-0.0969005674123764,0.0326567143201828,-1.4260503053665161,1001.95337,
2021.05.22 15:29:37,54.0,24.0,34.079998,3.54,-17.1,-0.35673606,0.90979666,9.603143,0.013439035,0.018936822,-0.01282817,-0.0943928137421608,0.037130773067474365,-1.41486656665802,1001.95337,
2021.05.22 15:29:37,54.0,24.0,34.02,3.6,-17.4,-0.39025488,0.9792285,9.615114,0.009162978,-0.01038471,-0.017715093,-0.10140977054834366,0.04056538641452789,-1.4075919389724731,1001.95337,
2021.05.22 15:29:37,54.0,24.0,34.32,3.72,-17.58,-0.40701428,0.9600749,9.476251,0.017715093,0.002443461,-0.009773844,-0.10087689757347107,0.04292459785938263,-1.4048011302947998,1001.9597,
2021.05.22 15:29:37,54.0,24.0,34.8,3.78,-17.4,-0.4213795,0.9959879,9.744401,-0.018936822,-0.0018325958,0.0,-0.10176312923431396,0.04321632161736488,-1.4053658246994019,1001.9597,
2021.05.22 15:29:37,54.0,24.0,34.5,3.78,-17.1,-0.44771573,1.0271125,9.545682,0.005497787,0.007330383,0.0,-0.10707050561904907,0.04686808958649635,-1.4014209508895874,1001.9597,
2021.05.22 15:29:37,54.0,24.0,34.32,4.08,-17.1,-0.4141969,1.0414777,9.694122,-0.009773844,-0.012217305,0.01160644,-0.10692662745714188,0.0427006296813488,-1.3928253650665283,1001.9597,
2021.05.22 15:29:37,54.0,24.0,34.44,3.6,-16.98,-0.2896984,0.9935937,9.598354,0.0,0.0012217305,0.030543262,-0.10310307145118713,0.030172931030392647,-1.4118914604187012,1001.9531,
2021.05.22 15:29:37,54.0,24.0,33.899998,3.9599998,-17.16,-0.3878607,0.9959879,9.64145,-0.0061086523,-0.012217305,0.016493361,-0.10285497456789017,0.040206778794527054,-1.3966022729873657,1001.9531,
2021.05.22 15:29:37,54.0,24.0,34.2,3.54,-17.039999,-0.33758244,0.9720459,9.560047,-6.1086525E-4,-0.009162978,0.02687807,-0.1012670174241066,0.035297129303216934,-1.4123424291610718,1001.9531,
2021.05.22 15:29:37,54.0,24.0,34.5,3.12,-17.039999,-0.29448682,0.9528923,9.600749,-0.008552114,-0.01038471,0.027488936,-0.09888166934251785,0.030663704499602318,-1.4277750253677368,1001.9531,
2021.05.22 15:29:37,54.0,24.0,34.32,3.06,-17.1,-0.28491,0.94570965,9.651027,-0.02076942,-0.018325957,0.02076942,-0.09763646125793457,0.029512640088796616,-1.4294294118881226,1001.9585,
2021.05.22 15:29:37,54.0,24.0,34.559998,2.58,-17.4,-0.25857377,0.94092125,9.627085,-0.02076942,-0.05131268,0.014049901,-0.09739253669977188,0.02685253508388996,-1.4438621997833252,1001.9585,
2021.05.22 15:29:37,54.0,24.0,34.38,2.34,-17.279999,-0.33039984,0.9528923,9.442732,-0.014660766,-0.043982297,0.010995574,-0.10051121562719345,0.03497558832168579,-1.4475401639938354,1001.9585,
2021.05.22 15:29:37,54.0,24.0,34.32,2.1599998,-17.279999,-0.21068975,0.9672575,9.871294,-0.049480084,-0.032375857,0.018936822,-0.09765298664569855,0.021340442821383476,-1.4562413692474365,1001.9585,
2021.05.22 15:29:37,54.0,24.0,34.26,2.6399999,-17.58,-0.2753332,0.94092125,9.691729,-0.021991149,-0.015882496,0.015271631,-0.09674288332462311,0.02840145118534565,-1.4405909776687622,1001.9597,
2021.05.22 15:29:38,54.0,24.0,34.26,2.82,-17.279999,-0.28491,0.91937345,9.627085,-6.1086525E-4,-0.021380283,-0.0061086523,-0.09516848623752594,0.02958599291741848,-1.436875820159912,1001.9597,
2021.05.22 15:29:38,54.0,24.0,34.32,3.4199998,-17.4,-0.2825158,0.94092125,9.531317,0.002443461,-0.07391469,0.0012217305,-0.09835716336965561,0.029632117599248886,-1.417775273323059,1001.9597,
2021.05.22 15:29:38,54.0,24.0,34.02,3.54,-17.22,-0.22744916,0.93134445,9.655815,-0.016493361,-0.008552114,-0.0030543262,-0.09613030403852463,0.02355131320655346,-1.4157379865646362,1001.9597,
2021.05.22 15:29:38,54.0,24.0,33.899998,3.4199998,-17.039999,-0.29688102,0.8738836,9.737218,-0.005497787,-0.014049901,0.009162978,-0.08946558833122253,0.03047986328601837,-1.4214481115341187,1001.9531,
2021.05.22 15:29:38,54.0,24.0,33.54,3.24,-17.039999,-0.20590134,0.8762778,9.727641,0.016493361,0.0,0.005497787,-0.08981873840093613,0.021163465455174446,-1.4265403747558594,1001.9531,
2021.05.22 15:29:38,54.0,24.0,33.3,3.06,-16.619999,-0.17717093,0.8619126,9.598354,0.029321533,0.004276057,-0.0030543262,-0.08954258263111115,0.01845637336373329,-1.432580828666687,1001.9531,
2021.05.22 15:29:38,54.0,24.0,33.66,3.06,-16.8,-0.44532153,0.9983821,9.627085,0.014660766,-0.028099801,-0.021380283,-0.10322655737400055,0.0462242029607296,-1.4217249155044556,1001.9531,
2021.05.22 15:29:38,54.0,24.0,33.719997,2.8799999,-16.8,-0.31124622,0.94810385,9.536105,0.02565634,0.030543262,0.007330383,-0.09904448688030243,0.032627131789922714,-1.4318945407867432,1001.94775,
2021.05.22 15:29:38,54.0,24.0,33.96,3.36,-16.68,-0.18195933,0.9648633,9.591172,-6.1086525E-4,-6.1086525E-4,0.017104227,-0.10024387389421463,0.01896926574409008,-1.4210069179534912,1001.94775,
2021.05.22 15:29:38,54.0,24.0,33.719997,3.12,-16.92,-0.24420857,0.9840169,9.775525,-0.021380283,0.0061086523,0.009162978,-0.10029226541519165,0.02497643604874611,-1.4251641035079956,1001.94775,
2021.05.22 15:29:38,54.0,24.0,33.3,3.1799998,-16.98,-0.19871874,0.93613285,9.662998,0.0030543262,0.01038471,0.01038471,-0.09655642509460449,0.02056201733648777,-1.4240964651107788,1001.94775,
2021.05.22 15:29:38,54.0,24.0,33.48,3.06,-17.16,-0.088585466,0.90021986,9.76116,-0.01038471,-0.014660766,0.015271631,-0.09196077287197113,0.009075052104890347,-1.4321264028549194,1001.96216,
2021.05.22 15:29:38,54.0,24.0,33.66,2.52,-17.16,-0.2873042,0.9504981,9.610326,0.013439035,0.01038471,-0.02687807,-0.09853947907686234,0.029886461794376373,-1.4419074058532715,1001.96216,
2021.05.22 15:29:38,54.0,24.0,34.079998,3.1799998,-17.16,-0.2873042,0.9744401,9.706094,6.1086525E-4,-0.01160644,-0.015271631,-0.10001588612794876,0.029591752216219902,-1.4235432147979736,1001.96216,
2021.05.22 15:29:38,54.0,24.0,34.44,3.0,-16.44,-0.16280572,0.94810385,9.648633,0.0036651916,-0.015271631,0.004886922,-0.09793473035097122,0.016871849074959755,-1.4355040788650513,1001.96216,
2021.05.22 15:29:38,54.0,24.0,34.38,2.76,-15.719999,-0.32561144,0.9744401,9.591172,0.01160644,0.013439035,-0.028710667,-0.10119228065013885,0.033936042338609695,-1.4399707317352295,1001.9619,
2021.05.22 15:29:38,54.0,24.0,34.32,2.82,-15.719999,-0.24899697,0.91937345,9.734824,-0.004886922,-0.0018325958,-0.0030543262,-0.09413181990385056,0.025572385638952255,-1.4427049160003662,1001.9619,
2021.05.22 15:29:38,54.0,24.0,34.44,2.28,-15.839999,-0.20350714,0.91219085,9.588778,0.004276057,0.009773844,-0.007330383,-0.09482443332672119,0.021220285445451736,-1.4586931467056274,1001.9619,
2021.05.22 15:29:38,54.0,24.0,34.38,2.34,-16.44,-0.22984336,0.94570965,9.591172,0.0030543262,-0.004276057,-0.015882496,-0.09825636446475983,0.02395946905016899,-1.4529742002487183,1001.9619,
2021.05.22 15:29:38,54.0,24.0,34.32,2.7,-16.98,-0.17956513,0.92416185,9.61272,-0.007941248,-0.004276057,-0.017715093,-0.09582830220460892,0.01867777854204178,-1.4428596496582031,1001.9531,
2021.05.22 15:29:38,54.0,24.0,34.32,2.7,-17.52,-0.29688102,0.8858546,9.809045,-0.019547688,0.002443461,-0.021380283,-0.09002464264631271,0.030256809666752815,-1.4425075054168701,1001.9531,
2021.05.22 15:29:38,54.0,24.0,34.62,2.6399999,-17.46,-0.30406362,0.91937345,9.737218,0.0036651916,0.005497787,-0.031154128,-0.09409380704164505,0.031216805800795555,-1.4431982040405273,1001.9531,
2021.05.22 15:29:38,54.0,24.0,34.68,2.8799999,-17.16,-0.30645782,0.9528923,9.622296,0.007330383,-0.02076942,-0.025045475,-0.09865807741880417,0.031837958842515945,-1.4349262714385986,1001.9531,
2021.05.22 15:29:38,54.0,24.0,34.92,2.7,-17.1,-0.2896984,0.90979666,9.753978,0.0036651916,-0.004886922,-0.017104227,-0.09296456724405289,0.02969180978834629,-1.4443904161453247,1001.9531,
2021.05.22 15:29:38,54.0,24.0,34.92,2.8799999,-16.56,-0.19393034,0.90261406,9.598354,0.0036651916,-0.009162978,-0.01038471,-0.09374365210533142,0.0202017929404974,-1.4418624639511108,1001.9531,
2021.05.22 15:29:39,54.0,24.0,35.16,2.82,-16.5,-0.272939,0.9504981,9.555259,0.01038471,-0.029932396,-0.018936822,-0.09910749644041061,0.02855650708079338,-1.4406781196594238,1001.9531,
2021.05.22 15:29:39,54.0,24.0,35.16,2.52,-16.56,-0.20829555,0.94810385,9.770737,-0.022602014,-0.029932396,-0.007941248,-0.09671035408973694,0.0213150754570961,-1.4512721300125122,1001.9531,
2021.05.22 15:29:39,54.0,24.0,34.68,2.52,-16.619999,-0.2681506,0.9864111,9.751583,-0.007941248,0.0012217305,-0.01160644,-0.10077320039272308,0.027491232380270958,-1.4464918375015259,1001.95874,
2021.05.22 15:29:39,54.0,24.0,34.44,2.58,-16.619999,-0.20350714,0.92176765,9.627085,0.01282817,-0.016493361,-0.004886922,-0.09543514996767044,0.02113587222993374,-1.4475723505020142,1001.95874,
2021.05.22 15:29:39,54.0,24.0,34.02,2.46,-16.859999,-0.24660277,0.92895025,9.639056,0.013439035,-0.02321288,-0.0036651916,-0.0960456132888794,0.025578126311302185,-1.447872519493103,1001.95874,
2021.05.22 15:29:39,54.0,24.0,33.96,2.76,-16.8,-0.22984336,0.91458505,9.579201,0.012217305,-6.1086525E-4,-0.009773844,-0.09516037255525589,0.023989398032426834,-1.439774751663208,1001.95874,
2021.05.22 15:29:39,54.0,24.0,34.559998,3.0,-17.1,-0.19393034,0.9552865,9.715671,-0.0036651916,-0.004886922,-0.0012217305,-0.09798987209796906,0.019957922399044037,-1.4335345029830933,1001.95166,
2021.05.22 15:29:39,54.0,24.0,34.92,2.6399999,-17.279999,-0.19632454,0.91219085,9.583989,0.005497787,-0.017104227,0.0036651916,-0.09487298876047134,0.020481770858168602,-1.4460813999176025,1001.95166,
2021.05.22 15:29:39,54.0,24.0,35.16,2.9399998,-17.22,-0.29209262,0.94092125,9.651027,-0.01160644,-0.0036651916,-0.0061086523,-0.09714306145906448,0.030256209895014763,-1.435909628868103,1001.95166,
2021.05.22 15:29:39,54.0,24.0,35.16,2.82,-17.52,-0.22744916,0.91458505,9.557653,-0.0018325958,-0.0018325958,0.01160644,-0.09537405520677567,0.02379310317337513,-1.440403938293457,1001.95166,
2021.05.22 15:29:39,54.0,24.0,34.68,2.76,-16.92,-0.21308395,0.90021986,9.631873,-0.021991149,0.007330383,0.016493361,-0.09316921979188919,0.0221191868185997,-1.4433997869491577,1001.9563,
2021.05.22 15:29:39,54.0,24.0,34.44,3.0,-16.68,-0.17717093,0.91219085,9.660604,-0.021991149,-0.0036651916,0.018936822,-0.09412892162799835,0.018337473273277283,-1.436428189277649,1001.9563,
2021.05.22 15:29:39,54.0,24.0,34.079998,2.7,-16.619999,-0.15801731,0.842759,9.7084875,-0.01282817,0.029932396,0.018936822,-0.08657795190811157,0.016274765133857727,-1.4479224681854248,1001.9563,
2021.05.22 15:29:39,54.0,24.0,34.2,2.7,-16.5,-0.21068975,0.89543146,9.770737,-0.018325957,-0.016493361,0.008552114,-0.09136781841516495,0.021560002118349075,-1.4455221891403198,1001.9563,
2021.05.22 15:29:39,54.0,24.0,34.2,2.58,-16.859999,-0.20111294,0.91937345,9.76116,-0.0036651916,0.013439035,0.004276057,-0.09389005601406097,0.020600471645593643,-1.446897268295288,1001.9553,
2021.05.22 15:29:39,54.0,24.0,33.899998,2.34,-17.22,-0.320823,0.90740246,9.947908,0.021991149,0.016493361,0.014660766,-0.09091667085886002,0.032239124178886414,-1.45157790184021,1001.9553,
2021.05.22 15:29:39,54.0,24.0,34.14,2.82,-16.619999,0.20829555,0.8738836,9.43076,0.09162979,-0.13316862,0.007941248,-0.09237685054540634,-0.022083234041929245,-1.4476159811019897,1001.9553,
2021.05.22 15:29:39,54.0,24.0,33.96,2.7,-16.44,-0.31603462,0.93134445,9.619903,0.17165314,0.0,-0.03176499,-0.09646182507276535,0.03284035250544548,-1.4404876232147217,1001.9553,
2021.05.22 15:29:39,54.0,24.0,33.84,2.52,-16.38,-0.20829555,1.0127473,10.244789,-0.034208454,-0.04642576,-0.05375614,-0.09851449728012085,0.020329052582383156,-1.4464807510375977,1001.94775,
2021.05.22 15:29:39,54.0,24.0,34.26,2.52,-16.619999,0.11971009,1.0510546,9.607931,0.12339478,-0.21013765,0.01160644,-0.10895281285047531,-0.012458862736821175,-1.4476507902145386,1001.94775,
