Time,X-cord,Y-cord,Mag_x,Mag_y,Mag_z,Acc_x,Acc_y,Acc_z,Gyro_x,Gyro_y,Gyro_z,Orn_x,Orn_y,Orn_z,Pressure,
2021.05.22 15:23:20,22.0,24.0,36.6,3.36,-33.719997,-0.47884035,0.9983821,9.119514,0.10567969,-0.02443461,-0.055588737,-0.1088944673538208,0.05245904624462128,-1.36644446849823,1001.9719,
2021.05.22 15:23:20,22.0,24.0,36.78,3.48,-33.42,-0.80445176,0.94570965,9.411607,0.12767084,0.12217305,-0.12095132,-0.09978575259447098,0.08526718616485596,-1.3639769554138184,1001.9719,
2021.05.22 15:23:20,22.0,24.0,37.14,3.36,-33.36,-0.38067806,0.8834604,9.40203,-0.01282817,0.0030543262,-0.020158553,-0.09361351281404495,0.04046681895852089,-1.3882437944412231,1001.96265,
2021.05.22 15:23:20,22.0,24.0,38.04,3.24,-33.42,-0.272939,0.8283938,9.569624,-0.037873644,-0.06841691,0.055588737,-0.08631474524736404,0.02851366251707077,-1.4050520658493042,1001.96265,
2021.05.22 15:23:20,22.0,24.0,37.98,3.36,-33.3,-0.49559975,0.7733272,9.600749,-0.069027774,0.01038471,0.02565634,-0.08026868849992752,0.05157516896724701,-1.4019626379013062,1001.96265,
2021.05.22 15:23:20,22.0,24.0,38.219997,3.24,-33.48,-0.39743748,0.81881696,9.497798,-0.02443461,-0.02321288,0.023823744,-0.08592378348112106,0.04182082414627075,-1.402879238128662,1001.96265,
2021.05.22 15:23:20,22.0,24.0,38.7,3.36,-33.719997,-0.20111294,0.9648633,9.428367,-0.014049901,-0.11911872,0.047647487,-0.10195814818143845,0.021327389404177666,-1.392120122909546,1001.9773,
2021.05.22 15:23:20,22.0,24.0,38.7,3.06,-33.66,-0.25139117,1.1013328,9.969456,-0.047036625,-0.13072516,0.055588737,-0.10998989641666412,0.025210794061422348,-1.3919057846069336,1001.9773,
2021.05.22 15:23:20,22.0,24.0,38.76,2.28,-33.66,-0.2753332,1.2330139,9.861717,-0.07391469,0.07880162,-0.02443461,-0.12433692067861557,0.027912145480513573,-1.3987476825714111,1001.9773,
2021.05.22 15:23:20,22.0,24.0,38.52,2.22,-33.6,-0.08619126,1.388637,9.512163,0.03359759,0.13683382,-0.047036625,-0.14495553076267242,0.009060914628207684,-1.3870849609375,1001.9773,
2021.05.22 15:23:20,22.0,24.0,38.04,2.1599998,-33.66,-0.08140286,1.2378023,9.890448,0.073303826,-0.0067195175,-0.0012217305,-0.12449977546930313,0.008230267092585564,-1.4038896560668945,1001.96924,
2021.05.22 15:23:20,22.0,24.0,38.1,2.22,-33.12,-0.40701428,1.0654198,9.832987,-0.015271631,0.054367006,-0.07574729,-0.10783891379833221,0.04136912524700165,-1.41036856174469,1001.96924,
2021.05.22 15:23:20,22.0,24.0,38.219997,2.46,-33.48,-0.581791,1.0869676,9.742006,0.09285152,0.077579886,-0.09162979,-0.1109197586774826,0.059648990631103516,-1.395695447921753,1001.96924,
2021.05.22 15:23:20,22.0,24.0,38.34,2.8799999,-33.12,-0.78529817,1.1348516,10.292673,0.09101892,0.12950343,-0.11362094,-0.10949893295764923,0.07614928483963013,-1.382882833480835,1001.96924,
2021.05.22 15:23:20,22.0,24.0,38.219997,2.76,-33.239998,-0.6512229,1.0007763,9.639056,0.051923547,0.0061086523,-0.07880162,-0.10322082042694092,0.06745834648609161,-1.3935859203338623,1001.9785,
2021.05.22 15:23:20,22.0,24.0,38.219997,3.06,-33.719997,-0.7206547,0.9720459,9.006987,0.18753563,-0.105068825,-0.014049901,-0.1071653887629509,0.07984054833650589,-1.3766090869903564,1001.9785,
2021.05.22 15:23:20,22.0,24.0,38.219997,3.1799998,-33.78,-0.7422025,0.8738836,9.258378,0.11301007,-0.02443461,0.009162978,-0.09381041675806046,0.07999443262815475,-1.3862931728363037,1001.9785,
2021.05.22 15:23:20,22.0,24.0,37.98,3.4199998,-33.96,-0.46447513,0.89782566,9.588778,0.015271631,0.05009095,0.04642576,-0.09325206279754639,0.048401620239019394,-1.3873132467269897,1001.9785,
2021.05.22 15:23:20,22.0,24.0,38.16,3.1799998,-33.6,-0.25139117,0.94570965,9.85214,-0.03176499,0.01282817,0.100792766,-0.09566611051559448,0.025510868057608604,-1.3990854024887085,1001.9741,
2021.05.22 15:23:20,22.0,24.0,37.68,2.76,-33.66,-0.21547815,1.0295067,9.583989,0.01160644,0.030543262,0.07574729,-0.1069822683930397,0.022479351609945297,-1.3983925580978394,1001.9741,
2021.05.22 15:23:20,22.0,24.0,37.559998,2.8799999,-33.059998,-0.1364695,1.0175357,9.696517,0.032986723,0.004886922,0.06780604,-0.10454531759023666,0.014073144644498825,-1.4007402658462524,1001.9741,
2021.05.22 15:23:20,22.0,24.0,37.98,2.1,-32.82,0.019153614,0.9888053,9.572019,0.022602014,0.0012217305,0.077579886,-0.10293632000684738,-0.0020009977743029594,-1.4284255504608154,1001.9741,
2021.05.22 15:23:21,22.0,24.0,37.98,2.52,-33.0,-0.011971008,0.9840169,9.514558,0.054367006,-0.014660766,0.049480084,-0.10305577516555786,0.0012581773335114121,-1.4163532257080078,1001.96094,
2021.05.22 15:23:21,22.0,24.0,38.28,2.34,-33.239998,-0.1412579,0.91937345,9.837775,-0.004886922,0.021380283,-0.0067195175,-0.09317319840192795,0.014357737265527248,-1.4269959926605225,1001.96094,
2021.05.22 15:23:21,22.0,24.0,38.219997,2.22,-33.54,-0.25617957,0.94810385,9.67018,-0.023823744,-0.019547688,-0.030543262,-0.0976976528763771,0.026485512033104897,-1.4224094152450562,1001.96094,
2021.05.22 15:23:21,22.0,24.0,38.34,2.58,-33.6,-0.46208093,0.94810385,9.52174,-0.0012217305,-0.021991149,-0.06841691,-0.09912952035665512,0.04849100112915039,-1.4066667556762695,1001.96094,
2021.05.22 15:23:21,22.0,24.0,37.92,2.52,-33.54,-0.50996494,0.9888053,9.821015,0.0018325958,-0.017715093,-0.058643065,-0.10021033883094788,0.05187929421663284,-1.4047489166259766,1001.9558,
2021.05.22 15:23:21,22.0,24.0,38.1,3.06,-33.6,-0.62249243,1.0582372,9.581595,-0.028099801,-6.1086525E-4,-0.048258353,-0.10976941883563995,0.06487634032964706,-1.3783156871795654,1001.9558,
2021.05.22 15:23:21,22.0,24.0,38.52,2.58,-33.719997,-0.5602432,1.1228806,9.689334,0.016493361,0.015882496,-0.03176499,-0.11518297344446182,0.05775630101561546,-1.389635443687439,1001.9558,
2021.05.22 15:23:21,22.0,24.0,38.399998,2.46,-34.32,-0.49799395,1.1563994,9.490616,-0.014660766,-0.005497787,0.012217305,-0.12108397483825684,0.05242416635155678,-1.386191725730896,1001.9558,
2021.05.22 15:23:21,22.0,24.0,38.82,2.28,-33.78,-0.7182605,1.1013328,10.28549,-0.0030543262,0.032375857,0.036651913,-0.10641274601221085,0.06971922516822815,-1.4037388563156128,1001.9595,
2021.05.22 15:23:21,22.0,24.0,39.42,1.62,-33.059998,-0.36631286,1.0582372,10.472239,-0.105068825,0.108123146,0.03848451,-0.1006486564874649,0.03496516868472099,-1.4389803409576416,1001.9595,
2021.05.22 15:23:21,22.0,24.0,38.76,2.3999999,-32.88,0.07182605,1.055843,9.088389,-0.036651913,0.036651913,0.073303826,-0.11565288156270981,-0.007902891375124454,-1.4146480560302734,1001.9595,
2021.05.22 15:23:21,22.0,24.0,39.18,1.92,-32.46,0.19393034,1.0654198,8.7532015,0.1001819,-0.10629055,0.054367006,-0.12109249085187912,-0.02215173840522766,-1.4283409118652344,1001.9595,
2021.05.22 15:23:21,22.0,24.0,39.6,1.9799999,-32.76,-0.050278235,0.7661445,9.631873,0.09040806,-0.023823744,0.021380283,-0.07937442511320114,0.005219937767833471,-1.4549622535705566,1001.9612,
2021.05.22 15:23:21,22.0,24.0,38.7,2.52,-33.12,-0.47405192,0.82360536,10.141838,-0.06719518,0.0720821,-0.035430185,-0.08094287663698196,0.04670821130275726,-1.4280753135681152,1001.9612,
2021.05.22 15:23:21,22.0,24.0,39.36,2.34,-33.12,-0.93613285,1.0654198,9.483433,-0.04642576,-0.0067195175,-0.08674286,-0.11133962124586105,0.09839368611574173,-1.3939878940582275,1001.9612,
2021.05.22 15:23:21,22.0,24.0,38.82,2.76,-33.059998,-1.0295067,1.2545617,9.255983,0.029321533,-0.055588737,-0.115453534,-0.13390381634235382,0.11077078431844711,-1.353952407836914,1001.9612,
2021.05.22 15:23:21,22.0,24.0,38.1,2.58,-32.76,-0.91219085,1.3024458,9.473856,6.1086525E-4,-0.029932396,-0.06719518,-0.13600029051303864,0.0959891676902771,-1.3591926097869873,1001.968,
2021.05.22 15:23:21,22.0,24.0,37.92,2.34,-32.64,-0.5626374,1.2401965,9.92636,-0.052534413,0.037873644,0.004276057,-0.12409847974777222,0.05662055313587189,-1.3889631032943726,1001.968,
2021.05.22 15:23:21,22.0,24.0,37.38,2.1,-32.7,-0.60812724,1.1085154,9.904813,-0.057421334,0.02321288,0.09162979,-0.11124531924724579,0.06132017448544502,-1.4034322500228882,1001.968,
2021.05.22 15:23:21,22.0,24.0,37.68,1.86,-32.94,-0.23463176,1.0271125,9.749189,-0.035430185,-0.005497787,0.11178834,-0.10493624955415726,0.024062151089310646,-1.425554871559143,1001.968,
2021.05.22 15:23:21,22.0,24.0,37.98,1.86,-33.42,-0.25857377,1.0366893,9.23683,-0.005497787,-0.050701816,0.111177474,-0.11172318458557129,0.027986470609903336,-1.4182908535003662,1001.9783,
2021.05.22 15:23:21,22.0,24.0,38.52,1.8,-33.48,-0.08379706,1.0989386,9.569624,-0.002443461,-0.02687807,0.06719518,-0.11433093994855881,0.008756344206631184,-1.4241523742675781,1001.9783,
2021.05.22 15:23:21,22.0,24.0,38.579998,2.1599998,-33.239998,-0.22505496,1.0845734,9.619903,-0.056199603,0.018325957,0.055588737,-0.11223813146352768,0.023390458896756172,-1.4141361713409424,1001.9783,
2021.05.22 15:23:21,22.0,24.0,38.52,2.04,-32.88,-0.30645782,1.1731589,9.742006,-0.040927973,-0.04520403,0.026267206,-0.11978694051504135,0.03144698962569237,-1.409471869468689,1001.9783,
2021.05.22 15:23:21,22.0,24.0,38.399998,2.1599998,-32.88,-0.38307226,1.1947067,9.452309,-0.026267206,-0.06169739,0.01160644,-0.1256244033575058,0.04050467908382416,-1.398268222808838,1001.9817,
2021.05.22 15:23:22,22.0,24.0,38.46,2.3999999,-33.3,-0.5793968,1.151611,9.734824,0.010995574,-0.043982297,-0.002443461,-0.1175447329878807,0.059447821229696274,-1.3928285837173462,1001.9817,
2021.05.22 15:23:22,22.0,24.0,39.059998,2.52,-33.84,-0.49799395,1.0031705,9.78989,-0.015882496,-0.004886922,0.01282817,-0.10198269039392471,0.050824377685785294,-1.4073565006256104,1001.9817,
2021.05.22 15:23:22,22.0,24.0,39.059998,2.82,-34.26,-0.3878607,0.9864111,9.742006,0.022602014,-0.05131268,0.026267206,-0.10083013027906418,0.03979220613837242,-1.402284860610962,1001.9817,
2021.05.22 15:23:22,22.0,24.0,38.94,3.06,-34.5,-0.090979666,0.8858546,10.103531,0.032375857,-0.10262536,0.017715093,-0.08745056390762329,0.009004496969282627,-1.4143741130828857,1001.97974,
2021.05.22 15:23:22,22.0,24.0,38.64,3.12,-34.079998,-0.17238252,1.0845734,9.452309,0.040927973,-0.15821409,-0.021380283,-0.11422320455312729,0.018235061317682266,-1.387067437171936,1001.97974,
2021.05.22 15:23:22,22.0,24.0,38.04,3.12,-33.84,-0.16519992,1.1492168,9.176975,0.11728613,-0.24617869,-0.0842994,-0.12455977499485016,0.017999621108174324,-1.375985026359558,1001.97974,
2021.05.22 15:23:22,22.0,24.0,37.38,2.9399998,-34.14,-0.18195933,1.1755531,9.303867,0.10262536,-0.14905111,-0.04520403,-0.1256612241268158,0.019554894417524338,-1.374833106994629,1001.97974,
2021.05.22 15:23:22,22.0,24.0,37.14,2.3999999,-33.899998,-0.16519992,1.2904748,9.749189,0.019547688,-0.08246681,-0.014049901,-0.13158367574214935,0.016943367198109627,-1.3840235471725464,1001.9812,
2021.05.22 15:23:22,22.0,24.0,37.32,2.22,-34.38,-0.260968,1.2018893,9.82341,-0.05375614,-0.028710667,0.008552114,-0.1217019110918045,0.026559680700302124,-1.3941588401794434,1001.9812,
2021.05.22 15:23:22,22.0,24.0,37.2,1.62,-35.04,-0.19871874,1.1324574,9.557653,-0.028710667,0.04520403,0.01160644,-0.11791186779737473,0.020788587629795074,-1.4124962091445923,1001.9812,
2021.05.22 15:23:22,22.0,24.0,37.44,1.74,-34.68,-0.095768064,0.9744401,9.825804,-0.023823744,-0.008552114,0.03848451,-0.09884367138147354,0.009746279567480087,-1.4318156242370605,1001.9812,
2021.05.22 15:23:22,22.0,24.0,37.44,2.04,-34.739998,-0.16759412,1.0486604,9.598354,-0.025045475,0.022602014,0.047036625,-0.10880611091852188,0.01745893992483616,-1.4127140045166016,1001.97266,
2021.05.22 15:23:22,22.0,24.0,37.38,1.92,-34.98,-0.16280572,0.9816227,9.919178,0.010995574,0.050701816,0.021380283,-0.0986277312040329,0.016411753371357918,-1.4247010946273804,1001.97266,
2021.05.22 15:23:22,22.0,24.0,37.38,2.52,-34.26,-0.23942018,1.0630256,9.662998,-0.028099801,0.019547688,0.03481932,-0.10953596234321594,0.02477193996310234,-1.3986355066299438,1001.97266,
2021.05.22 15:23:22,22.0,24.0,37.92,2.3999999,-34.02,-0.22026655,1.0606314,9.464279,0.016493361,-0.0018325958,0.022602014,-0.11157118529081345,0.02326926216483116,-1.403454303741455,1001.97266,
2021.05.22 15:23:22,22.0,24.0,38.219997,2.3999999,-34.02,-0.2633622,0.9672575,9.662998,0.028710667,0.018936822,0.03604105,-0.099729984998703,0.02724796161055565,-1.414415955543518,1001.9712,
2021.05.22 15:23:22,22.0,24.0,37.98,2.3999999,-33.78,-0.19871874,1.0127473,9.548077,-0.015882496,0.018325957,0.03726278,-0.10565037280321121,0.020809432491660118,-1.410352110862732,1001.9712,
2021.05.22 15:23:22,22.0,24.0,38.399998,1.8,-34.079998,-0.15801731,0.9935937,9.751583,0.013439035,0.014049901,0.034208454,-0.10152684897184372,0.016202853992581367,-1.4314557313919067,1001.9712,
2021.05.22 15:23:22,22.0,24.0,37.98,1.9799999,-34.5,-0.12689269,1.0247183,9.56723,-0.031154128,0.016493361,0.048258353,-0.10669101029634476,0.013262485153973103,-1.4201329946517944,1001.9712,
2021.05.22 15:23:22,22.0,24.0,37.98,2.04,-34.62,-0.074220255,1.0510546,9.500193,-0.004276057,0.04642576,0.029932396,-0.11018363386392593,0.007812341209501028,-1.4164456129074097,1001.9719,
2021.05.22 15:23:22,22.0,24.0,37.8,2.22,-34.62,0.04070143,1.0199299,9.595961,-0.020158553,0.052534413,0.036651913,-0.10588891804218292,-0.0042414916679263115,-1.4178459644317627,1001.9719,
2021.05.22 15:23:22,22.0,24.0,37.62,2.28,-34.62,0.04309563,1.043872,9.773131,-0.042760566,0.031154128,0.009773844,-0.10640595108270645,-0.0044095744378864765,-1.4151701927185059,1001.9719,
2021.05.22 15:23:22,22.0,24.0,37.68,1.74,-34.559998,-0.11492168,0.9792285,9.873688,-0.03176499,0.02443461,-0.019547688,-0.09884564578533173,0.011638659983873367,-1.4325802326202393,1001.9719,
2021.05.22 15:23:22,22.0,24.0,37.32,1.56,-34.559998,-0.29688102,0.9696517,9.742006,0.004276057,0.017104227,-0.05009095,-0.0991605743765831,0.030464891344308853,-1.4314388036727905,1001.9673,
2021.05.22 15:23:22,22.0,24.0,37.5,1.4399999,-34.5,-0.4261679,0.9768343,9.495404,0.030543262,0.002443461,-0.056199603,-0.10241144150495529,0.0448513925075531,-1.4289799928665161,1001.9673,
2021.05.22 15:23:23,22.0,24.0,37.559998,1.02,-34.62,-0.37110126,0.9672575,9.504981,0.02565634,0.0067195175,-0.016493361,-0.10133743286132812,0.03902300074696541,-1.4426320791244507,1001.9673,
2021.05.22 15:23:23,22.0,24.0,37.5,1.38,-34.62,-0.33279404,0.91937345,9.718064,-0.004276057,0.025045475,0.023823744,-0.09426892548799515,0.034231510013341904,-1.4406158924102783,1001.9673,
2021.05.22 15:23:23,22.0,24.0,37.44,1.68,-34.86,-0.17717093,0.866701,9.770737,-0.045814894,0.057421334,0.023823744,-0.08845771849155426,0.018130825832486153,-1.4407660961151123,1001.96045,
2021.05.22 15:23:23,22.0,24.0,37.62,1.86,-34.86,-0.110133275,0.91697925,9.627085,0.0067195175,0.017104227,0.017715093,-0.09495726972818375,0.01143944077193737,-1.4320478439331055,1001.96045,
2021.05.22 15:23:23,22.0,24.0,37.38,2.1,-34.559998,-0.1604115,0.91219085,9.497798,0.013439035,-0.009773844,-0.009162978,-0.095735102891922,0.016887731850147247,-1.4236308336257935,1001.96045,
2021.05.22 15:23:23,22.0,24.0,38.219997,1.86,-34.02,-0.35194764,0.9648633,9.698911,0.021991149,0.0036651916,-0.021380283,-0.0990905836224556,0.03627142310142517,-1.4270131587982178,1001.96045,
2021.05.22 15:23:23,22.0,24.0,38.46,1.86,-33.6,-0.33997664,0.9959879,9.753978,-6.1086525E-4,0.0067195175,-0.021380283,-0.1016969308257103,0.03484107553958893,-1.4270139932632446,1001.9702,
2021.05.22 15:23:23,22.0,24.0,38.52,1.86,-33.18,-0.45250413,1.0606314,9.552865,0.015271631,-0.002443461,-0.02076942,-0.11045186221599579,0.047333043068647385,-1.417490005493164,1001.9702,
2021.05.22 15:23:23,22.0,24.0,38.52,1.86,-33.42,-0.45489833,1.043872,9.569624,0.029321533,0.0030543262,-0.018325957,-0.10853064805269241,0.047499895095825195,-1.4184720516204834,1001.9702,
2021.05.22 15:23:23,22.0,24.0,38.1,2.1599998,-33.6,-0.33039984,1.0414777,9.572019,0.015271631,0.029932396,0.004886922,-0.10831405222415924,0.03450356051325798,-1.411808729171753,1001.9702,
2021.05.22 15:23:23,22.0,24.0,38.399998,2.3999999,-33.719997,-0.25378537,1.0702082,9.627085,0.004276057,0.004886922,0.027488936,-0.110673688352108,0.026355497539043427,-1.406415343284607,1001.97925,
2021.05.22 15:23:23,22.0,24.0,38.76,2.58,-33.719997,-0.30885202,1.067814,9.68694,0.0018325958,0.015882496,0.029321533,-0.10973376035690308,0.031872544437646866,-1.402728796005249,1001.97925,
2021.05.22 15:23:23,22.0,24.0,39.3,2.6399999,-33.719997,-0.25617957,1.103727,9.615114,0.017104227,0.018325957,0.025045475,-0.11425039172172546,0.02663712203502655,-1.400914192199707,1001.97925,
2021.05.22 15:23:23,22.0,24.0,39.3,2.46,-33.78,-0.25617957,1.0271125,9.619903,0.013439035,-0.017715093,0.027488936,-0.10632915049791336,0.026623869314789772,-1.4121662378311157,1001.97925,
2021.05.22 15:23:23,22.0,24.0,39.12,2.3999999,-33.66,0.011971008,0.9744401,9.792285,0.005497787,0.015271631,0.02443461,-0.09918440133333206,-0.0012224932434037328,-1.4258451461791992,1001.98,
2021.05.22 15:23:23,22.0,24.0,38.579998,2.1,-33.6,-0.11731588,1.0342951,9.634268,-0.015271631,0.008552114,0.009162978,-0.10693839192390442,0.012176336720585823,-1.4219330549240112,1001.98,
2021.05.22 15:23:23,22.0,24.0,38.52,2.28,-33.6,-0.39264908,1.0773908,9.481039,0.030543262,0.0061086523,-0.056199603,-0.11305489391088486,0.04139048978686333,-1.4043420553207397,1001.98,
2021.05.22 15:23:23,22.0,24.0,38.7,2.52,-33.66,-0.45968673,1.115698,9.3661175,0.027488936,0.004886922,-0.07880162,-0.11842075735330582,0.049040403217077255,-1.3917136192321777,1001.98,
2021.05.22 15:23:23,22.0,24.0,38.82,2.1599998,-33.48,-0.49320555,1.1803415,9.710882,0.014660766,-0.021380283,-0.05009095,-0.12080080062150955,0.05074534937739372,-1.3995569944381714,1001.98047,
2021.05.22 15:23:23,22.0,24.0,38.76,1.9799999,-33.48,-0.4333505,1.1899183,9.809045,-0.031154128,0.0036651916,-0.029932396,-0.12060192227363586,0.04414995759725571,-1.4059598445892334,1001.98047,
2021.05.22 15:23:23,22.0,24.0,38.579998,1.74,-33.18,-0.47165772,1.1899183,9.581595,0.022602014,0.01160644,-0.02687807,-0.12340740114450455,0.04918568208813667,-1.408569097518921,1001.98047,
2021.05.22 15:23:23,22.0,24.0,38.64,1.68,-32.94,-0.30645782,1.0869676,9.770737,0.012217305,0.0018325958,0.007941248,-0.11073768883943558,0.03135458379983902,-1.4270155429840088,1001.98047,
2021.05.22 15:23:23,22.0,24.0,38.34,1.38,-33.48,-0.18195933,1.079785,9.603143,0.02565634,-0.002443461,0.020158553,-0.11195056885480881,0.01894562691450119,-1.4339313507080078,1001.9839,
2021.05.22 15:23:23,22.0,24.0,38.579998,1.4399999,-33.36,-0.29209262,1.0773908,9.536105,0.039095376,-0.050701816,0.004276057,-0.11245080828666687,0.030620604753494263,-1.4304081201553345,1001.9839,
2021.05.22 15:23:23,22.0,24.0,38.579998,1.26,-33.719997,-0.32561144,1.13964,9.574412,0.03176499,-0.04642576,-0.017104227,-0.11840453743934631,0.033995404839515686,-1.4277851581573486,1001.9839,
2021.05.22 15:23:24,22.0,24.0,38.52,0.9,-33.96,-0.33758244,1.1851299,9.605537,0.014049901,-0.04153884,-0.004886922,-0.12268447875976562,0.035130105912685394,-1.4319719076156616,1001.9839,
2021.05.22 15:23:24,22.0,24.0,38.82,1.0799999,-34.14,-0.2705448,1.1420342,9.722853,0.014049901,-0.013439035,-0.009162978,-0.11687818169593811,0.027818480506539345,-1.4348523616790771,1001.98486,
2021.05.22 15:23:24,22.0,24.0,38.579998,1.02,-34.5,-0.24660277,1.1204864,9.646238,0.015271631,-0.012217305,-0.005497787,-0.11560218781232834,0.025559088215231895,-1.4361529350280762,1001.98486,
2021.05.22 15:23:24,22.0,24.0,38.1,1.02,-34.38,-0.2633622,1.1444284,9.509769,0.0421497,-0.014660766,-0.008552114,-0.11972097307443619,0.02768678031861782,-1.43052339553833,1001.98486,
2021.05.22 15:23:24,22.0,24.0,37.98,1.4399999,-34.5,-0.21787235,1.1827357,9.713276,-0.015882496,0.004276057,6.1086525E-4,-0.12113819271326065,0.022426607087254524,-1.41873037815094,1001.98486,
2021.05.22 15:23:24,22.0,24.0,37.62,0.96,-34.079998,-0.2873042,1.1731589,9.442732,0.015882496,0.0036651916,-0.004886922,-0.12354937940835953,0.0304165780544281,-1.4270812273025513,1001.9802,
2021.05.22 15:23:24,22.0,24.0,37.92,1.0799999,-33.66,-0.055066638,1.1851299,9.622296,-0.015271631,-0.0012217305,0.014049901,-0.12254581600427628,0.005722754169255495,-1.4334896802902222,1001.9802,
2021.05.22 15:23:24,22.0,24.0,38.28,1.3199999,-33.78,-0.39983168,1.1755531,9.7803135,-0.022602014,0.021991149,0.0067195175,-0.11952309310436249,0.040858522057533264,-1.4221367835998535,1001.9802,
2021.05.22 15:23:24,22.0,24.0,38.28,0.78,-33.36,-0.22744916,1.1492168,9.485827,-0.021380283,0.019547688,-0.008552114,-0.12052905559539795,0.023973194882273674,-1.440901279449463,1001.9802,
2021.05.22 15:23:24,22.0,24.0,38.16,1.5,-33.36,-0.25857377,1.151611,9.473856,0.0067195175,-0.020158553,0.016493361,-0.12091868370771408,0.027286628261208534,-1.4205456972122192,1001.979,
2021.05.22 15:23:24,22.0,24.0,38.16,1.26,-33.6,-0.272939,1.1851299,9.600749,-0.005497787,0.03359759,-0.004886922,-0.12277098000049591,0.028421271592378616,-1.424065113067627,1001.979,
2021.05.22 15:23:24,22.0,24.0,38.34,1.3199999,-33.059998,-0.30406362,1.1851299,9.856929,-0.032986723,0.0,0.002443461,-0.11960243433713913,0.030837925150990486,-1.4271799325942993,1001.979,
2021.05.22 15:23:24,22.0,24.0,38.28,1.62,-33.18,-0.36152446,1.2138603,9.82341,-0.02565634,0.023823744,-0.0061086523,-0.1228625476360321,0.03678573668003082,-1.414287805557251,1001.979,
2021.05.22 15:23:24,22.0,24.0,38.1,1.5,-33.059998,-0.2825158,1.2593501,9.555259,-0.0012217305,-0.039095376,0.004276057,-0.13098467886447906,0.029557913541793823,-1.4117915630340576,1001.9741,
2021.05.22 15:23:24,22.0,24.0,38.64,1.9799999,-32.579998,-0.3854665,1.2306197,9.481039,0.035430185,-0.051923547,0.0067195175,-0.12897096574306488,0.040634188801050186,-1.402045726776123,1001.9741,
2021.05.22 15:23:24,22.0,24.0,38.879997,1.92,-32.94,-0.21787235,1.2018893,9.574412,0.028710667,-0.021991149,0.010995574,-0.1248461976647377,0.022751761600375175,-1.411716341972351,1001.9741,
2021.05.22 15:23:24,22.0,24.0,39.18,2.1599998,-33.3,-0.22984336,1.163582,9.595961,0.0067195175,-0.045814894,0.034208454,-0.12063410133123398,0.023947514593601227,-1.4089914560317993,1001.9741,
2021.05.22 15:23:24,22.0,24.0,39.96,1.68,-33.719997,-0.2657564,1.1324574,9.691729,0.0067195175,-6.1086525E-4,0.018325957,-0.11627703160047531,0.027414077892899513,-1.4255880117416382,1001.96436,
2021.05.22 15:23:24,22.0,24.0,39.42,1.1999999,-34.32,-0.23702596,1.0941502,9.634268,-0.007330383,-0.020158553,0.027488936,-0.11305014789104462,0.024597423151135445,-1.437472939491272,1001.96436,
2021.05.22 15:23:24,22.0,24.0,39.18,1.1999999,-34.32,-0.28491,1.1587936,9.68694,0.007330383,-0.0018325958,0.019547688,-0.11900757253170013,0.029403286054730415,-1.430167555809021,1001.96436,
2021.05.22 15:23:24,22.0,24.0,38.879997,0.84,-34.2,-0.29927522,1.1899183,9.552865,6.1086525E-4,6.1086525E-4,0.008552114,-0.12386297434568405,0.03131807595491409,-1.4338657855987549,1001.96436,
2021.05.22 15:23:24,22.0,24.0,38.7,1.02,-33.96,-0.24420857,1.1779473,9.607931,0.009773844,0.0036651916,0.012217305,-0.12195374816656113,0.025411924347281456,-1.4325675964355469,1001.96045,
2021.05.22 15:23:24,22.0,24.0,38.7,1.1999999,-33.96,-0.18674773,1.151611,9.701305,-0.004886922,0.007941248,0.015271631,-0.11813221126794815,0.019247375428676605,-1.4328445196151733,1001.96045,
2021.05.22 15:23:24,22.0,24.0,38.399998,1.3199999,-33.899998,-0.18435353,1.1348516,9.739613,-0.016493361,0.010995574,0.005497787,-0.115975521504879,0.01892595924437046,-1.4308674335479736,1001.96045,
2021.05.22 15:23:24,22.0,24.0,38.64,1.0799999,-34.2,-0.2681506,1.1851299,9.600749,0.01282817,-0.0036651916,-0.007330383,-0.12277267128229141,0.027922913432121277,-1.4286600351333618,1001.96045,
2021.05.22 15:23:25,22.0,24.0,38.28,1.0799999,-33.6,-0.25139117,1.1923125,9.488221,0.004276057,0.007941248,-0.018936822,-0.12496373802423477,0.026488881558179855,-1.4277243614196777,1001.97925,
2021.05.22 15:23:25,22.0,24.0,38.52,0.84,-33.6,-0.2657564,1.1899183,9.643845,0.0061086523,0.010995574,-0.014049901,-0.12271968275308609,0.02755012921988964,-1.4365612268447876,1001.97925,
2021.05.22 15:23:25,22.0,24.0,38.7,0.42,-33.719997,-0.18435353,1.1444284,9.744401,-0.020158553,0.02076942,-0.0030543262,-0.11688842624425888,0.0189166609197855,-1.4547964334487915,1001.97925,
2021.05.22 15:23:25,22.0,24.0,38.46,0.78,-33.54,-0.2633622,1.1803415,9.710882,-0.01038471,0.01160644,-0.0061086523,-0.12091097980737686,0.027113670483231544,-1.4398369789123535,1001.97925,
2021.05.22 15:23:25,22.0,24.0,38.28,1.26,-34.02,-0.2801216,1.1492168,9.639056,0.0061086523,0.007941248,-0.021991149,-0.1186152845621109,0.02905292436480522,-1.4267497062683105,1001.9719,
2021.05.22 15:23:25,22.0,24.0,38.16,1.14,-33.899998,-0.24181437,1.115698,9.615114,-0.0018325958,0.010995574,-0.01160644,-0.11548304557800293,0.025144100189208984,-1.43363356590271,1001.9719,
2021.05.22 15:23:25,22.0,24.0,37.98,1.4399999,-34.079998,-0.28491,1.1444284,9.528923,0.007941248,-0.016493361,-0.01160644,-0.1194751039147377,0.02989059127867222,-1.4196950197219849,1001.9719,
2021.05.22 15:23:25,22.0,24.0,37.86,1.5,-33.84,-0.34955344,1.1204864,9.722853,-0.004276057,0.009773844,-0.019547688,-0.11466297507286072,0.03593625873327255,-1.4213184118270874,1001.9719,
2021.05.22 15:23:25,22.0,24.0,38.28,1.0799999,-33.66,-0.2896984,1.1492168,9.698911,-0.015882496,0.01282817,-0.009773844,-0.11788727343082428,0.02986028976738453,-1.4330710172653198,1001.959,
2021.05.22 15:23:25,22.0,24.0,38.7,0.84,-33.3,-0.272939,1.0989386,9.679757,-0.0061086523,-0.0061086523,-0.0018325958,-0.1130010113120079,0.028189415112137794,-1.4466285705566406,1001.959,
2021.05.22 15:23:25,22.0,24.0,38.76,0.59999996,-33.36,-0.32561144,1.115698,9.504981,-0.0030543262,-0.009773844,-0.004276057,-0.11677778512239456,0.03424353525042534,-1.4481252431869507,1001.959,
2021.05.22 15:23:25,22.0,24.0,39.18,0.29999998,-33.3,-0.25857377,1.1013328,9.662998,0.0030543262,-0.005497787,-0.005497787,-0.1134442612528801,0.026752782985568047,-1.4618903398513794,1001.959,
2021.05.22 15:23:25,22.0,24.0,39.0,0.29999998,-33.239998,-0.30406362,1.1204864,9.634268,-0.019547688,0.0030543262,0.0030543262,-0.11572491377592087,0.03155016154050827,-1.4585356712341309,1001.9707,
2021.05.22 15:23:25,22.0,24.0,38.34,1.14,-33.48,-0.33039984,1.115698,9.722853,-0.0067195175,-0.010995574,0.0,-0.11418499797582626,0.03396870940923691,-1.4346551895141602,1001.9707,
2021.05.22 15:23:25,22.0,24.0,38.579998,1.3199999,-33.12,-0.34955344,1.103727,9.543288,-0.018936822,0.002443461,0.002443461,-0.11506673693656921,0.03661182522773743,-1.4305027723312378,1001.9707,
2021.05.22 15:23:25,22.0,24.0,38.1,1.8,-33.12,-0.36870706,1.1420342,9.56723,0.0036651916,-0.013439035,0.005497787,-0.11871988326311111,0.0385194756090641,-1.4123115539550781,1001.9707,
2021.05.22 15:23:25,22.0,24.0,38.399998,1.92,-33.66,-0.2825158,1.13964,9.600749,-0.014660766,-0.0012217305,0.007941248,-0.11809973418712616,0.029417941346764565,-1.41159188747406,1001.9658,
2021.05.22 15:23:25,22.0,24.0,39.0,2.04,-33.42,-0.22505496,1.1252748,9.7324295,-0.019547688,0.009162978,0.02076942,-0.11507952958345413,0.023120112717151642,-1.4159252643585205,1001.9658,
2021.05.22 15:23:25,22.0,24.0,38.94,1.86,-33.6,-0.16280572,1.1180922,9.569624,-0.030543262,0.01282817,0.019547688,-0.11629361659288406,0.017011119052767754,-1.4201740026474,1001.9658,
2021.05.22 15:23:25,22.0,24.0,39.059998,1.5,-33.719997,-0.22984336,1.0845734,9.856929,-0.018325957,0.0036651916,0.014049901,-0.10956118255853653,0.023313725367188454,-1.4337587356567383,1001.9658,
2021.05.22 15:23:25,22.0,24.0,38.76,1.68,-33.66,-0.35434186,1.0893618,9.574412,-0.04337143,-0.01160644,-0.0030543262,-0.113214410841465,0.03699237108230591,-1.4216986894607544,1001.9761,
2021.05.22 15:23:25,22.0,24.0,38.399998,1.5,-33.899998,-0.35194764,1.091756,9.569624,0.01282817,0.013439035,-0.016493361,-0.11351834982633591,0.03676101565361023,-1.4240562915802002,1001.9761,
2021.05.22 15:23:25,22.0,24.0,38.579998,1.3199999,-33.42,-0.33039984,1.0893618,9.629479,-0.010995574,-0.0018325958,0.002443461,-0.11258316785097122,0.03429783135652542,-1.4323540925979614,1001.9761,
2021.05.22 15:23:25,22.0,24.0,38.64,1.74,-33.239998,-0.2777274,1.0486604,9.660604,-0.007941248,0.012217305,0.007941248,-0.10808251798152924,0.0287405364215374,-1.4275323152542114,1001.9761,
2021.05.22 15:23:25,22.0,24.0,38.7,1.86,-32.76,-0.22744916,1.0510546,9.773131,-0.026267206,-0.0036651916,0.013439035,-0.10710478574037552,0.02326870523393154,-1.428162693977356,1001.979,
2021.05.22 15:23:26,22.0,24.0,38.94,1.86,-32.76,-0.2681506,1.0726024,9.540894,-0.005497787,-0.0018325958,-0.0012217305,-0.11190769821405411,0.02809799835085869,-1.4237879514694214,1001.979,
2021.05.22 15:23:26,22.0,24.0,38.82,2.28,-33.3,-0.30406362,1.067814,9.615114,-0.0018325958,-6.1086525E-4,-0.01038471,-0.1105477511882782,0.03161297366023064,-1.4112714529037476,1001.979,
2021.05.22 15:23:26,22.0,24.0,38.879997,1.9799999,-33.42,-0.30885202,1.0486604,9.679757,-0.020158553,-0.002443461,-0.0012217305,-0.10786008089780807,0.03189617767930031,-1.4211643934249878,1001.979,
2021.05.22 15:23:26,22.0,24.0,38.64,1.68,-33.78,-0.25378537,1.0414777,9.636662,-0.010995574,-6.1086525E-4,-0.004276057,-0.10761965811252594,0.026329318061470985,-1.428493618965149,1001.98315,
2021.05.22 15:23:26,22.0,24.0,38.1,1.5,-33.54,-0.29927522,1.0630256,9.828198,-0.014049901,-0.007330383,-0.0012217305,-0.1076924055814743,0.03044126182794571,-1.4308881759643555,1001.98315,
2021.05.22 15:23:26,22.0,24.0,37.68,1.56,-33.48,-0.37828386,1.0127473,9.598354,-0.014660766,0.0036651916,-0.009162978,-0.10504269599914551,0.039390940219163895,-1.42824387550354,1001.98315,
2021.05.22 15:23:26,22.0,24.0,37.68,2.28,-33.42,-0.39743748,1.0223241,9.457097,0.02076942,-0.022602014,-0.0061086523,-0.10758887231349945,0.04200059920549393,-1.4061405658721924,1001.98315,
2021.05.22 15:23:26,22.0,24.0,37.92,2.34,-33.0,-0.21068975,0.9816227,9.677363,-0.009162978,0.0018325958,0.013439035,-0.10106538981199265,0.021767960861325264,-1.4176723957061768,1001.9839,
2021.05.22 15:23:26,22.0,24.0,38.28,2.1599998,-33.42,-0.31364042,1.0295067,9.753978,-0.02076942,0.004276057,0.015882496,-0.10510410368442535,0.032144054770469666,-1.4165579080581665,1001.9839,
2021.05.22 15:23:26,22.0,24.0,38.46,1.56,-32.88,-0.16998832,1.0007763,9.794679,-0.014049901,-0.0061086523,0.007330383,-0.10180693119764328,0.017353428527712822,-1.4405869245529175,1001.9839,
2021.05.22 15:23:26,22.0,24.0,38.7,0.48,-33.059998,-0.40940848,1.043872,9.593566,6.1086525E-4,-0.010995574,0.0067195175,-0.10828540474176407,0.042649440467357635,-1.457866907119751,1001.9839,
2021.05.22 15:23:26,22.0,24.0,39.0,0.48,-33.0,-0.320823,1.0462662,9.64145,0.009773844,-0.03481932,-0.009162978,-0.10803519934415817,0.03326311707496643,-1.4610695838928223,1001.9873,
2021.05.22 15:23:26,22.0,24.0,38.82,0.48,-32.579998,-0.17717093,1.0175357,9.639056,0.0061086523,0.005497787,0.020158553,-0.10515666753053665,0.01837845705449581,-1.4672460556030273,1001.9873,
2021.05.22 15:23:26,22.0,24.0,38.94,0.84,-33.059998,-0.21787235,1.0390835,9.634268,0.004886922,-0.039095376,0.027488936,-0.10741032660007477,0.022610459476709366,-1.4541856050491333,1001.9873,
2021.05.22 15:23:26,22.0,24.0,38.82,1.02,-33.239998,-0.2657564,1.0151415,9.667787,-0.0067195175,-0.02443461,0.008552114,-0.10457988828420639,0.027481935918331146,-1.4501360654830933,1001.9873,
2021.05.22 15:23:26,22.0,24.0,38.64,1.1999999,-33.78,-0.4381389,1.0510546,9.928755,0.0018325958,-0.020158553,0.014049901,-0.1053650751709938,0.04409966990351677,-1.4389526844024658,1001.9746,
2021.05.22 15:23:26,22.0,24.0,38.7,1.4399999,-33.84,-0.5650316,0.81163436,9.660604,-6.1086525E-4,-0.06719518,0.032986723,-0.08367569744586945,0.05842167139053345,-1.450068712234497,1001.9746,
2021.05.22 15:23:26,22.0,24.0,38.16,1.4399999,-34.079998,0.50757074,1.42455,8.872911,0.09285152,-0.11362094,0.10873401,-0.15893647074699402,-0.05714225769042969,-1.4108057022094727,1001.9746,
2021.05.22 15:23:26,22.0,24.0,37.86,1.1999999,-34.44,-0.36152446,1.13964,10.225636,-0.032375857,-0.06047566,0.13927728,-0.11092255264520645,0.035339999943971634,-1.43105947971344,1001.9746,
2021.05.22 15:23:26,22.0,24.0,37.739998,0.84,-33.84,0.40462008,0.91458505,9.816227,-0.07574729,0.057421334,0.044593163,-0.09282416850328445,-0.04119618982076645,-1.4732513427734375,1001.9768,
2021.05.22 15:23:26,22.0,24.0,37.86,0.9,-33.84,0.23702596,1.0534488,9.442732,0.028099801,-0.12644911,0.1001819,-0.1110677644610405,-0.025096148252487183,-1.454040288925171,1001.9768,
