Time,X-cord,Y-cord,Mag_x,Mag_y,Mag_z,Acc_x,Acc_y,Acc_z,Gyro_x,Gyro_y,Gyro_z,Orn_x,Orn_y,Orn_z,Pressure,
2021.05.22 15:35:30,85.0,24.0,47.879997,3.12,-23.88,-0.45729253,0.9983821,9.78989,0.10995574,-0.028099801,-0.004886922,-0.10151965171098709,0.04667676240205765,-1.4483674764633179,1001.91284,
2021.05.22 15:35:30,85.0,24.0,48.0,3.12,-24.72,-0.5793968,0.8738836,9.514558,0.116675265,0.0720821,0.0018325958,-0.09142161905765533,0.06082071363925934,-1.450158715248108,1001.9292,
2021.05.22 15:35:30,85.0,24.0,47.879997,2.46,-24.48,-0.3854665,0.8523358,9.545682,0.087964594,0.04520403,0.07452556,-0.08898189663887024,0.040359314531087875,-1.4687985181808472,1001.9292,
2021.05.22 15:35:30,85.0,24.0,47.7,1.68,-24.96,-0.39743748,0.842759,9.435549,0.08002335,0.076358154,0.08307768,-0.08900254219770432,0.04209640622138977,-1.4837263822555542,1001.9292,
2021.05.22 15:35:30,85.0,24.0,47.579998,1.38,-25.14,-0.22744916,0.8475474,9.478644,0.055588737,0.057421334,0.11056661,-0.08915381878614426,0.023991353809833527,-1.4918804168701172,1001.9292,
2021.05.22 15:35:30,85.0,24.0,47.82,1.0799999,-24.6,-0.18435353,0.8738836,9.23683,0.058643065,0.012217305,0.09896017,-0.09430917352437973,0.01995587907731533,-1.4973615407943726,1001.9326,
2021.05.22 15:35:30,85.0,24.0,47.52,1.3199999,-24.84,-0.079008654,0.8283938,9.730036,0.002443461,0.048258353,0.08552113,-0.0849301889538765,0.008119899779558182,-1.4979064464569092,1001.9326,
2021.05.22 15:35:30,85.0,24.0,47.46,1.1999999,-24.72,-0.0023942017,0.80924016,9.648633,-0.01038471,0.03359759,0.06352998,-0.08367513120174408,2.4813893833197653E-4,-1.502146601676941,1001.9326,
2021.05.22 15:35:30,85.0,24.0,48.12,0.78,-24.66,-0.12210429,0.79726917,9.624691,0.012217305,0.004886922,0.016493361,-0.08264051377773285,0.012685886584222317,-1.5109732151031494,1001.9326,
2021.05.22 15:35:30,85.0,24.0,48.059998,0.96,-24.66,-0.25139117,0.90979666,9.516952,0.04886922,-0.027488936,-0.026267206,-0.09527482092380524,0.026408953592181206,-1.4987261295318604,1001.91724,
2021.05.22 15:35:30,85.0,24.0,48.239998,0.65999997,-23.939999,-0.5363012,0.9911995,9.672575,0.029932396,-0.05009095,-0.05009095,-0.10196325927972794,0.05538883060216904,-1.499155879020691,1001.91724,
2021.05.22 15:35:30,85.0,24.0,48.6,1.1999999,-23.76,-0.6991069,1.0486604,9.634268,0.06780604,-0.021991149,-0.05681047,-0.10813798010349274,0.07243763655424118,-1.4826831817626953,1001.91724,
2021.05.22 15:35:30,85.0,24.0,47.94,0.96,-23.76,-0.79726917,0.9792285,9.782708,0.03848451,-0.02443461,-0.02443461,-0.09943807870149612,0.08131808042526245,-1.4904316663742065,1001.91724,
2021.05.22 15:35:30,85.0,24.0,48.12,0.06,-23.76,-0.7469909,0.8283938,9.739613,0.037873644,0.018936822,-0.005497787,-0.08460260182619095,0.076546311378479,-1.5194439888000488,1001.91895,
2021.05.22 15:35:30,85.0,24.0,48.239998,0.53999996,-24.18,-0.6368576,0.7685388,9.698911,0.01160644,0.0036651916,0.026267206,-0.07890526205301285,0.06556867063045502,-1.5130903720855713,1001.91895,
2021.05.22 15:35:30,85.0,24.0,47.579998,0.24,-24.119999,-0.48841715,0.81402856,9.82341,-0.022602014,0.048258353,0.020158553,-0.08257575333118439,0.04967880621552467,-1.518579363822937,1001.91895,
2021.05.22 15:35:30,85.0,24.0,47.34,0.48,-24.06,-0.4141969,1.0726024,9.598354,-0.008552114,-0.025045475,-0.0018325958,-0.11118423938751221,0.04312615469098091,-1.4980608224868774,1001.91895,
2021.05.22 15:35:31,85.0,24.0,46.92,0.71999997,-24.06,-0.30885202,1.1971009,9.449914,0.016493361,-0.015271631,-0.007330383,-0.12594079971313477,0.03267142176628113,-1.4858264923095703,1001.9121,
2021.05.22 15:35:31,85.0,24.0,47.16,0.29999998,-24.3,-0.46686932,1.1372458,9.459491,0.019547688,-0.017104227,-0.034208454,-0.119504414498806,0.049314580857753754,-1.495380163192749,1001.9121,
2021.05.22 15:35:31,85.0,24.0,47.34,0.42,-24.18,-0.60573304,1.0390835,9.655815,-0.007941248,-0.01282817,-0.05009095,-0.10699094831943512,0.06265036016702652,-1.498521089553833,1001.9121,
2021.05.22 15:35:31,85.0,24.0,47.579998,0.78,-23.88,-0.51714754,0.82121116,9.880871,-0.051923547,0.049480084,-0.02565634,-0.08280782401561737,0.05229054391384125,-1.5070031881332397,1001.9121,
2021.05.22 15:35:31,85.0,24.0,47.879997,1.02,-23.58,-0.39743748,0.7493851,10.350134,-0.092240654,-0.01282817,-0.013439035,-0.07222425192594528,0.03838040307164192,-1.5101499557495117,1001.926,
2021.05.22 15:35:31,85.0,24.0,47.7,1.14,-23.1,-0.1316811,0.81163436,10.129868,-0.021991149,-0.06047566,-0.012217305,-0.07994537055492401,0.012998559512197971,-1.5069431066513062,1001.926,
2021.05.22 15:35:31,85.0,24.0,47.82,1.38,-23.4,-0.21308395,0.830788,8.880095,0.14905111,-0.084910266,-0.059253927,-0.09325798600912094,0.02399108186364174,-1.4934972524642944,1001.926,
2021.05.22 15:35:31,85.0,24.0,47.34,1.1999999,-23.82,-0.39025488,0.7733272,9.114726,0.0580322,-0.05009095,-0.092240654,-0.08456389605998993,0.04278973117470741,-1.4979567527770996,1001.926,
2021.05.22 15:35:31,85.0,24.0,47.579998,1.14,-24.42,-0.6847417,0.7086837,9.713276,-0.027488936,0.10323623,-0.10445796,-0.07265160232782364,0.07037900388240814,-1.502086877822876,1001.9297,
2021.05.22 15:35:31,85.0,24.0,47.399998,1.3199999,-24.72,-0.22744916,0.6440403,9.993398,-0.047647487,0.054367006,-0.018936822,-0.06434096395969391,0.02275601401925087,-1.5073344707489014,1001.9297,
2021.05.22 15:35:31,85.0,24.0,47.28,1.02,-24.72,-0.22026655,0.7422025,9.672575,-0.009773844,-0.023823744,-0.021991149,-0.07656282931566238,0.02276834286749363,-1.5068724155426025,1001.9297,
2021.05.22 15:35:31,85.0,24.0,48.0,1.02,-24.779999,-0.33758244,0.8619126,9.361329,0.045814894,-0.049480084,-0.04886922,-0.09175344556570053,0.03604575991630554,-1.497784972190857,1001.9297,
2021.05.22 15:35:31,85.0,24.0,47.76,1.62,-24.66,-0.2633622,0.8523358,9.548077,-0.031154128,-0.04520403,-0.005497787,-0.08899813890457153,0.02757575735449791,-1.4876599311828613,1001.92944,
2021.05.22 15:35:31,85.0,24.0,47.76,1.4399999,-24.119999,-0.21068975,0.7733272,9.871294,-0.05497787,0.005497787,0.009162978,-0.07816360145807266,0.021340440958738327,-1.4989780187606812,1001.92944,
2021.05.22 15:35:31,85.0,24.0,47.76,1.62,-24.359999,-0.1316811,0.78529817,9.907207,-0.058643065,-0.007330383,0.008552114,-0.07909300923347473,0.013290663249790668,-1.4952611923217773,1001.92944,
2021.05.22 15:35:31,85.0,24.0,47.28,2.22,-24.48,-0.08619126,0.78769237,9.655815,-0.015882496,-0.040317107,0.0018325958,-0.0813935175538063,0.008926120586693287,-1.4809995889663696,1001.92944,
2021.05.22 15:35:31,85.0,24.0,47.34,1.9799999,-24.6,-0.1412579,0.80205756,9.595961,0.004886922,-0.007330383,-0.018325957,-0.08338001370429993,0.014719495549798012,-1.4841612577438354,1001.9304,
2021.05.22 15:35:31,85.0,24.0,47.34,2.3999999,-24.9,-0.29688102,0.7206547,9.742006,-0.0036651916,-0.028099801,-0.005497787,-0.0738053247332573,0.030464893206954002,-1.4779568910598755,1001.9304,
2021.05.22 15:35:31,85.0,24.0,47.579998,2.1,-24.66,-0.37588966,0.7565677,9.983821,-0.02076942,0.0018325958,-0.0030543262,-0.07558148354291916,0.037632107734680176,-1.4832886457443237,1001.9304,
2021.05.22 15:35:31,85.0,24.0,47.879997,1.92,-24.119999,-0.34955344,0.82360536,9.813833,-0.007941248,-0.017715093,0.010995574,-0.0836738869547844,0.03560338914394379,-1.4843932390213013,1001.9304,
2021.05.22 15:35:31,85.0,24.0,47.64,2.28,-24.18,-0.28491,0.8331822,9.581595,0.007941248,-0.023823744,0.018325957,-0.08670021593570709,0.02972637116909027,-1.4754174947738647,1001.9263,
2021.05.22 15:35:31,85.0,24.0,47.879997,1.9799999,-24.3,-0.14604631,0.7733272,9.7324295,-0.01160644,-0.0061086523,0.03481932,-0.07928331941366196,0.015005026012659073,-1.4877415895462036,1001.9263,
2021.05.22 15:35:31,85.0,24.0,47.879997,2.1599998,-24.42,-0.095768064,0.7206547,9.653421,-0.027488936,0.012217305,0.027488936,-0.07451090961694717,0.00992030929774046,-1.486872673034668,1001.9263,
2021.05.22 15:35:31,85.0,24.0,47.7,1.9799999,-24.66,-0.110133275,0.7254431,9.615114,-0.010995574,-0.030543262,-6.1086525E-4,-0.07530061155557632,0.01145368255674839,-1.4893450736999512,1001.9263,
2021.05.22 15:35:31,85.0,24.0,48.539997,1.14,-24.24,-0.16759412,0.6967127,9.457097,-6.1086525E-4,-0.016493361,-0.015882496,-0.0735265240073204,0.017719663679599762,-1.5089144706726074,1001.9287,
2021.05.22 15:35:32,85.0,24.0,48.18,1.38,-24.24,-0.31603462,0.79966336,9.859323,-0.047647487,-0.010995574,-0.03970624,-0.08088881522417068,0.032043423503637314,-1.4979430437088013,1001.9287,
2021.05.22 15:35:32,85.0,24.0,47.76,1.74,-24.24,-0.36870706,0.9576807,9.471462,-6.1086525E-4,-0.035430185,-0.029932396,-0.10069399327039719,0.03890856355428696,-1.4780170917510986,1001.9287,
2021.05.22 15:35:32,85.0,24.0,47.76,1.56,-24.42,-0.3854665,1.0055647,9.588778,-0.02321288,-0.049480084,0.0036651916,-0.1044032871723175,0.040178120136260986,-1.4791789054870605,1001.9287,
2021.05.22 15:35:32,85.0,24.0,46.8,1.92,-24.779999,-0.39504328,0.9624691,9.753978,-0.010995574,0.017715093,0.012217305,-0.09827607125043869,0.04047861322760582,-1.4722087383270264,1001.9243,
2021.05.22 15:35:32,85.0,24.0,47.399998,1.68,-24.779999,-0.40940848,0.830788,9.545682,0.009162978,0.0012217305,0.025045475,-0.08673477172851562,0.04286312311887741,-1.4847304821014404,1001.9243,
2021.05.22 15:35:32,85.0,24.0,47.28,1.62,-24.84,-0.23223756,0.62249243,9.969456,-0.040927973,0.017715093,0.05681047,-0.06234213337302208,0.02329069748520851,-1.50166916847229,1001.9243,
2021.05.22 15:35:32,85.0,24.0,47.579998,1.92,-24.66,-0.01436521,0.56982,9.627085,-0.0012217305,0.013439035,0.059253927,-0.059120211750268936,0.0014921650290489197,-1.4998664855957031,1001.9243,
2021.05.22 15:35:32,85.0,24.0,47.579998,2.1,-24.84,-0.29209262,0.6847417,9.255983,0.02565634,-0.037873644,-0.0018325958,-0.07380715757608414,0.0315466970205307,-1.4847255945205688,1001.9253,
2021.05.22 15:35:32,85.0,24.0,46.739998,2.52,-25.199999,-0.39504328,0.7565677,9.634268,-0.03359759,0.03481932,0.004276057,-0.07830246537923813,0.04098101705312729,-1.4697232246398926,1001.9253,
2021.05.22 15:35:32,85.0,24.0,46.92,1.92,-25.199999,-0.44532153,0.8283938,9.694122,-0.028710667,0.010995574,0.02443461,-0.08515674620866776,0.04590499773621559,-1.4783698320388794,1001.9253,
2021.05.22 15:35:32,85.0,24.0,46.8,1.8,-25.38,-0.35673606,0.93613285,9.591172,-0.037873644,0.030543262,0.032986723,-0.09722860157489777,0.03717707097530365,-1.4745858907699585,1001.9253,
2021.05.22 15:35:32,85.0,24.0,47.219997,1.56,-24.96,-0.24181437,0.9672575,9.634268,-0.03176499,-0.021991149,0.053145275,-0.10003101825714111,0.025094134733080864,-1.481671690940857,1001.9297,
2021.05.22 15:35:32,85.0,24.0,47.82,0.96,-24.6,-0.095768064,0.81881696,9.866506,-0.04153884,0.06841691,0.059253927,-0.08279593288898468,0.009706076234579086,-1.5072100162506104,1001.9297,
2021.05.22 15:35:32,85.0,24.0,48.239998,1.3199999,-24.779999,-0.076614454,0.7374141,9.981427,-0.017715093,0.022602014,0.045814894,-0.07374248653650284,0.007675550412386656,-1.5049307346343994,1001.9297,
2021.05.22 15:35:32,85.0,24.0,48.3,1.1999999,-24.779999,-0.16519992,0.7422025,9.634268,0.02565634,-0.005497787,0.0036651916,-0.07687465101480484,0.017145438119769096,-1.5048178434371948,1001.9297,
2021.05.22 15:35:32,85.0,24.0,48.059998,1.0799999,-24.779999,-0.32561144,0.7661445,9.691729,0.026267206,0.01282817,-0.014049901,-0.07884302735328674,0.03358420729637146,-1.5040671825408936,1001.92554,
2021.05.22 15:35:32,85.0,24.0,47.879997,1.1999999,-24.359999,-0.37110126,0.79966336,9.634268,0.023823744,0.010995574,-0.010995574,-0.0827510803937912,0.0384998545050621,-1.4992820024490356,1001.92554,
2021.05.22 15:35:32,85.0,24.0,47.76,1.02,-24.0,-0.37110126,0.8762778,9.672575,0.017715093,-6.1086525E-4,-0.0018325958,-0.09028136730194092,0.038347527384757996,-1.4994899034500122,1001.92554,
2021.05.22 15:35:32,85.0,24.0,47.879997,1.26,-23.4,-0.2681506,0.8834604,9.691729,0.007330383,0.018325957,0.0018325958,-0.09087030589580536,0.027660928666591644,-1.4968525171279907,1001.92554,
2021.05.22 15:35:32,85.0,24.0,48.36,1.62,-23.58,-0.260968,0.7230489,9.629479,0.035430185,0.04337143,0.002443461,-0.07491897791624069,0.027094313874840736,-1.4980204105377197,1001.9187,
2021.05.22 15:35:32,85.0,24.0,47.94,1.62,-23.76,-0.45010993,0.8834604,9.691729,0.010995574,-0.035430185,-0.022602014,-0.09080754220485687,0.04640934243798256,-1.4862018823623657,1001.9187,
2021.05.22 15:35:32,85.0,24.0,48.059998,1.86,-23.699999,-0.48123455,0.7230489,9.586384,0.03176499,0.03848451,0.03176499,-0.07518772035837173,0.05015769228339195,-1.4895046949386597,1001.9187,
2021.05.22 15:35:32,85.0,24.0,48.0,1.4399999,-24.06,-0.3878607,0.82599956,9.569624,0.015882496,-0.077579886,0.040317107,-0.08603104948997498,0.04050822928547859,-1.4929025173187256,1001.9187,
2021.05.22 15:35:32,85.0,24.0,47.46,1.0799999,-24.119999,-0.2777274,0.6847417,9.706094,0.018936822,-0.023823744,0.06291912,-0.07040219753980637,0.028605910018086433,-1.5095089673995972,1001.9155,
2021.05.22 15:35:32,85.0,24.0,48.42,0.84,-24.48,-0.29688102,0.7350199,9.64145,0.02443461,0.007330383,0.022602014,-0.07605232298374176,0.0307824295014143,-1.5118874311447144,1001.9155,
2021.05.22 15:35:33,85.0,24.0,48.42,0.78,-24.72,-0.25617957,0.81642276,9.617508,0.030543262,0.015882496,0.009162978,-0.08465630561113358,0.026630496606230736,-1.5085517168045044,1001.9155,
2021.05.22 15:35:33,85.0,24.0,48.18,0.78,-25.08,-0.34237084,0.80924016,9.552865,0.02565634,0.01282817,0.0030543262,-0.08445604145526886,0.03582426533102989,-1.5066090822219849,1001.9155,
2021.05.22 15:35:33,85.0,24.0,48.66,0.65999997,-24.779999,-0.30166942,0.80205756,9.715671,0.005497787,-0.013439035,0.017104227,-0.08232671767473221,0.031039806082844734,-1.5119783878326416,1001.92334,
2021.05.22 15:35:33,85.0,24.0,48.18,0.53999996,-24.24,-0.22744916,0.8379706,9.710882,0.017104227,-0.017715093,0.01282817,-0.0860551968216896,0.02341780997812748,-1.5137606859207153,1001.92334,
2021.05.22 15:35:33,85.0,24.0,48.539997,0.59999996,-23.82,-0.33997664,0.8858546,9.662998,0.017104227,-0.022602014,-0.015882496,-0.09136317670345306,0.0351688452064991,-1.509514570236206,1001.92334,
2021.05.22 15:35:33,85.0,24.0,48.539997,0.65999997,-23.64,-0.35434186,0.89782566,9.595961,0.02565634,-0.014660766,-0.016493361,-0.09322810918092728,0.036909375339746475,-1.507416844367981,1001.92334,
2021.05.22 15:35:33,85.0,24.0,48.3,1.02,-23.82,-0.3184288,0.90500826,9.49301,0.02076942,-0.0061086523,-0.01282817,-0.09499381482601166,0.033530931919813156,-1.498733401298523,1001.92773,
2021.05.22 15:35:33,85.0,24.0,48.18,0.96,-23.88,-0.31124622,0.90261406,9.734824,-0.009162978,6.1086525E-4,-0.008552114,-0.09240882843732834,0.03196156397461891,-1.5012677907943726,1001.92773,
2021.05.22 15:35:33,85.0,24.0,47.46,1.02,-23.76,-0.2873042,0.91219085,9.749189,0.014660766,0.026267206,-0.015271631,-0.093253955245018,0.029461020603775978,-1.4990895986557007,1001.92773,
2021.05.22 15:35:33,85.0,24.0,47.76,0.78,-23.64,-0.33518824,0.93373865,9.667787,0.028710667,-0.0012217305,-0.023823744,-0.09622635692358017,0.034656744450330734,-1.5025767087936401,1001.92773,
2021.05.22 15:35:33,85.0,24.0,47.579998,0.48,-23.22,-0.40222588,0.9816227,9.533711,0.03726278,0.012217305,-0.028099801,-0.1025112196803093,0.042164843529462814,-1.505237102508545,1001.93286,
2021.05.22 15:35:33,85.0,24.0,47.7,0.71999997,-23.88,-0.36631286,0.9576807,9.672575,0.012217305,-0.009162978,-0.008552114,-0.0986180305480957,0.03785319626331329,-1.5015405416488647,1001.93286,
2021.05.22 15:35:33,85.0,24.0,47.76,0.65999997,-24.18,-0.41180268,0.9504981,9.516952,0.018325957,0.026267206,-0.008552114,-0.09945166856050491,0.04324346408247948,-1.5010517835617065,1001.93286,
2021.05.22 15:35:33,85.0,24.0,47.64,0.71999997,-24.18,-0.34476504,0.92895025,9.660604,-0.0036651916,-0.020158553,0.004276057,-0.09580326080322266,0.03567259758710861,-1.502647042274475,1001.93286,
2021.05.22 15:35:33,85.0,24.0,47.94,0.9,-24.66,-0.2801216,0.94570965,9.495404,-0.007330383,-6.1086525E-4,0.01160644,-0.09922631829977036,0.029492201283574104,-1.497241735458374,1001.93066,
2021.05.22 15:35:33,85.0,24.0,48.239998,0.71999997,-24.3,-0.36631286,0.90261406,9.746795,-0.018325957,0.012217305,-0.0061086523,-0.09227810055017471,0.03756522759795189,-1.5048894882202148,1001.93066,
2021.05.22 15:35:33,85.0,24.0,47.94,0.59999996,-24.3,-0.2633622,0.8690952,9.734824,-0.02076942,-0.002443461,6.1086525E-4,-0.08900847285985947,0.027047019451856613,-1.510104775428772,1001.93066,
2021.05.22 15:35:33,85.0,24.0,47.82,0.65999997,-23.939999,-0.32321724,0.91458505,9.720459,-0.004886922,-0.004886922,-0.01160644,-0.09376097470521927,0.033238984644412994,-1.5060756206512451,1001.93066,
2021.05.22 15:35:33,85.0,24.0,47.46,0.42,-24.119999,-0.32561144,0.9672575,9.607931,-0.014660766,-0.03848451,-0.015271631,-0.10027758032083511,0.03387689217925072,-1.506698489189148,1001.9238,
2021.05.22 15:35:33,85.0,24.0,47.34,0.65999997,-24.24,-0.2801216,0.92895025,9.543288,0.004886922,-0.010995574,-0.007941248,-0.09699346870183945,0.029344307258725166,-1.5035744905471802,1001.9238,
2021.05.22 15:35:33,85.0,24.0,47.7,0.48,-24.119999,-0.25139117,0.8882488,9.730036,-0.02321288,-6.1086525E-4,-0.007941248,-0.09100683033466339,0.025830866768956184,-1.5117651224136353,1001.9238,
2021.05.22 15:35:33,85.0,24.0,48.18,0.29999998,-24.48,-0.23223756,0.842759,9.737218,-0.010995574,-0.014660766,-0.007330383,-0.08631071448326111,0.023845985531806946,-1.5181455612182617,1001.9238,
2021.05.22 15:35:33,85.0,24.0,48.18,0.24,-24.3,-0.2896984,0.8283938,9.651027,-0.008552114,-0.0036651916,-0.025045475,-0.0855865478515625,0.030008353292942047,-1.5194181203842163,1001.9358,
2021.05.22 15:35:33,85.0,24.0,48.12,0.12,-24.24,-0.33039984,0.89543146,9.560047,0.009162978,-0.0018325958,-0.034208454,-0.09333603829145432,0.03454672917723656,-1.517260193824768,1001.9358,
2021.05.22 15:35:33,85.0,24.0,48.0,0.0,-24.48,-0.36152446,0.91937345,9.526528,-0.0018325958,-0.009162978,-0.032375857,-0.09613994508981705,0.03793103247880936,-1.517210841178894,1001.9358,
2021.05.22 15:35:34,85.0,24.0,47.7,0.06,-24.6,-0.3184288,0.8331822,9.818622,-0.02565634,0.004886922,-0.004276057,-0.08461027592420578,0.03241974487900734,-1.5224465131759644,1001.9358,
2021.05.22 15:35:34,85.0,24.0,47.879997,0.06,-24.42,-0.33758244,0.8451532,9.600749,-0.0018325958,-0.031154128,-0.014660766,-0.08774963766336441,0.03514761105179787,-1.5209147930145264,1001.9319,
2021.05.22 15:35:34,85.0,24.0,48.0,-0.06,-24.3,-0.31364042,0.90261406,9.509769,-0.007330383,-0.029321533,-0.014049901,-0.0945797935128212,0.0329689159989357,-1.520316481590271,1001.9319,
2021.05.22 15:35:34,85.0,24.0,48.3,0.29999998,-24.359999,-0.31603462,0.8451532,9.617508,-0.020158553,0.015271631,-0.0030543262,-0.08760432153940201,0.03284852206707001,-1.516760230064392,1001.9319,
2021.05.22 15:35:34,85.0,24.0,47.94,0.42,-24.66,-0.29927522,0.81881696,9.811439,-0.03604105,-0.008552114,0.0036651916,-0.0832238718867302,0.030493229627609253,-1.51595938205719,1001.9319,
2021.05.22 15:35:34,85.0,24.0,48.12,0.96,-24.6,-0.25378537,0.8331822,9.715671,-0.01038471,-0.0030543262,0.0018325958,-0.08551819622516632,0.026115303859114647,-1.5042239427566528,1001.9429,
2021.05.22 15:35:34,85.0,24.0,47.82,1.56,-25.08,-0.39743748,0.89782566,9.61272,-0.0067195175,-0.012217305,-0.018325957,-0.09305053949356079,0.04132142290472984,-1.4840466976165771,1001.9429,
2021.05.22 15:35:34,85.0,24.0,47.82,1.3199999,-25.08,-0.31124622,0.89303726,9.557653,-0.007941248,0.007941248,-0.004276057,-0.09311730414628983,0.032553624361753464,-1.490299940109253,1001.9429,
2021.05.22 15:35:34,85.0,24.0,48.0,1.0799999,-24.66,-0.21068975,0.85473,9.627085,-0.019547688,0.014049901,0.009773844,-0.08853061497211456,0.02188161201775074,-1.5003442764282227,1001.9429,
2021.05.22 15:35:34,85.0,24.0,47.879997,0.59999996,-24.779999,-0.25139117,0.8403648,9.813833,-0.032375857,-0.010995574,0.0030543262,-0.08539438247680664,0.02561040222644806,-1.5112603902816772,1001.9309,
2021.05.22 15:35:34,85.0,24.0,48.059998,0.29999998,-23.88,-0.18914193,0.82599956,9.7324295,-0.008552114,0.004886922,-6.1086525E-4,-0.08465204387903214,0.019431747496128082,-1.5204766988754272,1001.9309,
2021.05.22 15:35:34,85.0,24.0,48.36,0.35999998,-23.76,-0.21068975,0.8475474,9.787497,-0.0036651916,-0.028710667,-0.01038471,-0.08635952323675156,0.021523095667362213,-1.5186396837234497,1001.9309,
2021.05.22 15:35:34,85.0,24.0,48.539997,0.35999998,-23.76,-0.2801216,0.8283938,9.557653,0.02076942,0.0061086523,-0.023823744,-0.08642035722732544,0.029300227761268616,-1.5179150104522705,1001.9309,
2021.05.22 15:35:34,85.0,24.0,48.239998,0.48,-23.58,-0.29209262,0.8283938,9.768343,-0.0018325958,-0.013439035,-0.021380283,-0.08456388115882874,0.02989305555820465,-1.5163224935531616,1001.92065,
2021.05.22 15:35:34,85.0,24.0,48.3,0.84,-24.359999,-0.32800564,0.8475474,9.679757,0.0,-0.007941248,-0.021991149,-0.08728616684675217,0.03387276828289032,-1.5055162906646729,1001.92065,
2021.05.22 15:35:34,85.0,24.0,47.64,0.53999996,-24.66,-0.32561144,0.82599956,9.622296,0.009162978,-0.014049901,-0.019547688,-0.08558357506990433,0.03382635489106178,-1.511385202407837,1001.92065,
2021.05.22 15:35:34,85.0,24.0,47.399998,1.14,-24.48,-0.30645782,0.8595184,9.576807,0.007330383,-0.008552114,-0.015271631,-0.08946462720632553,0.03198908269405365,-1.4967371225357056,1001.92065,
2021.05.22 15:35:34,85.0,24.0,47.16,1.4399999,-24.24,-0.29448682,0.78769237,9.765948,0.0,0.009162978,-0.009162978,-0.08044639229774475,0.030145317316055298,-1.495593547821045,1001.9187,
2021.05.22 15:35:34,85.0,24.0,47.219997,1.02,-24.119999,-0.23942018,0.7733272,9.85214,-0.0030543262,0.007941248,-0.004276057,-0.07830967754125595,0.024296553805470467,-1.5066853761672974,1001.9187,
2021.05.22 15:35:34,85.0,24.0,47.399998,1.9799999,-23.939999,-0.36870706,0.81402856,9.600749,0.02687807,-0.028099801,-0.018325957,-0.08452370762825012,0.03838512301445007,-1.4817659854888916,1001.9187,
2021.05.22 15:35:34,85.0,24.0,47.64,1.92,-24.119999,-0.34237084,0.8355764,9.605537,0.018325957,-0.002443461,-0.013439035,-0.08671581000089645,0.03562798723578453,-1.4823148250579834,1001.9187,
2021.05.22 15:35:34,85.0,24.0,47.82,2.04,-24.42,-0.32800564,0.82121116,9.540894,0.017715093,-0.005497787,0.0012217305,-0.08581070601940155,0.03436538577079773,-1.4802088737487793,1001.9231,
2021.05.22 15:35:34,85.0,24.0,48.239998,2.28,-24.359999,-0.320823,0.80205756,9.710882,-0.0067195175,-0.015271631,0.004276057,-0.08236191421747208,0.033025458455085754,-1.4781211614608765,1001.9231,
2021.05.22 15:35:34,85.0,24.0,48.42,1.74,-24.06,-0.3184288,0.79487497,9.682152,-0.0012217305,0.021380283,0.012217305,-0.08186916261911392,0.032876379787921906,-1.4904946088790894,1001.9231,
2021.05.22 15:35:34,85.0,24.0,48.36,1.68,-24.3,-0.37828386,0.8283938,9.737218,-0.008552114,-0.019547688,0.0061086523,-0.08480696380138397,0.0388297475874424,-1.488883137702942,1001.9231,
2021.05.22 15:35:35,85.0,24.0,48.539997,1.3199999,-24.6,-0.29448682,0.8379706,9.5385,0.010995574,0.002443461,0.015882496,-0.08758491277694702,0.030863691121339798,-1.495625376701355,1001.9177,
2021.05.22 15:35:35,85.0,24.0,48.0,1.56,-24.539999,-0.25139117,0.85473,9.639056,0.0018325958,-0.015882496,0.02443461,-0.08841238915920258,0.026074565947055817,-1.4900645017623901,1001.9177,
2021.05.22 15:35:35,85.0,24.0,47.7,1.62,-24.42,-0.25617957,0.80445176,9.722853,-0.01038471,0.012217305,0.022602014,-0.0825217142701149,0.02634209580719471,-1.4916629791259766,1001.9177,
2021.05.22 15:35:35,85.0,24.0,48.0,1.4399999,-23.82,-0.25139117,0.82121116,9.643845,-0.0012217305,-0.0067195175,0.012217305,-0.08492027223110199,0.02606162428855896,-1.4957609176635742,1001.9177,
2021.05.22 15:35:35,85.0,24.0,48.0,1.74,-23.76,-0.22505496,0.8690952,9.574412,-0.004276057,-0.0067195175,0.004276057,-0.09049975126981735,0.023501548916101456,-1.4870436191558838,1001.9148,
2021.05.22 15:35:35,85.0,24.0,48.239998,1.56,-23.58,-0.24420857,0.8690952,9.660604,-0.014049901,-0.0030543262,0.0061086523,-0.08969280123710632,0.025273429229855537,-1.491715908050537,1001.9148,
2021.05.22 15:35:35,85.0,24.0,48.66,1.38,-23.699999,-0.24420857,0.82599956,9.809045,-0.017715093,0.007330383,0.0061086523,-0.08398384600877762,0.024891123175621033,-1.4988329410552979,1001.9148,
2021.05.22 15:35:35,85.0,24.0,48.42,1.3199999,-24.119999,-0.20350714,0.81402856,9.727641,-0.0030543262,-0.02076942,6.1086525E-4,-0.08346930891275406,0.02091745100915432,-1.499726414680481,1001.9148,
2021.05.22 15:35:35,85.0,24.0,47.94,1.3199999,-23.699999,-0.2801216,0.80684596,9.720459,0.005497787,-0.009773844,-0.010995574,-0.0827808678150177,0.028809761628508568,-1.4991852045059204,1001.9248,
2021.05.22 15:35:35,85.0,24.0,47.82,1.14,-23.88,-0.2633622,0.8403648,9.615114,0.010995574,-0.023823744,-0.013439035,-0.0871463418006897,0.02738359197974205,-1.500342607498169,1001.9248,
2021.05.22 15:35:35,85.0,24.0,47.16,1.5,-24.18,-0.35434186,0.8523358,9.572019,0.014660766,-0.0036651916,-0.017715093,-0.08874981850385666,0.03700161352753639,-1.4889945983886719,1001.9248,
2021.05.22 15:35:35,85.0,24.0,46.62,1.86,-24.0,-0.36391866,0.8355764,9.840169,-0.012217305,-0.002443461,-0.0036651916,-0.08465403318405151,0.036966122686862946,-1.4829094409942627,1001.9248,
2021.05.22 15:35:35,85.0,24.0,47.1,1.26,-24.48,-0.260968,0.80924016,9.763555,0.010995574,-0.009773844,0.01038471,-0.08266536146402359,0.02672242745757103,-1.4981203079223633,1001.926,
2021.05.22 15:35:35,85.0,24.0,46.98,1.3199999,-24.6,-0.2777274,0.80684596,9.504981,0.028710667,-0.01160644,0.0018325958,-0.08464767783880234,0.029210831969976425,-1.4950305223464966,1001.926,
2021.05.22 15:35:35,85.0,24.0,47.399998,0.78,-24.24,-0.36152446,0.81642276,9.595961,0.005497787,-0.029932396,0.0,-0.08481556177139282,0.037656839936971664,-1.5067262649536133,1001.926,
2021.05.22 15:35:35,85.0,24.0,48.18,0.59999996,-24.3,-0.2657564,0.78769237,9.651027,-0.009162978,0.01160644,0.020158553,-0.08140623569488525,0.027529636397957802,-1.5144035816192627,1001.926,
2021.05.22 15:35:35,85.0,24.0,48.059998,0.96,-24.3,-0.40701428,0.80924016,9.648633,-0.015882496,-0.025045475,0.02076942,-0.08360113203525543,0.04215862601995468,-1.5037992000579834,1001.9243,
2021.05.22 15:35:35,85.0,24.0,48.0,1.3199999,-24.119999,-0.37349546,0.79726917,9.464279,-0.02076942,-0.04520403,0.044593163,-0.08397634327411652,0.039443228393793106,-1.4965752363204956,1001.9243,
2021.05.22 15:35:35,85.0,24.0,47.82,1.56,-24.48,-0.2873042,0.8499416,9.629479,-0.045814894,-0.020158553,0.069027774,-0.0879974365234375,0.029827052727341652,-1.4896103143692017,1001.9243,
2021.05.22 15:35:35,85.0,24.0,47.219997,1.8,-24.72,-0.21308395,0.78290397,9.816227,-0.07574729,-0.029932396,0.08979719,-0.07956896722316742,0.02170391008257866,-1.4887020587921143,1001.9243,
2021.05.22 15:35:35,85.0,24.0,46.92,1.5,-24.42,-0.06464344,0.6991069,9.950302,-0.05131268,-0.007330383,0.07819075,-0.07014311105012894,0.006496539805084467,-1.501848816871643,1001.9336,
2021.05.22 15:35:35,85.0,24.0,47.039997,1.02,-24.84,-0.090979666,0.7278373,9.792285,-0.008552114,0.022602014,0.0421497,-0.07418800890445709,0.009290685877203941,-1.5091181993484497,1001.9336,
2021.05.22 15:35:35,85.0,24.0,47.76,0.53999996,-24.84,-0.14844051,0.78529817,9.569624,0.020158553,-0.013439035,-6.1086525E-4,-0.08186827600002289,0.015510390512645245,-1.5153346061706543,1001.9336,
2021.05.22 15:35:35,85.0,24.0,48.0,-0.24,-24.66,-0.1604115,0.79248077,9.579201,0.026267206,6.1086525E-4,-0.0030543262,-0.08252983540296555,0.016744248569011688,-1.5317316055297852,1001.9336,
2021.05.22 15:35:35,85.0,24.0,48.36,0.29999998,-25.26,-0.19393034,0.79487497,9.722853,0.004276057,0.007941248,-0.012217305,-0.08155570924282074,0.019943183287978172,-1.5199490785598755,1001.9402,
2021.05.22 15:35:36,85.0,24.0,47.94,0.24,-25.32,-0.19153613,0.7781156,9.698911,-0.0030543262,-0.004886922,-0.008552114,-0.0800401121377945,0.01974564418196678,-1.521522879600525,1001.9402,
2021.05.22 15:35:36,85.0,24.0,47.399998,0.35999998,-24.779999,-0.28491,0.8283938,9.67018,0.021991149,0.0036651916,-0.022602014,-0.08541925251483917,0.029454218223690987,-1.5153120756149292,1001.9402,
2021.05.22 15:35:36,85.0,24.0,47.34,0.59999996,-24.6,-0.17477672,0.80205756,9.536105,0.01282817,-0.020158553,-0.01038471,-0.08389594405889511,0.018325841054320335,-1.5125945806503296,1001.9402,
2021.05.22 15:35:36,85.0,24.0,46.86,0.12,-24.18,-0.22026655,0.8331822,9.698911,-0.0018325958,0.0018325958,-0.01282817,-0.08567235618829727,0.022706538438796997,-1.5216104984283447,1001.9429,
2021.05.22 15:35:36,85.0,24.0,47.399998,0.0,-23.64,-0.14844051,0.82121116,9.7324295,0.0067195175,0.0067195175,-0.0061086523,-0.08416969329118729,0.015250971540808678,-1.527281641960144,1001.9429,
2021.05.22 15:35:36,85.0,24.0,47.039997,0.17999999,-24.66,-0.23463176,0.80684596,9.737218,0.005497787,-0.017104227,-0.017104227,-0.08264931291341782,0.024091724306344986,-1.5211271047592163,1001.9429,
2021.05.22 15:35:36,85.0,24.0,47.28,0.35999998,-24.66,-0.19632454,0.8810662,9.672575,0.015882496,-0.0030543262,-0.017104227,-0.0908198207616806,0.020294243469834328,-1.5135226249694824,1001.9429,
2021.05.22 15:35:36,85.0,24.0,47.579998,0.59999996,-24.66,-0.24181437,0.8499416,9.775525,0.014049901,-0.02443461,-0.016493361,-0.08670138567686081,0.024731671437621117,-1.5105069875717163,1001.9402,
2021.05.22 15:35:36,85.0,24.0,47.219997,1.1999999,-25.019999,-0.1604115,0.78769237,9.703699,0.023823744,-0.012217305,-0.0030543262,-0.08098582923412323,0.01652945950627327,-1.500761866569519,1001.9402,
2021.05.22 15:35:36,85.0,24.0,47.219997,1.4399999,-24.779999,-0.23942018,0.7781156,9.782708,0.017104227,-0.03848451,-0.015271631,-0.07934912294149399,0.024468928575515747,-1.4960283041000366,1001.9402,
2021.05.22 15:35:36,85.0,24.0,46.86,1.26,-24.96,-0.20111294,0.866701,9.713276,0.036651913,-0.06841691,-0.01282817,-0.08897384256124496,0.020701996982097626,-1.4941425323486328,1001.9402,
2021.05.22 15:35:36,85.0,24.0,46.739998,1.1999999,-25.14,-0.17956513,0.8499416,9.334992,0.089186326,-0.03359759,-0.0067195175,-0.09078193455934525,0.019233331084251404,-1.4940732717514038,1001.9441,
2021.05.22 15:35:36,85.0,24.0,47.1,1.0799999,-25.199999,-0.17477672,0.93134445,9.746795,0.014660766,-0.056199603,0.007330383,-0.0952494665980339,0.017929790541529655,-1.4947928190231323,1001.9441,
2021.05.22 15:35:36,85.0,24.0,47.7,0.71999997,-25.019999,-0.17956513,0.8690952,9.610326,0.03848451,0.009162978,0.0061086523,-0.09017250686883926,0.018682429566979408,-1.5063008069992065,1001.9441,
2021.05.22 15:35:36,85.0,24.0,47.7,0.84,-25.26,-0.23702596,0.90979666,9.524135,0.03726278,-0.03176499,0.0018325958,-0.0952071100473404,0.024881741032004356,-1.4997347593307495,1001.9441,
2021.05.22 15:35:36,85.0,24.0,48.059998,0.78,-25.619999,-0.17956513,0.91697925,9.5385,0.014660766,-0.018936822,0.022602014,-0.09582314640283585,0.018823077902197838,-1.501246690750122,1001.9436,
2021.05.22 15:35:36,85.0,24.0,47.64,0.29999998,-25.56,-0.19871874,0.92176765,9.433155,0.015271631,0.019547688,0.019547688,-0.09738502651453018,0.02106287330389023,-1.5096971988677979,1001.9436,
2021.05.22 15:35:36,85.0,24.0,47.399998,0.29999998,-25.8,-0.08379706,0.8690952,9.727641,-0.029932396,0.014049901,0.042760566,-0.08910297602415085,0.008614110760390759,-1.5150867700576782,1001.9436,
2021.05.22 15:35:36,85.0,24.0,47.7,0.06,-25.8,-0.059855044,0.8714894,9.526528,-0.010995574,0.03604105,0.029321533,-0.0912245661020279,0.006282903254032135,-1.519568681716919,1001.9436,
2021.05.22 15:35:36,85.0,24.0,47.52,0.17999999,-25.32,-0.088585466,0.92655605,9.624691,-0.047647487,0.034208454,0.013439035,-0.09596886485815048,0.009203719906508923,-1.5148711204528809,1001.93896,
2021.05.22 15:35:36,85.0,24.0,47.579998,0.17999999,-25.08,-0.2633622,0.93852705,9.634268,-0.04337143,0.021991149,0.005497787,-0.09707306325435638,0.027329178526997566,-1.5125174522399902,1001.93896,
2021.05.22 15:35:36,85.0,24.0,47.879997,0.29999998,-24.72,-0.15801731,0.85473,9.871294,-0.05375614,0.050701816,0.014660766,-0.08636100590229034,0.01600639335811138,-1.518254280090332,1001.93896,
2021.05.22 15:35:36,85.0,24.0,47.76,0.24,-24.6,-0.1316811,0.79966336,9.7803135,-0.009162978,0.050701816,0.026267206,-0.08157370984554291,0.013463080860674381,-1.522422432899475,1001.93896,
2021.05.22 15:35:36,85.0,24.0,47.82,-0.06,-24.66,-0.21068975,0.62488663,9.861717,0.017715093,-0.02443461,0.002443461,-0.06326588988304138,0.021361159160733223,-1.5377423763275146,1001.94775,
2021.05.22 15:35:36,85.0,24.0,48.3,0.0,-24.539999,-0.24899697,0.91937345,9.378088,0.09101892,-0.089186326,-0.018936822,-0.0976877436041832,0.02654469572007656,-1.517989158630371,1001.94775,
2021.05.22 15:35:37,85.0,24.0,48.239998,-0.06,-24.779999,-0.17717093,0.91697925,10.232818,-0.051923547,-0.021991149,-0.05375614,-0.08935956656932831,0.017312264069914818,-1.524268388748169,1001.94775,
2021.05.22 15:35:37,85.0,24.0,48.0,0.24,-24.539999,0.17238252,0.7158663,9.739613,0.047647487,-0.17104226,0.01160644,-0.07335712015628815,-0.01769726723432541,-1.5300277471542358,1001.94775,
