Time,X-cord,Y-cord,Mag_x,Mag_y,Mag_z,Acc_x,Acc_y,Acc_z,Gyro_x,Gyro_y,Gyro_z,Orn_x,Orn_y,Orn_z,Pressure,
2021.05.22 15:07:47,58.0,24.0,30.599998,-2.52,-18.96,0.107739076,1.1324574,8.432379,0.19853121,-0.07086037,0.042760566,-0.13348911702632904,-0.012776135466992855,-1.571651577949524,1002.208,
2021.05.22 15:07:47,58.0,24.0,31.019999,-1.9799999,-19.38,-0.92416185,1.2282255,9.502586,-0.15393804,-0.004886922,-0.09590584,-0.1279420554637909,0.09694882482290268,-1.540443778038025,1002.208,
2021.05.22 15:07:47,58.0,24.0,31.32,-1.9799999,-19.26,-0.260968,1.0821792,9.998186,-0.1881465,0.007330383,0.016493361,-0.10778139531612396,0.026095610111951828,-1.5646111965179443,1002.208,
2021.05.22 15:07:47,58.0,24.0,31.5,-2.28,-19.26,-0.4189853,0.7661445,10.000581,-0.06291912,0.12095132,-0.005497787,-0.07639389485120773,0.04187161102890968,-1.593752145767212,1002.208,
2021.05.22 15:07:47,58.0,24.0,31.26,-2.34,-19.14,-0.51235914,0.91937345,10.129868,-0.0036651916,0.031154128,-0.06963864,-0.09039578586816788,0.05053599178791046,-1.5860756635665894,1002.208,
2021.05.22 15:07:48,58.0,24.0,31.08,-2.7,-18.96,-0.4237737,0.8523358,9.742006,0.096516706,0.10873401,-0.047647487,-0.0871865451335907,0.043472226709127426,-1.601313829421997,1002.208,
2021.05.22 15:07:48,58.0,24.0,31.32,-2.9399998,-19.02,-0.545878,0.8834604,10.060435,0.084910266,0.13683382,-0.09162979,-0.08746263384819031,0.0542067252099514,-1.6078635454177856,1002.21313,
2021.05.22 15:07:48,58.0,24.0,31.14,-2.22,-19.26,-0.60812724,0.9696517,9.648633,0.12889257,0.09407325,-0.10629055,-0.09996297210454941,0.06294403970241547,-1.5739824771881104,1002.21313,
2021.05.22 15:07:48,58.0,24.0,31.14,-1.68,-19.26,-0.7158663,0.9696517,9.425972,0.15943582,0.08246681,-0.07880162,-0.10221731662750244,0.07580064237117767,-1.5529206991195679,1002.21313,
2021.05.22 15:07:48,58.0,24.0,31.14,-1.5,-19.08,-0.4381389,0.9576807,9.871294,0.05375614,0.044593163,-0.015882496,-0.09661952406167984,0.04435604065656662,-1.5549691915512085,1002.21313,
2021.05.22 15:07:48,58.0,24.0,31.199999,-1.3199999,-18.539999,-0.4285621,0.9528923,9.572019,0.115453534,0.07086037,-0.05375614,-0.09912421554327011,0.04474250599741936,-1.5491282939910889,1002.2051,
2021.05.22 15:07:48,58.0,24.0,31.38,-1.86,-17.94,-0.6368576,1.0941502,9.593566,0.108123146,0.086132,-0.1423316,-0.11331247538328171,0.06628657132387161,-1.5571539402008057,1002.2051,
2021.05.22 15:07:48,58.0,24.0,31.74,-1.5,-18.0,-0.842759,1.1875241,9.610326,0.12583824,0.13500121,-0.1966986,-0.12247897684574127,0.08746931701898575,-1.5361735820770264,1002.2051,
2021.05.22 15:07:48,58.0,24.0,31.98,-1.62,-17.82,-0.92655605,1.2258313,9.0716305,0.18387043,0.093462385,-0.18570304,-0.1336275339126587,0.10178480297327042,-1.5311806201934814,1002.2051,
2021.05.22 15:07:48,58.0,24.0,32.16,-1.38,-17.46,-1.0414777,1.2808979,9.416395,0.12156218,0.116675265,-0.16065755,-0.13438908755779266,0.1101548820734024,-1.5231937170028687,1002.2053,
2021.05.22 15:07:48,58.0,24.0,32.28,-1.4399999,-17.76,-0.91219085,1.3599066,9.188946,0.028710667,0.03848451,-0.037873644,-0.14621885120868683,0.09894627332687378,-1.5176677703857422,1002.2053,
2021.05.22 15:07:48,58.0,24.0,31.92,-1.74,-17.34,-0.80205756,1.2186487,9.555259,-0.06780604,0.018936822,0.06291912,-0.1264123171567917,0.08374255895614624,-1.5448123216629028,1002.2053,
2021.05.22 15:07:48,58.0,24.0,31.98,-1.62,-16.98,-0.62728083,1.1013328,9.792285,-0.108123146,-0.04886922,0.12156218,-0.1117715910077095,0.06397127360105515,-1.5543134212493896,1002.2053,
2021.05.22 15:07:48,58.0,24.0,31.56,-1.8,-17.52,-0.6631939,1.0223241,9.785102,-0.10323623,-0.10445796,0.13316862,-0.10386337339878082,0.06767238676548004,-1.5627703666687012,1002.19385,
2021.05.22 15:07:48,58.0,24.0,31.26,-1.86,-17.1,-0.7110779,1.1133038,9.830592,-0.10995574,-0.119729586,0.1441642,-0.11247705668210983,0.07220741361379623,-1.5601376295089722,1002.19385,
2021.05.22 15:07:48,58.0,24.0,31.679998,-1.9799999,-17.279999,-0.6943185,1.0869676,9.583989,-0.095294975,-0.14905111,0.16187929,-0.11263968050479889,0.07231932133436203,-1.5633145570755005,1002.19385,
2021.05.22 15:07:48,58.0,24.0,31.38,-2.28,-17.64,-0.7134721,1.0271125,9.665392,-0.13316862,-0.122783914,0.16249016,-0.10558457672595978,0.07368355244398117,-1.576458215713501,1002.19385,
2021.05.22 15:07:48,58.0,24.0,31.439999,-2.34,-17.82,-0.59376204,1.0702082,9.464279,-0.12095132,-0.16798794,0.1459968,-0.11238129436969757,0.06265504658222198,-1.574430227279663,1002.2112,
2021.05.22 15:07:48,58.0,24.0,31.38,-2.28,-18.3,-0.533907,1.2401965,9.126697,-0.06352998,-0.15332718,0.11484267,-0.13483169674873352,0.058432888239622116,-1.5561635494232178,1002.2112,
2021.05.22 15:07:48,58.0,24.0,30.96,-2.1599998,-18.539999,-0.50038815,1.127669,9.330204,-0.05681047,0.0036651916,0.1142318,-0.12010784447193146,0.0535796657204628,-1.5616902112960815,1002.2112,
2021.05.22 15:07:48,58.0,24.0,30.779999,-1.92,-18.96,-0.25617957,0.93373865,10.022128,-0.10323623,-0.06047566,0.122783914,-0.09286937117576599,0.02555583044886589,-1.5734738111495972,1002.2112,
2021.05.22 15:07:48,58.0,24.0,30.42,-1.68,-18.96,-0.33279404,0.92176765,9.821015,-0.070249505,-0.056199603,0.059253927,-0.09352913498878479,0.033872950822114944,-1.5643022060394287,1002.2124,
2021.05.22 15:07:48,58.0,24.0,30.66,-1.8,-18.84,-0.29448682,0.866701,9.80665,-0.032375857,-0.03970624,0.03359759,-0.08811036497354507,0.030020276084542274,-1.5726224184036255,1002.2124,
2021.05.22 15:07:48,58.0,24.0,30.48,-2.3999999,-18.84,-0.2633622,0.82121116,9.9550905,-0.047647487,-0.076358154,0.021991149,-0.08227657526731491,0.02644885890185833,-1.5967433452606201,1002.2124,
2021.05.22 15:07:48,58.0,24.0,31.08,-2.34,-18.72,-0.4381389,0.94810385,9.105149,0.081855945,0.14660765,-0.03848451,-0.10363534837961197,0.04808281362056732,-1.5787101984024048,1002.2124,
2021.05.22 15:07:49,58.0,24.0,31.199999,-2.6399999,-18.0,-0.6392518,0.9840169,9.821015,0.02076942,-0.04153884,-0.059864793,-0.0996522605419159,0.06499850749969482,-1.5920945405960083,1002.2158,
2021.05.22 15:07:49,58.0,24.0,31.199999,-2.76,-17.76,-0.7733272,0.9840169,9.600749,-0.03726278,-0.02565634,-0.06169739,-0.10180965811014175,0.08037509769201279,-1.594110131263733,1002.2158,
2021.05.22 15:07:49,58.0,24.0,31.56,-2.28,-17.46,-0.62728083,1.0414777,9.78989,0.002443461,0.017104227,-0.01282817,-0.105769082903862,0.0639868751168251,-1.5778634548187256,1002.2158,
2021.05.22 15:07:49,58.0,24.0,31.26,-2.52,-17.64,-0.7134721,1.0247183,9.533711,-0.01282817,-0.03176499,-0.0030543262,-0.10677628964185715,0.07469752430915833,-1.583600640296936,1002.2158,
2021.05.22 15:07:49,58.0,24.0,31.859999,-2.1599998,-18.18,-0.6823475,0.94092125,9.591172,0.008552114,0.027488936,0.018936822,-0.09754493832588196,0.0710236206650734,-1.5761570930480957,1002.2168,
2021.05.22 15:07:49,58.0,24.0,31.859999,-1.5,-18.359999,-0.44532153,0.89064306,9.461885,-0.01160644,-0.0061086523,0.06291912,-0.09374985098838806,0.047030072659254074,-1.5590523481369019,1002.2168,
2021.05.22 15:07:49,58.0,24.0,32.04,-2.04,-18.539999,-0.4237737,0.81881696,9.600749,0.0030543262,0.010995574,0.06536258,-0.08499852567911148,0.04411102086305618,-1.5817042589187622,1002.2168,
2021.05.22 15:07:49,58.0,24.0,31.859999,-1.68,-18.48,-0.39743748,0.81163436,9.655815,-0.027488936,0.0067195175,0.06169739,-0.08378878980875015,0.0411372072994709,-1.5714126825332642,1002.2168,
2021.05.22 15:07:49,58.0,24.0,31.32,-2.1599998,-18.3,-0.5267244,0.8810662,9.718064,-0.018936822,-0.0067195175,0.03848451,-0.09028373658657074,0.05414756387472153,-1.582381010055542,1002.21216,
2021.05.22 15:07:49,58.0,24.0,31.26,-2.46,-18.3,-0.38067806,1.0055647,9.643845,-0.007330383,-0.009162978,0.040317107,-0.10381440073251724,0.03945320099592209,-1.5846929550170898,1002.21216,
2021.05.22 15:07:49,58.0,24.0,30.66,-2.46,-18.48,-0.45489833,1.0414777,9.662998,-0.01038471,-0.005497787,0.03848451,-0.10724765062332153,0.04704158380627632,-1.5814013481140137,1002.21216,
2021.05.22 15:07:49,58.0,24.0,31.26,-2.7,-18.48,-0.30166942,1.0989386,9.7803135,-0.007330383,-6.1086525E-4,0.027488936,-0.11184024810791016,0.030834781005978584,-1.5875524282455444,1002.21216,
2021.05.22 15:07:49,58.0,24.0,31.92,-2.52,-18.84,-0.41180268,1.0319009,9.545682,0.018936822,0.019547688,-0.0030543262,-0.10758388042449951,0.04311347380280495,-1.5816270112991333,1002.2114,
2021.05.22 15:07:49,58.0,24.0,32.16,-2.7,-19.439999,-0.39504328,0.9744401,10.180145,-0.021991149,0.015882496,0.008552114,-0.09535759687423706,0.03878580778837204,-1.5937178134918213,1002.2114,
2021.05.22 15:07:49,58.0,24.0,32.76,-2.52,-19.26,-0.35913026,0.94331545,9.7084875,0.065973446,-0.0030543262,-0.0036651916,-0.09679415822029114,0.03697451204061508,-1.5873782634735107,1002.2114,
2021.05.22 15:07:49,58.0,24.0,32.16,-2.52,-19.02,-0.4405331,0.9528923,9.672575,0.052534413,-0.023823744,-0.018325957,-0.09809696674346924,0.0455131009221077,-1.5869073867797852,1002.2114,
2021.05.22 15:07:49,58.0,24.0,32.219997,-2.46,-18.9,-0.39264908,0.8762778,9.469068,0.052534413,-0.0421497,-0.012217305,-0.09219948202371597,0.04144275560975075,-1.589516043663025,1002.21655,
2021.05.22 15:07:49,58.0,24.0,31.98,-2.28,-18.119999,-0.46926352,0.92176765,9.423578,0.034208454,-0.036651913,-0.029321533,-0.09738495945930481,0.04975564777851105,-1.582229733467102,1002.21655,
2021.05.22 15:07:49,58.0,24.0,31.56,-2.28,-18.48,-0.37588966,0.89303726,9.593566,-0.015271631,-0.030543262,-0.017715093,-0.09274885803461075,0.039161402732133865,-1.5852549076080322,1002.21655,
2021.05.22 15:07:49,58.0,24.0,31.74,-2.34,-18.72,-0.40222588,0.90021986,9.828198,-0.02443461,0.005497787,-0.036651913,-0.0912647694349289,0.04090287163853645,-1.5871866941452026,1002.21655,
2021.05.22 15:07:49,58.0,24.0,31.199999,-2.3999999,-18.84,-0.5434838,0.9864111,9.7563715,0.007330383,-0.01038471,-0.057421334,-0.10060697793960571,0.055648013949394226,-1.581567406654358,1002.2117,
2021.05.22 15:07:49,58.0,24.0,31.08,-2.58,-18.84,-0.59615624,0.9840169,9.56723,0.029321533,-0.013439035,-0.035430185,-0.10229543596506119,0.06223185360431671,-1.5858368873596191,1002.2117,
2021.05.22 15:07:49,58.0,24.0,31.26,-2.28,-18.66,-0.5291186,1.0151415,9.476251,0.007330383,-0.040927973,-0.0061086523,-0.10655311495065689,0.05577836185693741,-1.5741204023361206,1002.2117,
2021.05.22 15:07:49,58.0,24.0,30.66,-2.22,-18.539999,-0.30166942,1.0007763,9.595961,-0.017104227,-0.040317107,0.02687807,-0.10386480391025543,0.031426772475242615,-1.5770137310028076,1002.2117,
2021.05.22 15:07:49,58.0,24.0,30.42,-1.68,-18.3,-0.32321724,0.94570965,9.80665,-0.018325957,-0.016493361,0.014660766,-0.09608640521764755,0.03294705972075462,-1.564802885055542,1002.1931,
2021.05.22 15:07:50,58.0,24.0,30.779999,-1.86,-18.42,-0.30885202,0.92655605,9.967062,-0.0067195175,-0.02321288,-6.1086525E-4,-0.09265118092298508,0.03097735531628132,-1.5727981328964233,1002.1931,
2021.05.22 15:07:50,58.0,24.0,30.9,-2.1,-18.3,-0.29688102,0.92176765,9.588778,0.043982297,-0.015882496,-0.010995574,-0.09578973799943924,0.03095141053199768,-1.5790246725082397,1002.1931,
2021.05.22 15:07:50,58.0,24.0,31.439999,-2.04,-18.48,-0.45489833,0.9528923,9.703699,0.02565634,-0.02443461,-0.032375857,-0.09777835756540298,0.04684456065297127,-1.5735613107681274,1002.1931,
2021.05.22 15:07:50,58.0,24.0,31.619999,-2.6399999,-18.48,-0.39504328,0.9504981,9.49301,0.029932396,-0.01160644,-0.02076942,-0.09970778226852417,0.0415901243686676,-1.59214186668396,1002.19165,
2021.05.22 15:07:50,58.0,24.0,31.439999,-2.3999999,-18.66,-0.47884035,0.9816227,9.478644,0.02076942,-0.010995574,-0.018936822,-0.10306315124034882,0.050474900752305984,-1.5808674097061157,1002.19165,
2021.05.22 15:07:50,58.0,24.0,31.019999,-2.3999999,-18.6,-0.45010993,0.9624691,9.536105,-0.002443461,-0.005497787,-0.007941248,-0.10047721117734909,0.04716559499502182,-1.5833346843719482,1002.19165,
2021.05.22 15:07:50,58.0,24.0,30.96,-2.6399999,-18.539999,-0.38067806,0.93852705,9.758766,-0.029321533,0.014660766,0.004276057,-0.09580542147159576,0.03898906335234642,-1.5952929258346558,1002.19165,
2021.05.22 15:07:50,58.0,24.0,30.779999,-2.46,-18.779999,-0.33518824,1.0007763,9.646238,-0.01282817,-0.005497787,0.004886922,-0.10331606864929199,0.034734103828668594,-1.5841132402420044,1002.1936,
2021.05.22 15:07:50,58.0,24.0,30.779999,-2.28,-18.84,-0.37588966,1.0055647,9.725247,-0.0061086523,-0.0012217305,-0.009162978,-0.10295488685369492,0.038631681352853775,-1.5778210163116455,1002.1936,
2021.05.22 15:07:50,58.0,24.0,30.66,-1.8,-18.72,-0.32800564,1.0151415,9.617508,-0.009773844,0.017715093,-0.004886922,-0.10510135442018509,0.03409184142947197,-1.5613877773284912,1002.1936,
2021.05.22 15:07:50,58.0,24.0,30.96,-1.68,-18.42,-0.4309563,1.0247183,9.677363,-6.1086525E-4,-6.1086525E-4,-0.02076942,-0.10539139062166214,0.04450300708413124,-1.5571799278259277,1002.1936,
2021.05.22 15:07:50,58.0,24.0,31.38,-1.62,-18.119999,-0.4189853,1.0390835,9.713276,-6.1086525E-4,0.013439035,-0.010995574,-0.10647204518318176,0.04310860112309456,-1.5558570623397827,1002.199,
2021.05.22 15:07:50,58.0,24.0,31.199999,-1.74,-18.06,-0.40940848,1.0079589,9.68694,0.002443461,-0.002443461,-0.002443461,-0.10358846187591553,0.04223882406949997,-1.561873197555542,1002.199,
2021.05.22 15:07:50,58.0,24.0,31.679998,-2.3999999,-18.3,-0.41180268,1.0151415,9.701305,0.009162978,0.0018325958,0.0018325958,-0.10416713356971741,0.04242270439863205,-1.5820083618164062,1002.199,
2021.05.22 15:07:50,58.0,24.0,31.439999,-2.04,-18.42,-0.36391866,0.92655605,9.691729,0.0036651916,-0.004886922,0.009773844,-0.09524636715650558,0.0375317744910717,-1.5762640237808228,1002.199,
2021.05.22 15:07:50,58.0,24.0,31.38,-2.46,-18.539999,-0.4429273,0.93852705,9.636662,0.012217305,6.1086525E-4,-0.008552114,-0.09698338061571121,0.0459304042160511,-1.5877008438110352,1002.1875,
2021.05.22 15:07:50,58.0,24.0,31.38,-2.7,-18.119999,-0.49320555,0.9864111,9.3733,0.017104227,0.0,-0.01038471,-0.10470656305551529,0.05256965383887291,-1.5912538766860962,1002.1875,
2021.05.22 15:07:50,58.0,24.0,31.08,-2.3999999,-18.359999,-0.5267244,1.0103531,9.466674,-0.015882496,0.01282817,0.0036651916,-0.10616189986467361,0.05558255314826965,-1.5794947147369385,1002.1875,
2021.05.22 15:07:50,58.0,24.0,31.019999,-3.3,-18.48,-0.50038815,1.0271125,9.519346,-0.034208454,0.015271631,0.028099801,-0.10733453184366226,0.05251705273985863,-1.6084216833114624,1002.1875,
2021.05.22 15:07:50,58.0,24.0,31.14,-3.3,-18.48,-0.23223756,0.92895025,9.813833,-0.06047566,0.023823744,0.06047566,-0.09434977173805237,0.02365989051759243,-1.61882746219635,1002.1865,
2021.05.22 15:07:50,58.0,24.0,31.019999,-3.36,-18.72,-0.18674773,0.9935937,9.825804,-0.036651913,-6.1086525E-4,0.028710667,-0.10076021403074265,0.01900356076657772,-1.6164600849151611,1002.1865,
2021.05.22 15:07:50,58.0,24.0,31.26,-3.72,-18.66,-0.29209262,1.0127473,9.703699,-0.005497787,0.005497787,-0.012217305,-0.10394390672445297,0.03009207546710968,-1.625073790550232,1002.1865,
2021.05.22 15:07:50,58.0,24.0,31.26,-3.36,-18.42,-0.30406362,1.0486604,9.653421,-0.0036651916,0.0,-0.026267206,-0.10815342515707016,0.0314876064658165,-1.611433744430542,1002.1865,
2021.05.22 15:07:50,58.0,24.0,31.619999,-3.4199998,-18.24,-0.36631286,1.0510546,9.495404,0.015271631,-0.002443461,-0.042760566,-0.11016081273555756,0.03855879232287407,-1.6116070747375488,1002.1904,
2021.05.22 15:07:50,58.0,24.0,31.74,-3.24,-18.84,-0.32561144,0.94331545,9.765948,-0.018936822,0.029932396,-0.03970624,-0.09624041616916656,0.03332916274666786,-1.6130295991897583,1002.1904,
2021.05.22 15:07:51,58.0,24.0,31.98,-2.8799999,-19.199999,-0.2825158,0.9552865,9.895236,-0.016493361,0.025045475,-0.058643065,-0.09620283544063568,0.028542933985590935,-1.6005631685256958,1002.1904,
2021.05.22 15:07:51,58.0,24.0,32.28,-2.3999999,-19.199999,-0.50278234,0.9696517,9.68694,0.02443461,0.02321288,-0.09773844,-0.09963330626487732,0.05185657739639282,-1.5808608531951904,1002.1904,
2021.05.22 15:07:51,58.0,24.0,31.74,-2.52,-18.9,-0.557849,0.9935937,9.603143,0.030543262,0.0018325958,-0.112399206,-0.1029263362288475,0.058025043457746506,-1.5831830501556396,1002.19336,
2021.05.22 15:07:51,58.0,24.0,32.04,-2.28,-18.18,-0.5674258,0.9816227,9.569624,0.028710667,0.015882496,-0.081855945,-0.10204143077135086,0.05922512710094452,-1.5781183242797852,1002.19336,
2021.05.22 15:07:51,58.0,24.0,31.98,-2.3999999,-17.58,-0.5434838,0.92176765,9.560047,0.016493361,-0.02321288,-0.053145275,-0.095967598259449,0.0567883662879467,-1.5880340337753296,1002.19336,
2021.05.22 15:07:51,58.0,24.0,31.859999,-2.7,-17.94,-0.49559975,0.94570965,9.722853,0.0061086523,0.0036651916,-0.034208454,-0.09683673828840256,0.050928592681884766,-1.5966193675994873,1002.19336,
2021.05.22 15:07:51,58.0,24.0,31.8,-2.3999999,-18.48,-0.521936,0.9888053,9.516952,0.014049901,-0.0067195175,-0.039095376,-0.10337366908788681,0.05478788539767265,-1.580666184425354,1002.19556,
2021.05.22 15:07:51,58.0,24.0,31.08,-2.28,-18.42,-0.59136784,1.0510546,9.569624,0.01038471,0.014049901,-0.048258353,-0.1091872826218605,0.061717867851257324,-1.572607159614563,1002.19556,
2021.05.22 15:07:51,58.0,24.0,31.019999,-2.34,-18.48,-0.50517654,1.0127473,9.730036,-0.01038471,0.018325957,-0.02687807,-0.10357268899679184,0.05187271535396576,-1.5792285203933716,1002.19556,
2021.05.22 15:07:51,58.0,24.0,31.32,-1.74,-18.119999,-0.48602295,0.9624691,9.794679,-0.015882496,0.029321533,-0.018325957,-0.09783042967319489,0.04958045482635498,-1.5646213293075562,1002.19556,
2021.05.22 15:07:51,58.0,24.0,31.439999,-1.3199999,-17.82,-0.5554548,0.9504981,9.598354,0.013439035,0.004886922,-0.026267206,-0.09854158759117126,0.05780532583594322,-1.5505294799804688,1002.1963,
2021.05.22 15:07:51,58.0,24.0,31.98,-1.1999999,-18.06,-0.62488663,0.9959879,9.526528,0.01282817,0.022602014,-0.037873644,-0.10394866019487381,0.06550053507089615,-1.5417251586914062,1002.1963,
2021.05.22 15:07:51,58.0,24.0,31.74,-0.71999997,-18.0,-0.58657944,0.9696517,9.634268,0.008552114,-0.002443461,-0.009162978,-0.10012417286634445,0.060809630900621414,-1.5292242765426636,1002.1963,
2021.05.22 15:07:51,58.0,24.0,31.14,-1.14,-18.18,-0.533907,0.9648633,9.67018,-0.0061086523,0.014049901,-0.0012217305,-0.09929779917001724,0.055155690759420395,-1.5430428981781006,1002.1963,
2021.05.22 15:07:51,58.0,24.0,31.32,-1.56,-18.42,-0.45489833,0.9792285,9.593566,0.007941248,-0.007330383,0.0067195175,-0.10160572826862335,0.04738153517246246,-1.555515170097351,1002.19214,
2021.05.22 15:07:51,58.0,24.0,31.32,-2.1599998,-18.3,-0.46686932,0.9744401,9.667787,6.1086525E-4,-0.01160644,0.0018325958,-0.10033706575632095,0.04825374484062195,-1.5762847661972046,1002.19214,
2021.05.22 15:07:51,58.0,24.0,31.32,-2.3999999,-18.48,-0.4141969,0.9816227,9.703699,-6.1086525E-4,-0.01160644,-0.0012217305,-0.10072559118270874,0.04265853762626648,-1.5838090181350708,1002.19214,
2021.05.22 15:07:51,58.0,24.0,31.619999,-2.34,-18.42,-0.5506664,1.0366893,9.555259,0.013439035,-0.021380283,-0.021991149,-0.10789377242326736,0.057565998286008835,-1.5757204294204712,1002.19214,
2021.05.22 15:07:51,58.0,24.0,31.199999,-2.1599998,-18.42,-0.50517654,0.9935937,9.730036,-0.004886922,-0.014049901,-6.1086525E-4,-0.10162746906280518,0.05187271162867546,-1.5747194290161133,1002.19336,
2021.05.22 15:07:51,58.0,24.0,31.019999,-1.74,-18.48,-0.47405192,0.9744401,9.856929,0.0018325958,-0.012217305,6.1086525E-4,-0.09842519462108612,0.048056237399578094,-1.5631970167160034,1002.19336,
2021.05.22 15:07:51,58.0,24.0,31.199999,-1.14,-18.42,-0.50278234,1.0199299,9.636662,0.031154128,-0.035430185,-0.01160644,-0.10530378669500351,0.052126649767160416,-1.5386638641357422,1002.19336,
2021.05.22 15:07:51,58.0,24.0,30.72,-1.14,-18.359999,-0.58418524,1.0534488,9.44752,0.03359759,-0.027488936,-0.017104227,-0.11083664745092392,0.06175614148378372,-1.5334383249282837,1002.19336,
2021.05.22 15:07:51,58.0,24.0,30.9,-1.3199999,-18.42,-0.51235914,0.9552865,9.583989,6.1086525E-4,-0.0067195175,0.0030543262,-0.09920637309551239,0.05340906232595444,-1.548316240310669,1002.20044,
2021.05.22 15:07:51,58.0,24.0,30.119999,-1.38,-18.72,-0.47644615,0.9816227,9.689334,-0.0067195175,-0.017715093,0.002443461,-0.1008441150188446,0.049132656306028366,-1.5482292175292969,1002.20044,
2021.05.22 15:07:51,58.0,24.0,29.76,-1.86,-18.779999,-0.45729253,1.0151415,9.607931,0.002443461,-0.015271631,-0.004276057,-0.10514792054891586,0.047559428960084915,-1.561516523361206,1002.20044,
2021.05.22 15:07:52,58.0,24.0,30.06,-1.68,-18.9,-0.46447513,1.0247183,9.624691,-0.002443461,-0.008552114,-0.0018325958,-0.10594572126865387,0.048221293836832047,-1.5543469190597534,1002.20044,
2021.05.22 15:07:52,58.0,24.0,30.42,-1.68,-18.9,-0.46926352,1.0486604,9.619903,6.1086525E-4,-0.002443461,-6.1086525E-4,-0.10845278203487396,0.04874185100197792,-1.552687168121338,1002.19604,
2021.05.22 15:07:52,58.0,24.0,31.199999,-1.38,-18.119999,-0.4309563,1.0223241,9.49301,-0.0036651916,-0.015271631,0.004276057,-0.10716931521892548,0.0453660786151886,-1.5472239255905151,1002.19604,
2021.05.22 15:07:52,58.0,24.0,31.38,-1.02,-18.359999,-0.45489833,0.9696517,9.591172,-0.017104227,0.002443461,-0.0012217305,-0.10064364224672318,0.04739334061741829,-1.538743019104004,1002.19604,
2021.05.22 15:07:52,58.0,24.0,30.9,-0.84,-18.48,-0.36631286,0.9504981,9.763555,-0.035430185,0.0,0.0012217305,-0.09697803854942322,0.03750080242753029,-1.5355552434921265,1002.19604,
2021.05.22 15:07:52,58.0,24.0,30.48,-0.78,-18.24,-0.49320555,1.0223241,9.648633,-0.015882496,-0.009162978,-0.02687807,-0.10542485862970352,0.051072172820568085,-1.5266029834747314,1002.1904,
2021.05.22 15:07:52,58.0,24.0,30.599998,-1.62,-18.84,-0.48602295,1.0893618,9.619903,-0.0012217305,-0.014660766,-0.02687807,-0.11261763423681259,0.05047972500324249,-1.5478922128677368,1002.1904,
2021.05.22 15:07:52,58.0,24.0,30.779999,-1.68,-18.72,-0.4285621,0.9888053,9.672575,-0.019547688,-0.013439035,-0.007941248,-0.1017746701836586,0.04427797347307205,-1.5585252046585083,1002.1904,
2021.05.22 15:07:52,58.0,24.0,31.56,-2.04,-18.6,-0.38067806,0.9864111,9.842564,-0.034208454,-0.055588737,-0.0018325958,-0.09981126338243484,0.038657452911138535,-1.5726226568222046,1002.1904,
2021.05.22 15:07:52,58.0,24.0,31.98,-1.9799999,-18.539999,-0.36152446,0.9792285,9.488221,0.027488936,0.0036651916,-0.009773844,-0.1027664989233017,0.03808402270078659,-1.5690070390701294,1002.1931,
2021.05.22 15:07:52,58.0,24.0,31.8,-1.56,-18.48,-0.4261679,0.9959879,9.586384,-0.012217305,-0.02565634,-0.021991149,-0.10342323780059814,0.044426292181015015,-1.5546379089355469,1002.1931,
2021.05.22 15:07:52,58.0,24.0,31.56,-1.4399999,-18.06,-0.521936,1.0127473,9.49301,0.02076942,-0.009773844,-0.023823744,-0.10612240433692932,0.054925788193941116,-1.5491191148757935,1002.1931,
2021.05.22 15:07:52,58.0,24.0,31.019999,-1.3199999,-17.94,-0.45729253,0.93373865,9.797073,-0.014049901,0.004276057,-0.0067195175,-0.09491816908121109,0.04664259031414986,-1.5535029172897339,1002.1931,
2021.05.22 15:07:52,58.0,24.0,30.96,-0.9,-18.119999,-0.48841715,1.0295067,9.55047,0.0061086523,-0.014660766,-0.009773844,-0.10724271088838577,0.051096122711896896,-1.5304301977157593,1002.2029,
2021.05.22 15:07:52,58.0,24.0,30.599998,-0.71999997,-18.06,-0.46208093,1.067814,9.495404,0.02076942,-0.004886922,-0.01160644,-0.11185411363840103,0.04862527921795845,-1.521519660949707,1002.2029,
2021.05.22 15:07:52,58.0,24.0,30.48,-1.02,-18.359999,-0.33518824,0.9792285,9.682152,-0.014049901,-0.004886922,0.01160644,-0.10073481500148773,0.034605368971824646,-1.5394090414047241,1002.2029,
2021.05.22 15:07:52,58.0,24.0,31.019999,-1.4399999,-18.3,-0.40701428,1.0151415,9.696517,-0.007330383,-0.010995574,-0.01038471,-0.10422026365995407,0.04195068031549454,-1.550774097442627,1002.2029,
2021.05.22 15:07:52,58.0,24.0,30.48,-1.62,-18.3,-0.36391866,0.9576807,9.727641,-0.0036651916,-0.02443461,-0.008552114,-0.09806504100561142,0.037393342703580856,-1.5610631704330444,1002.20264,
2021.05.22 15:07:52,58.0,24.0,30.84,-1.8,-18.24,-0.46926352,0.94092125,9.56723,0.010995574,-0.02076942,-0.021991149,-0.0979161188006401,0.049009770154953,-1.5662051439285278,1002.20264,
2021.05.22 15:07:52,58.0,24.0,31.14,-1.62,-18.24,-0.34237084,1.0079589,9.648633,0.0,-0.004276057,-0.009773844,-0.10402394831180573,0.03546898812055588,-1.5577954053878784,1002.20264,
2021.05.22 15:07:52,58.0,24.0,30.72,-1.3199999,-18.119999,-0.4237737,1.0007763,9.660604,-0.0030543262,-0.01282817,-0.01160644,-0.1031268760561943,0.04383807256817818,-1.5477488040924072,1002.20264,
2021.05.22 15:07:52,58.0,24.0,30.96,-1.3199999,-18.06,-0.37349546,0.93134445,9.739613,-0.01282817,6.1086525E-4,0.0018325958,-0.09526491165161133,0.03832930326461792,-1.5537554025650024,1002.2007,
2021.05.22 15:07:52,58.0,24.0,30.539999,-1.38,-18.18,-0.37110126,0.9959879,9.607931,0.004886922,-0.025045475,-0.0067195175,-0.1032177284359932,0.038605280220508575,-1.5499858856201172,1002.2007,
2021.05.22 15:07:52,58.0,24.0,30.48,-1.74,-18.359999,-0.45968673,0.9959879,9.586384,0.005497787,-0.0018325958,-0.012217305,-0.10340669006109238,0.047915346920490265,-1.5602108240127563,1002.2007,
2021.05.22 15:07:52,58.0,24.0,30.539999,-1.86,-18.84,-0.47644615,1.0510546,9.646238,-0.0036651916,-0.012217305,0.0012217305,-0.10840077698230743,0.049351803958415985,-1.558971881866455,1002.2007,
2021.05.22 15:07:53,58.0,24.0,30.66,-2.1,-18.779999,-0.40701428,0.9768343,9.574412,0.0,-0.005497787,0.021991149,-0.10158257931470871,0.04248504713177681,-1.5726196765899658,1002.1946,
2021.05.22 15:07:53,58.0,24.0,31.38,-1.74,-18.84,-0.320823,0.94092125,9.751583,-0.017715093,-0.012217305,0.03604105,-0.09613959491252899,0.032887719571590424,-1.565117597579956,1002.1946,
2021.05.22 15:07:53,58.0,24.0,31.5,-1.62,-18.66,-0.24899697,0.93134445,9.751583,-0.0067195175,-0.02076942,0.027488936,-0.09518734365701675,0.02552845887839794,-1.5631645917892456,1002.1946,
2021.05.22 15:07:53,58.0,24.0,31.5,-1.26,-18.66,-0.320823,0.91458505,9.643845,0.017715093,-0.01282817,0.002443461,-0.09450138360261917,0.03325486183166504,-1.5512199401855469,1002.1946,
2021.05.22 15:07:53,58.0,24.0,31.619999,-1.38,-18.66,-0.35913026,1.0151415,9.5385,0.007941248,-0.017715093,-0.004886922,-0.10595208406448364,0.03763282671570778,-1.547317624092102,1002.1926,
2021.05.22 15:07:53,58.0,24.0,31.019999,-1.74,-18.9,-0.4237737,1.0295067,9.569624,0.009773844,-0.0061086523,-0.009162978,-0.107064388692379,0.044254302978515625,-1.5563948154449463,1002.1926,
2021.05.22 15:07:53,58.0,24.0,30.96,-1.62,-18.72,-0.32800564,1.0223241,9.739613,-0.012217305,0.01038471,0.007330383,-0.10452378541231155,0.0336647592484951,-1.555965781211853,1002.1926,
2021.05.22 15:07:53,58.0,24.0,30.72,-2.1,-18.42,-0.33758244,0.9983821,9.80665,-0.007330383,-0.0030543262,0.01038471,-0.10139743238687515,0.03441023826599121,-1.5747472047805786,1002.1926,
2021.05.22 15:07:53,58.0,24.0,30.72,-1.74,-18.72,-0.25378537,0.9888053,9.655815,0.009162978,-0.0061086523,0.0067195175,-0.1020144447684288,0.02627711370587349,-1.5622919797897339,1002.1924,
2021.05.22 15:07:53,58.0,24.0,31.08,-1.5,-18.359999,-0.3878607,0.9911995,9.588778,0.02687807,-0.0018325958,-0.013439035,-0.10292136669158936,0.040427401661872864,-1.5535855293273926,1002.1924,
2021.05.22 15:07:53,58.0,24.0,30.96,-1.62,-18.18,-0.33039984,0.9624691,9.610326,0.0018325958,-0.0030543262,-0.010995574,-0.09975811094045639,0.03436613827943802,-1.5607850551605225,1002.1924,
2021.05.22 15:07:53,58.0,24.0,31.08,-1.1999999,-18.359999,-0.35913026,0.9552865,9.643845,0.0012217305,0.0012217305,-0.004886922,-0.09866656363010406,0.03722212463617325,-1.5468637943267822,1002.1924,
2021.05.22 15:07:53,58.0,24.0,30.72,-1.4399999,-18.119999,-0.2825158,0.9504981,9.524135,-0.002443461,-0.010995574,-0.0067195175,-0.09942609071731567,0.029654450714588165,-1.5557036399841309,1002.19336,
2021.05.22 15:07:53,58.0,24.0,30.359999,-1.26,-18.6,-0.34955344,0.9983821,9.746795,-0.008552114,-0.0018325958,-0.010995574,-0.10201070457696915,0.03584805876016617,-1.5455185174942017,1002.19336,
2021.05.22 15:07:53,58.0,24.0,30.179998,-1.4399999,-18.6,-0.23223756,0.90979666,9.813833,-0.020158553,-0.014660766,-0.008552114,-0.09241559356451035,0.02365989238023758,-1.5590908527374268,1002.19336,
2021.05.22 15:07:53,58.0,24.0,30.06,-1.56,-18.539999,-0.34476504,0.9911995,9.8042555,0.0036651916,-0.005497787,-0.019547688,-0.10069474577903748,0.035150352865457535,-1.5566198825836182,1002.19336,
2021.05.22 15:07:53,58.0,24.0,30.24,-2.04,-18.48,-0.3878607,1.0079589,9.490616,0.051923547,-0.025045475,-0.03481932,-0.1057216078042984,0.040845081210136414,-1.5690935850143433,1002.1826,
2021.05.22 15:07:53,58.0,24.0,30.359999,-2.52,-18.359999,-0.45729253,1.0534488,9.514558,0.023823744,-0.012217305,-0.025045475,-0.11014442890882492,0.04802544787526131,-1.5819588899612427,1002.1826,
2021.05.22 15:07:53,58.0,24.0,30.599998,-2.46,-18.6,-0.4165911,1.0199299,9.588778,0.0030543262,0.009162978,0.004886922,-0.10586947202682495,0.04341839253902435,-1.5822941064834595,1002.1826,
2021.05.22 15:07:53,58.0,24.0,30.66,-2.46,-18.539999,-0.38307226,0.94092125,9.689334,-0.004276057,0.018325957,0.02443461,-0.09673033654689789,0.03951488062739372,-1.588930368423462,1002.1826,
2021.05.22 15:07:53,58.0,24.0,30.66,-2.04,-18.539999,-0.32321724,0.91937345,9.631873,0.0018325958,0.016493361,0.025045475,-0.09510963410139084,0.03354446217417717,-1.5765737295150757,1002.19946,
2021.05.22 15:07:53,58.0,24.0,30.84,-1.86,-18.18,-0.4381389,0.9768343,9.591172,-0.0012217305,0.028710667,0.0036651916,-0.1013922393321991,0.04564974084496498,-1.566451907157898,1002.19946,
2021.05.22 15:07:53,58.0,24.0,30.9,-1.3199999,-18.359999,-0.320823,1.0342951,9.64145,-0.009773844,-0.029932396,0.005497787,-0.10680852085351944,0.03326311707496643,-1.545918345451355,1002.19946,
2021.05.22 15:07:53,58.0,24.0,31.199999,-1.68,-18.06,-0.3854665,0.9983821,9.646238,-0.0012217305,0.037873644,0.01038471,-0.10305076092481613,0.039939042180776596,-1.5605062246322632,1002.19946,
2021.05.22 15:07:53,58.0,24.0,31.019999,-1.68,-18.119999,-0.30406362,0.94092125,9.694122,-0.0067195175,0.012217305,0.021380283,-0.09671065211296082,0.031355489045381546,-1.5651925802230835,1002.1914,
2021.05.22 15:07:54,58.0,24.0,31.019999,-2.04,-18.119999,-0.30645782,1.0007763,9.646238,0.004276057,0.004886922,0.010995574,-0.1033262237906456,0.03175899013876915,-1.572752594947815,1002.1914,
2021.05.22 15:07:54,58.0,24.0,30.72,-2.46,-18.359999,-0.32321724,1.0223241,9.607931,0.007941248,-0.0030543262,0.0036651916,-0.10594584792852402,0.03362799063324928,-1.5839765071868896,1002.1914,
2021.05.22 15:07:54,58.0,24.0,30.66,-2.1,-18.66,-0.39983168,1.0390835,9.787497,0.0,-0.009773844,-0.004886922,-0.10568071901798248,0.04082857072353363,-1.570447564125061,1002.1914,
2021.05.22 15:07:54,58.0,24.0,31.019999,-2.04,-18.48,-0.46447513,1.0941502,9.481039,0.040317107,-0.018325957,-0.004276057,-0.11475934833288193,0.048950761556625366,-1.5621262788772583,1002.1926,
2021.05.22 15:07:54,58.0,24.0,31.019999,-1.5,-18.42,-0.51954174,1.079785,9.605537,0.009162978,-0.023823744,0.009773844,-0.11178078502416611,0.05403507873415947,-1.5458526611328125,1002.1926,
2021.05.22 15:07:54,58.0,24.0,31.14,-1.5,-17.88,-0.40462008,0.9768343,9.713276,-0.029321533,-0.012217305,0.0421497,-0.100143663585186,0.04163232818245888,-1.556864619255066,1002.1926,
2021.05.22 15:07:54,58.0,24.0,30.72,-1.5,-17.279999,-0.35194764,1.091756,9.773131,-0.0012217305,-0.017104227,0.032986723,-0.1111772358417511,0.035996198654174805,-1.5525835752487183,1002.1926,
2021.05.22 15:07:54,58.0,24.0,30.48,-1.8,-17.4,-0.22984336,0.9911995,9.6845455,0.018936822,-0.064751714,0.029932396,-0.10196492075920105,0.023728549480438232,-1.5690138339996338,1002.19165,
2021.05.22 15:07:54,58.0,24.0,30.48,-1.92,-17.58,-0.23463176,0.8714894,9.356541,0.12156218,0.0580322,0.03176499,-0.09284529089927673,0.025071509182453156,-1.5778400897979736,1002.19165,
2021.05.22 15:07:54,58.0,24.0,30.359999,-1.86,-18.3,-0.31364042,1.0103531,10.060435,-0.043982297,-0.004276057,-0.051923547,-0.10004447400569916,0.031165536493062973,-1.5684231519699097,1002.19165,
2021.05.22 15:07:54,58.0,24.0,30.779999,-1.68,-18.96,-0.34955344,1.0606314,9.727641,0.07147124,-0.09712757,-0.028099801,-0.10853423923254013,0.03591858595609665,-1.554106593132019,1002.19165,
