Time,X-cord,Y-cord,Mag_x,Mag_y,Mag_z,Acc_x,Acc_y,Acc_z,Gyro_x,Gyro_y,Gyro_z,Orn_x,Orn_y,Orn_z,Pressure,
2021.05.22 15:01:15,24.0,24.0,39.0,-2.34,-36.54,-0.5530606,1.0223241,9.672575,0.08857546,0.029321533,-0.11911872,-0.10513166338205338,0.05711602792143822,-1.5237562656402588,1002.2864,
2021.05.22 15:01:15,24.0,24.0,38.7,-2.04,-36.66,-0.4309563,0.9983821,9.677363,-0.112399206,0.073303826,-0.16432275,-0.10270199179649353,0.04450300708413124,-1.5194792747497559,1002.2864,
2021.05.22 15:01:15,24.0,24.0,38.28,-1.68,-37.079998,-0.5506664,0.9792285,9.646238,-0.07574729,6.1086525E-4,-0.12644911,-0.10100414603948593,0.057024240493774414,-1.5076930522918701,1002.2864,
2021.05.22 15:01:15,24.0,24.0,37.86,-1.5,-37.26,-0.40222588,0.92176765,9.837775,-0.03481932,0.048258353,-0.1142318,-0.09334646165370941,0.040863096714019775,-1.512447476387024,1002.2932,
2021.05.22 15:01:15,24.0,24.0,37.2,-1.3199999,-37.02,-0.6368576,1.0079589,9.696517,-0.064751714,-0.005497787,-0.093462385,-0.10335750132799149,0.06558481603860855,-1.4917010068893433,1002.2932,
2021.05.22 15:01:15,24.0,24.0,37.38,-0.71999997,-36.48,-0.62009823,0.9744401,9.619903,-0.022602014,-0.01282817,-0.11362094,-0.10074219107627869,0.06437087059020996,-1.4798831939697266,1002.2932,
2021.05.22 15:01:15,24.0,24.0,37.62,-0.42,-36.42,-0.545878,0.9792285,9.67018,-0.02076942,-0.018936822,-0.06291912,-0.1007593497633934,0.05638977140188217,-1.4738534688949585,1002.2932,
2021.05.22 15:01:15,24.0,24.0,37.8,-0.35999998,-36.239998,-0.40940848,0.9696517,9.720459,-0.05009095,-0.012217305,-0.028099801,-0.09933728724718094,0.04209334775805473,-1.4775173664093018,1002.2986,
2021.05.22 15:01:15,24.0,24.0,38.7,-0.53999996,-35.94,-0.5267244,0.8355764,9.636662,-0.012217305,-0.016493361,-0.021991149,-0.08636348694562912,0.05460405722260475,-1.496246576309204,1002.2986,
2021.05.22 15:01:16,24.0,24.0,38.399998,-0.96,-35.94,-0.5530606,0.7374141,9.6845455,-0.0036651916,-0.01038471,-0.01282817,-0.07587359845638275,0.057045578956604004,-1.5177007913589478,1002.2986,
2021.05.22 15:01:16,24.0,24.0,38.04,-0.96,-35.94,-0.5363012,0.7278373,9.598354,0.009773844,-0.025045475,0.009162978,-0.07556712627410889,0.055816248059272766,-1.5176987648010254,1002.2986,
2021.05.22 15:01:16,24.0,24.0,38.28,-0.59999996,-36.239998,-0.5770026,0.8523358,9.502586,0.028099801,-0.039095376,6.1086525E-4,-0.08929216116666794,0.06064612418413162,-1.4922373294830322,1002.29224,
2021.05.22 15:01:16,24.0,24.0,38.28,-0.48,-36.84,-0.45010993,0.866701,9.552865,0.04520403,-0.043982297,0.026267206,-0.09037937968969345,0.04708297178149223,-1.4886356592178345,1002.29224,
2021.05.22 15:01:16,24.0,24.0,38.1,-0.35999998,-36.96,-0.33758244,0.82360536,9.488221,0.015882496,-0.017104227,0.048258353,-0.08653140813112259,0.035564105957746506,-1.4907047748565674,1002.29224,
2021.05.22 15:01:16,24.0,24.0,38.579998,-0.84,-37.02,-0.25857377,0.79726917,9.555259,0.008552114,-0.0421497,0.056199603,-0.08321458846330643,0.027054283767938614,-1.508966326713562,1002.29224,
2021.05.22 15:01:16,24.0,24.0,38.28,-1.0799999,-36.84,-0.23223756,0.7541735,9.598354,0.0067195175,-0.05009095,0.04642576,-0.0783892571926117,0.024190841242671013,-1.520544409751892,1002.2859,
2021.05.22 15:01:16,24.0,24.0,37.559998,-0.96,-36.6,-0.2753332,0.7278373,9.864111,-0.014049901,-0.002443461,0.021991149,-0.07362436503171921,0.027905374765396118,-1.5212571620941162,1002.2859,
2021.05.22 15:01:16,24.0,24.0,38.16,-1.3199999,-36.84,-0.39743748,0.830788,9.813833,-0.0067195175,0.004276057,0.0018325958,-0.08438459038734436,0.04047556221485138,-1.5185121297836304,1002.2859,
2021.05.22 15:01:16,24.0,24.0,38.34,-1.3199999,-36.84,-0.5243302,0.91937345,9.713276,0.01160644,0.004276057,-0.02565634,-0.0942336842417717,0.0539284385740757,-1.5063731670379639,1002.2859,
2021.05.22 15:01:16,24.0,24.0,38.16,-1.4399999,-36.54,-0.39504328,0.94810385,9.801862,0.008552114,-0.01038471,0.004276057,-0.09634920209646225,0.040281083434820175,-1.5101245641708374,1002.2881,
2021.05.22 15:01:16,24.0,24.0,38.16,-1.56,-36.18,-0.17238252,1.0055647,9.828198,-0.028710667,-0.022602014,0.04337143,-0.10194388031959534,0.017537785694003105,-1.512291669845581,1002.2881,
2021.05.22 15:01:16,24.0,24.0,37.38,-1.1999999,-36.36,-0.23942018,0.93613285,10.086772,-0.023823744,-0.028710667,0.04153884,-0.09251697361469269,0.023731598630547523,-1.5093711614608765,1002.2881,
2021.05.22 15:01:16,24.0,24.0,36.84,-0.78,-36.48,-0.30166942,0.8858546,10.175357,-0.014049901,-0.008552114,0.014049901,-0.0868019238114357,0.0296383798122406,-1.501557469367981,1002.2881,
2021.05.22 15:01:16,24.0,24.0,37.26,-1.0799999,-36.54,-0.24899697,0.78769237,9.797073,0.005497787,-0.005497787,6.1086525E-4,-0.08020242303609848,0.025409972295165062,-1.5178214311599731,1002.2888,
2021.05.22 15:01:16,24.0,24.0,37.38,-1.26,-37.02,-0.35434186,0.91697925,9.0716305,0.06658431,-0.070249505,-0.035430185,-0.10066364705562592,0.039040591567754745,-1.4982231855392456,1002.2888,
2021.05.22 15:01:16,24.0,24.0,37.68,-1.0799999,-37.02,-0.50757074,0.89782566,9.370906,0.10629055,-0.07880162,-0.081855945,-0.09537939727306366,0.05411165580153465,-1.4968373775482178,1002.2888,
2021.05.22 15:01:16,24.0,24.0,37.62,-1.5,-37.02,-0.40940848,0.91937345,9.069236,0.044593163,0.0067195175,-0.07574729,-0.10092554986476898,0.04511192813515663,-1.5039358139038086,1002.2888,
2021.05.22 15:01:16,24.0,24.0,37.559998,-1.38,-37.739998,-0.7110779,1.091756,9.040505,0.064751714,-0.03726278,-0.065973446,-0.11981424689292908,0.07849306613206863,-1.4702519178390503,1002.29175,
2021.05.22 15:01:16,24.0,24.0,37.38,-0.9,-37.86,-0.5770026,1.0079589,9.169792,0.030543262,0.008552114,-0.05497787,-0.10926774889230728,0.06284143030643463,-1.4714394807815552,1002.29175,
2021.05.22 15:01:16,24.0,24.0,37.2,-1.0799999,-37.86,-0.30885202,0.6871359,10.022128,-0.07086037,0.02687807,0.061086524,-0.06842236965894699,0.030807260423898697,-1.5267311334609985,1002.29175,
2021.05.22 15:01:16,24.0,24.0,37.079998,-0.71999997,-37.86,0.12210429,0.7278373,10.113108,-0.19303341,0.020158553,0.14782938,-0.07184060662984848,-0.012073277495801449,-1.5184370279312134,1002.29175,
2021.05.22 15:01:16,24.0,24.0,36.84,-0.48,-37.92,-0.047884032,0.8499416,9.409213,-0.15943582,-0.06963864,0.10995574,-0.09008513391017914,0.0050890143029391766,-1.4904659986495972,1002.2849,
2021.05.22 15:01:16,24.0,24.0,36.899998,-0.65999997,-37.86,-0.49559975,0.9576807,9.363723,-0.017715093,-0.02443461,-0.062308256,-0.1017797663807869,0.052878301590681076,-1.474021077156067,1002.2849,
2021.05.22 15:01:16,24.0,24.0,36.78,-0.48,-37.559998,-0.5650316,0.93613285,9.78989,-0.05681047,0.06352998,-0.057421334,-0.0951751172542572,0.05765186622738838,-1.4759564399719238,1002.2849,
2021.05.22 15:01:17,24.0,24.0,36.78,-0.17999999,-37.26,-0.5602432,0.9744401,9.847352,-0.07696902,0.062308256,-0.013439035,-0.09847521781921387,0.05683150887489319,-1.4647458791732788,1002.2849,
2021.05.22 15:01:17,24.0,24.0,37.079998,-0.06,-36.719997,-0.4285621,0.9504981,10.01734,-0.08002335,0.017715093,0.018325957,-0.09451611340045929,0.04275595396757126,-1.4710025787353516,1002.29004,
2021.05.22 15:01:17,24.0,24.0,37.62,0.17999999,-36.48,-0.019153614,0.770933,10.386047,-0.09162979,0.014660766,0.0720821,-0.07409175485372543,0.0018441657302901149,-1.4941205978393555,1002.29004,
2021.05.22 15:01:17,24.0,24.0,37.739998,0.0,-36.059998,-0.51954174,0.91219085,9.526528,0.023823744,0.029321533,0.028099801,-0.09532087296247482,0.054482340812683105,-1.4697269201278687,1002.29004,
2021.05.22 15:01:17,24.0,24.0,38.28,-0.17999999,-35.82,-0.7326257,1.0151415,9.203311,0.13805555,0.009773844,-0.064751714,-0.1095140129327774,0.07943706959486008,-1.456459879875183,1002.29004,
2021.05.22 15:01:17,24.0,24.0,38.219997,-0.48,-35.34,-0.20590134,0.7086837,9.856929,0.045814894,0.019547688,0.06169739,-0.07175791263580322,0.020885957404971123,-1.5145052671432495,1002.28687,
2021.05.22 15:01:17,24.0,24.0,37.5,-0.65999997,-35.34,-0.11731588,0.60812724,10.022128,-0.02687807,0.01282817,0.13194689,-0.06060000881552696,0.011705150827765465,-1.5301556587219238,1002.28687,
2021.05.22 15:01:17,24.0,24.0,37.559998,-0.9,-35.82,-0.3184288,0.80684596,9.394848,0.04886922,-0.05009095,0.0421497,-0.08562260866165161,0.033881012350320816,-1.5082874298095703,1002.28687,
2021.05.22 15:01:17,24.0,24.0,36.96,-1.26,-36.3,-0.33039984,0.81881696,9.368511,0.07147124,-0.04642576,0.01160644,-0.08712553977966309,0.03525244817137718,-1.5143516063690186,1002.28687,
2021.05.22 15:01:17,24.0,24.0,36.78,-1.74,-36.36,-0.34237084,0.80445176,9.466674,0.020158553,-0.0030543262,0.019547688,-0.08471845090389252,0.03615015000104904,-1.5298115015029907,1002.2837,
2021.05.22 15:01:17,24.0,24.0,37.38,-2.04,-36.42,-0.33518824,0.81881696,9.629479,-0.005497787,0.010995574,0.010995574,-0.08477715402841568,0.034794505685567856,-1.538680911064148,1002.2837,
2021.05.22 15:01:17,24.0,24.0,37.38,-1.92,-36.36,-0.34237084,0.878672,9.67018,-0.013439035,0.014049901,0.002443461,-0.09055881202220917,0.03539002314209938,-1.5294106006622314,1002.2837,
2021.05.22 15:01:17,24.0,24.0,37.8,-1.56,-36.059998,-0.30406362,0.8619126,9.703699,-0.013439035,0.004886922,-0.0012217305,-0.08854737132787704,0.031324565410614014,-1.5234105587005615,1002.2837,
2021.05.22 15:01:17,24.0,24.0,37.26,-1.02,-36.48,-0.29927522,0.81881696,9.763555,-0.016493361,0.014660766,-0.002443461,-0.08362974971532822,0.030642684549093246,-1.5120471715927124,1002.2881,
2021.05.22 15:01:17,24.0,24.0,37.44,-1.14,-36.48,-0.28491,0.842759,9.662998,0.0,0.0,-0.01038471,-0.08695733547210693,0.029476096853613853,-1.5123471021652222,1002.2881,
2021.05.22 15:01:17,24.0,24.0,37.559998,-1.1999999,-36.3,-0.30406362,0.8403648,9.7803135,0.0067195175,-0.009162978,-0.02321288,-0.08567240089178085,0.03107934258878231,-1.5156842470169067,1002.2881,
2021.05.22 15:01:17,24.0,24.0,37.68,-1.56,-36.3,-0.35434186,0.8882488,9.631873,0.01160644,0.007941248,-0.029321533,-0.09189781546592712,0.03677188605070114,-1.5184584856033325,1002.2881,
2021.05.22 15:01:17,24.0,24.0,38.52,-1.9799999,-36.239998,-0.4333505,0.90261406,9.516952,0.029932396,-0.007941248,-0.04337143,-0.09446262568235397,0.0455031581223011,-1.527144432067871,1002.29126,
2021.05.22 15:01:17,24.0,24.0,37.98,-1.68,-36.239998,-0.34476504,0.80924016,9.615114,0.025045475,-0.004276057,-0.037873644,-0.08391178399324417,0.03584121912717819,-1.5305685997009277,1002.29126,
2021.05.22 15:01:17,24.0,24.0,37.92,-1.5,-36.42,-0.34955344,0.78290397,9.694122,0.0030543262,0.005497787,-0.007330383,-0.08053368330001831,0.03604267165064812,-1.5286500453948975,1002.29126,
2021.05.22 15:01:17,24.0,24.0,37.8,-1.74,-36.3,-0.3878607,0.81881696,9.452309,0.0018325958,-0.01038471,-0.018325957,-0.08633813261985779,0.041010428220033646,-1.5287134647369385,1002.29126,
2021.05.22 15:01:17,24.0,24.0,37.32,-1.92,-36.239998,-0.50038815,0.7757214,9.533711,0.016493361,-0.03176499,-0.029321533,-0.08107618987560272,0.05243806913495064,-1.5375685691833496,1002.29663,
2021.05.22 15:01:17,24.0,24.0,37.62,-1.9799999,-35.94,-0.44532153,0.8283938,9.560047,-0.010995574,0.002443461,-0.029932396,-0.08634258806705475,0.04654787480831146,-1.5353230237960815,1002.29663,
2021.05.22 15:01:17,24.0,24.0,37.2,-2.04,-35.88,-0.4381389,0.8355764,9.5385,-0.021380283,-0.019547688,-0.014660766,-0.08728577941656113,0.04590146616101265,-1.5358638763427734,1002.29663,
2021.05.22 15:01:17,24.0,24.0,37.02,-1.74,-36.059998,-0.37588966,0.8451532,9.617508,-0.0421497,-0.002443461,-0.0067195175,-0.08758484572172165,0.03906400874257088,-1.5274044275283813,1002.29663,
2021.05.22 15:01:18,24.0,24.0,37.38,-1.3199999,-36.059998,-0.31364042,0.8331822,9.799467,-0.048258353,-0.018936822,0.0,-0.08477602899074554,0.03199494257569313,-1.5200823545455933,1002.2969,
2021.05.22 15:01:18,24.0,24.0,37.44,-1.1999999,-36.48,-0.2801216,0.78769237,9.883265,-0.040317107,0.01038471,-0.008552114,-0.07949970662593842,0.028335437178611755,-1.5218141078948975,1002.2969,
2021.05.22 15:01:18,24.0,24.0,37.739998,-1.38,-36.48,-0.29927522,0.81163436,9.931149,-0.029932396,0.002443461,-0.018325957,-0.08150807023048401,0.03012588806450367,-1.5247958898544312,1002.2969,
2021.05.22 15:01:18,24.0,24.0,37.92,-1.14,-36.719997,-0.49320555,0.8355764,9.662998,0.017715093,-0.0061086523,-0.0421497,-0.08614560216665268,0.05099637806415558,-1.5101526975631714,1002.2969,
2021.05.22 15:01:18,24.0,24.0,38.04,-1.4399999,-36.18,-0.48602295,0.80205756,9.825804,0.018325957,0.0012217305,-0.03970624,-0.08134808391332626,0.04942365735769272,-1.5251504182815552,1002.2986,
2021.05.22 15:01:18,24.0,24.0,38.04,-1.92,-36.059998,-0.4285621,0.82599956,9.485827,0.021380283,-0.015882496,-0.007330383,-0.08677006512880325,0.04514849931001663,-1.5334837436676025,1002.2986,
2021.05.22 15:01:18,24.0,24.0,38.399998,-1.9799999,-36.239998,-0.39025488,0.7781156,9.543288,0.025045475,-0.031154128,-0.007330383,-0.08128777146339417,0.04087034985423088,-1.5411441326141357,1002.2986,
2021.05.22 15:01:18,24.0,24.0,38.82,-2.28,-36.3,-0.2657564,0.6847417,9.737218,-0.015882496,-0.015882496,0.02076942,-0.07018047571182251,0.027286073192954063,-1.5616892576217651,1002.2986,
2021.05.22 15:01:18,24.0,24.0,38.52,-1.86,-37.26,-0.35194764,0.6799533,9.718064,-0.014049901,-6.1086525E-4,6.1086525E-4,-0.06980851292610168,0.03619999438524246,-1.5482131242752075,1002.2854,
2021.05.22 15:01:18,24.0,24.0,38.28,-1.3199999,-37.5,-0.4309563,0.7613561,9.7563715,-0.007941248,-0.0012217305,-0.023823744,-0.07780341804027557,0.044143084436655045,-1.5236262083053589,1002.2854,
2021.05.22 15:01:18,24.0,24.0,38.04,-1.0799999,-37.38,-0.5770026,0.830788,9.560047,-0.004276057,-0.0030543262,-0.03176499,-0.08652763813734055,0.060282494872808456,-1.5051944255828857,1002.2854,
2021.05.22 15:01:18,24.0,24.0,37.559998,-0.59999996,-36.66,-0.60094464,0.90740246,9.531317,0.015271631,0.005497787,-0.023823744,-0.09472917020320892,0.06296613812446594,-1.4832700490951538,1002.2854,
2021.05.22 15:01:18,24.0,24.0,37.5,-0.78,-36.12,-0.45250413,0.7565677,9.82341,-0.01160644,-0.0030543262,0.02565634,-0.07678397744894028,0.04603131487965584,-1.5115766525268555,1002.29395,
2021.05.22 15:01:18,24.0,24.0,37.739998,-0.35999998,-36.3,-0.22505496,0.6679823,9.85214,-0.04642576,0.013439035,0.08002335,-0.0676795169711113,0.02283928170800209,-1.5125075578689575,1002.29395,
2021.05.22 15:01:18,24.0,24.0,37.68,-0.24,-36.36,-0.2777274,0.79008657,9.703699,-6.1086525E-4,-0.028099801,0.0580322,-0.08120885491371155,0.02861296571791172,-1.4945868253707886,1002.29395,
2021.05.22 15:01:18,24.0,24.0,38.04,-0.59999996,-36.899998,-0.39504328,0.80445176,9.694122,0.015271631,0.0,0.014660766,-0.0827254131436348,0.04072827100753784,-1.5003330707550049,1002.29395,
2021.05.22 15:01:18,24.0,24.0,38.64,-0.53999996,-37.079998,-0.260968,0.842759,9.452309,0.03970624,0.017104227,0.009162978,-0.08889023959636688,0.027601903304457664,-1.4952194690704346,1002.2898,
2021.05.22 15:01:18,24.0,24.0,38.76,-0.96,-36.54,-0.260968,0.8714894,9.923966,0.12522738,0.055588737,0.032986723,-0.08756182342767715,0.026290684938430786,-1.5092878341674805,1002.2898,
2021.05.22 15:01:18,24.0,24.0,38.46,-1.02,-36.6,-0.1436521,0.82599956,9.739613,0.03176499,-0.07147124,0.02687807,-0.084596648812294,0.014748192392289639,-1.5148420333862305,1002.2898,
2021.05.22 15:01:18,24.0,24.0,38.28,-0.84,-36.719997,-0.21787235,0.93613285,9.703699,0.02076942,-0.059864793,0.03481932,-0.09615005552768707,0.02244873158633709,-1.4969398975372314,1002.2898,
2021.05.22 15:01:18,24.0,24.0,38.219997,-1.14,-36.54,-0.36152446,0.94331545,9.677363,0.044593163,-0.005497787,0.01038471,-0.09710220247507095,0.03734038025140762,-1.5018365383148193,1002.27954,
2021.05.22 15:01:18,24.0,24.0,38.28,-1.26,-36.48,-0.37588966,1.0079589,9.485827,0.0421497,-0.035430185,-0.008552114,-0.10577981173992157,0.039605725556612015,-1.4960635900497437,1002.27954,
2021.05.22 15:01:18,24.0,24.0,38.579998,-1.26,-36.239998,-0.4261679,1.0271125,9.68694,0.069027774,-0.018936822,-0.015271631,-0.1055346354842186,0.043965715914964676,-1.4967930316925049,1002.27954,
2021.05.22 15:01:18,24.0,24.0,38.1,-1.4399999,-36.48,-0.30406362,1.0486604,9.691729,0.025045475,-0.005497787,-0.02321288,-0.10772965848445892,0.03136323019862175,-1.5000576972961426,1002.27954,
2021.05.22 15:01:18,24.0,24.0,37.92,-1.4399999,-36.54,-0.22505496,1.0630256,9.648633,0.047647487,-0.037873644,0.004276057,-0.10970155149698257,0.02332083322107792,-1.4990092515945435,1002.29297,
2021.05.22 15:01:18,24.0,24.0,37.739998,-1.74,-36.78,-0.17238252,1.0199299,9.533711,0.03604105,0.032986723,0.014660766,-0.10655876994132996,0.018079396337270737,-1.5100758075714111,1002.29297,
2021.05.22 15:01:19,24.0,24.0,38.04,-2.52,-36.6,-0.40701428,1.079785,9.548077,6.1086525E-4,0.08857546,0.0018325958,-0.11250951141119003,0.042602088302373886,-1.5219074487686157,1002.29297,
2021.05.22 15:01:19,24.0,24.0,38.219997,-2.6399999,-36.18,-0.22505496,0.93134445,9.7084875,-0.047036625,0.05375614,0.029932396,-0.09561275690793991,0.02317710965871811,-1.5464590787887573,1002.29297,
2021.05.22 15:01:19,24.0,24.0,38.04,-3.0,-36.42,-0.34955344,1.0414777,9.545682,-0.029321533,-6.1086525E-4,0.008552114,-0.10860251635313034,0.036602653563022614,-1.5404514074325562,1002.2898,
2021.05.22 15:01:19,24.0,24.0,38.219997,-2.7,-36.18,-0.33518824,0.93613285,9.660604,-0.018936822,0.015271631,0.0067195175,-0.09654276072978973,0.0346824936568737,-1.5457431077957153,1002.2898,
2021.05.22 15:01:19,24.0,24.0,37.92,-2.04,-36.18,-0.39264908,0.9816227,9.639056,-0.06841691,0.020158553,0.03604105,-0.10140464454889297,0.040712710469961166,-1.5217851400375366,1002.2898,
2021.05.22 15:01:19,24.0,24.0,37.92,-1.68,-35.94,-0.50278234,0.9840169,9.574412,-0.047036625,0.017104227,0.022602014,-0.10227616876363754,0.052464939653873444,-1.5098389387130737,1002.2898,
2021.05.22 15:01:19,24.0,24.0,38.16,-1.4399999,-36.059998,-0.4429273,0.9528923,9.974244,-0.059253927,0.03481932,0.048258353,-0.09515301138162613,0.044377949088811874,-1.5119960308074951,1002.2871,
2021.05.22 15:01:19,24.0,24.0,37.62,-1.38,-36.3,-0.48602295,0.7685388,9.950302,-0.036651913,-0.010995574,-0.040927973,-0.07699325680732727,0.04880625382065773,-1.5274200439453125,1002.2871,
2021.05.22 15:01:19,24.0,24.0,37.44,-1.1999999,-36.48,-0.24660277,0.7733272,9.888053,-0.007330383,0.0,0.009773844,-0.0780251994729042,0.024934299290180206,-1.5237594842910767,1002.2871,
2021.05.22 15:01:19,24.0,24.0,37.38,-1.56,-36.899998,-0.38067806,0.90979666,9.514558,0.050701816,0.01160644,-0.017104227,-0.09525594115257263,0.03998873382806778,-1.5124366283416748,1002.2871,
2021.05.22 15:01:19,24.0,24.0,37.14,-1.4399999,-36.54,-0.47405192,0.90021986,9.488221,0.06536258,0.0012217305,-0.032986723,-0.09447731822729111,0.049920640885829926,-1.5089528560638428,1002.2908,
2021.05.22 15:01:19,24.0,24.0,37.62,-1.86,-36.3,-0.49559975,0.8619126,9.629479,0.0012217305,-6.1086525E-4,-0.02565634,-0.08915244042873383,0.05142156034708023,-1.5274893045425415,1002.2908,
2021.05.22 15:01:19,24.0,24.0,38.04,-2.1599998,-36.12,-0.47644615,0.94092125,9.555259,-0.013439035,0.007330383,-0.014049901,-0.09803410619497299,0.049820929765701294,-1.527536392211914,1002.2908,
2021.05.22 15:01:19,24.0,24.0,38.399998,-2.1599998,-36.0,-0.5482722,0.93852705,9.718064,-0.017104227,0.01282817,-0.012217305,-0.09612501412630081,0.05635809525847435,-1.529310703277588,1002.2908,
2021.05.22 15:01:19,24.0,24.0,38.579998,-1.86,-36.12,-0.45489833,0.91937345,9.655815,-0.03604105,0.007330383,-0.0061086523,-0.09482377022504807,0.047076523303985596,-1.5236952304840088,1002.2793,
2021.05.22 15:01:19,24.0,24.0,38.16,-1.68,-35.88,-0.36152446,0.9600749,9.588778,-0.027488936,0.018936822,0.014660766,-0.09972187876701355,0.03768502548336983,-1.5153616666793823,1002.2793,
2021.05.22 15:01:19,24.0,24.0,38.16,-1.5,-36.3,-0.32800564,0.89064306,9.682152,-0.03359759,-0.04153884,0.022602014,-0.09167768061161041,0.033864397555589676,-1.5181231498718262,1002.2793,
2021.05.22 15:01:19,24.0,24.0,37.98,-1.26,-36.42,-0.32800564,0.7589619,9.821015,-0.05131268,-0.031154128,0.018325957,-0.0770832821726799,0.03338593617081642,-1.5260722637176514,1002.2793,
2021.05.22 15:01:19,24.0,24.0,38.04,-1.26,-36.239998,-0.30166942,0.7613561,9.835381,-0.03726278,-0.017715093,0.010995574,-0.07721968740224838,0.03066224791109562,-1.5267170667648315,1002.2837,
2021.05.22 15:01:19,24.0,24.0,37.98,-1.38,-36.36,-0.45010993,0.8714894,9.433155,0.009773844,-0.015882496,-0.007941248,-0.0920201763510704,0.04767957329750061,-1.5120439529418945,1002.2837,
2021.05.22 15:01:19,24.0,24.0,38.04,-1.38,-36.18,-0.4333505,0.8403648,9.509769,0.031154128,-0.01282817,-0.017715093,-0.08804872632026672,0.04553747549653053,-1.5170485973358154,1002.2837,
2021.05.22 15:01:19,24.0,24.0,38.219997,-1.62,-35.7,-0.32561144,0.7326257,9.902418,-0.015271631,0.0030543262,0.014049901,-0.07381023466587067,0.03287016972899437,-1.540873646736145,1002.2837,
2021.05.22 15:01:19,24.0,24.0,38.04,-1.8,-35.52,-0.38307226,0.81642276,9.52174,-0.03359759,0.005497787,0.025045475,-0.08546501398086548,0.04020964354276657,-1.5334539413452148,1002.29395,
2021.05.22 15:01:19,24.0,24.0,38.28,-1.68,-36.42,-0.50757074,0.8571242,9.514558,0.01282817,-0.02321288,-0.014049901,-0.08971615880727768,0.05329623073339462,-1.5221126079559326,1002.29395,
2021.05.22 15:01:19,24.0,24.0,37.86,-1.74,-36.36,-0.36152446,0.8475474,9.763555,-0.015882496,0.0018325958,-0.012217305,-0.08653118461370468,0.0370110459625721,-1.528950810432434,1002.29395,
2021.05.22 15:01:20,24.0,24.0,37.739998,-1.92,-36.84,-0.29688102,0.8451532,9.55047,-0.03726278,0.008552114,0.023823744,-0.08822104334831238,0.031075479462742805,-1.5315825939178467,1002.29395,
2021.05.22 15:01:20,24.0,24.0,37.44,-1.86,-37.02,-0.19871874,0.80924016,9.900024,-0.02321288,-6.1086525E-4,0.0030543262,-0.08154354989528656,0.020069856196641922,-1.5374974012374878,1002.2866,
2021.05.22 15:01:20,24.0,24.0,37.2,-1.62,-36.12,-0.21787235,0.7302315,10.0748005,-0.05131268,0.036651913,0.01160644,-0.07233761250972748,0.021622106432914734,-1.5419028997421265,1002.2866,
2021.05.22 15:01:20,24.0,24.0,37.38,-1.8,-35.76,-0.5482722,0.8595184,9.725247,0.009773844,0.010995574,-0.05375614,-0.08801203966140747,0.0563165582716465,-1.5274854898452759,1002.2866,
2021.05.22 15:01:20,24.0,24.0,36.899998,-1.14,-35.7,-0.62488663,0.90500826,9.536105,0.04642576,-0.0030543262,-0.065973446,-0.09441865980625153,0.06543494760990143,-1.4998420476913452,1002.2866,
2021.05.22 15:01:20,24.0,24.0,36.78,-1.26,-35.94,-0.56982,0.8882488,9.3661175,0.04337143,-0.018936822,-0.02443461,-0.09438014030456543,0.06076354533433914,-1.503223180770874,1002.2937,
2021.05.22 15:01:20,24.0,24.0,37.079998,-1.56,-35.94,-0.37349546,0.79248077,9.667787,0.0067195175,0.0012217305,0.018936822,-0.08172771334648132,0.038613785058259964,-1.5289336442947388,1002.2937,
2021.05.22 15:01:20,24.0,24.0,37.02,-1.3199999,-35.82,-0.19393034,0.7326257,9.646238,-0.02076942,-0.0018325958,0.04337143,-0.07578857988119125,0.02010153792798519,-1.5308167934417725,1002.2937,
2021.05.22 15:01:20,24.0,24.0,37.079998,-1.3199999,-36.0,-0.2633622,0.79008657,9.751583,-0.015882496,-0.01282817,0.0036651916,-0.08081543445587158,0.027000557631254196,-1.524554967880249,1002.2937,
2021.05.22 15:01:20,24.0,24.0,36.899998,-0.71999997,-35.82,-0.32561144,0.866701,9.701305,-0.010995574,0.0036651916,-0.02687807,-0.08905216306447983,0.03355107828974724,-1.4986976385116577,1002.28613,
2021.05.22 15:01:20,24.0,24.0,37.2,-0.78,-36.0,-0.45729253,0.878672,9.742006,-6.1086525E-4,-0.009162978,-0.043982297,-0.08985237032175064,0.04690585285425186,-1.4974473714828491,1002.28613,
2021.05.22 15:01:20,24.0,24.0,36.899998,-0.53999996,-36.66,-0.4285621,0.8475474,9.737218,6.1086525E-4,-0.0067195175,-0.034208454,-0.0867396742105484,0.04398440197110176,-1.492228627204895,1002.28613,
2021.05.22 15:01:20,24.0,24.0,37.26,-0.71999997,-36.18,-0.47884035,0.8475474,9.603143,0.0061086523,-0.009773844,-0.030543262,-0.08792053908109665,0.04982161894440651,-1.4969826936721802,1002.28613,
2021.05.22 15:01:20,24.0,24.0,37.26,-1.74,-36.48,-0.45010993,0.80924016,9.622296,0.019547688,-0.017104227,-0.023823744,-0.08381186425685883,0.0467437319457531,-1.5296423435211182,1002.2903,
2021.05.22 15:01:20,24.0,24.0,37.26,-1.38,-36.78,-0.40701428,0.7733272,9.715671,0.005497787,-0.01160644,-0.004276057,-0.07935909181833267,0.04186807572841644,-1.5242822170257568,1002.2903,
2021.05.22 15:01:20,24.0,24.0,37.44,-1.68,-36.059998,-0.39264908,0.81642276,9.488221,-0.0061086523,-0.028710667,0.0018325958,-0.08576146513223648,0.04135919362306595,-1.527809739112854,1002.2903,
2021.05.22 15:01:20,24.0,24.0,37.26,-1.8,-36.54,-0.4165911,0.81881696,9.610326,0.01160644,-0.026267206,-0.016493361,-0.08491715043783188,0.0433211587369442,-1.5304287672042847,1002.2903,
2021.05.22 15:01:20,24.0,24.0,37.44,-1.14,-36.18,-0.4141969,0.8714894,9.557653,-0.012217305,-0.004276057,-0.008552114,-0.09084610641002655,0.04330957680940628,-1.5069581270217896,1002.27783,
2021.05.22 15:01:20,24.0,24.0,37.32,-1.26,-36.0,-0.34715924,0.80445176,9.662998,-0.01282817,-0.0061086523,-0.004886922,-0.08300590515136719,0.03591121360659599,-1.5197818279266357,1002.27783,
2021.05.22 15:01:20,24.0,24.0,37.32,-0.78,-36.66,-0.30645782,0.79008657,9.828198,-0.02687807,0.0012217305,0.0067195175,-0.08017845451831818,0.031171385198831558,-1.508639931678772,1002.27783,
2021.05.22 15:01:20,24.0,24.0,37.26,-0.65999997,-36.18,-0.38067806,0.78050977,9.816227,-0.027488936,0.010995574,0.0012217305,-0.07928591966629028,0.038761064410209656,-1.5061408281326294,1002.27783,
2021.05.22 15:01:20,24.0,24.0,37.5,-0.65999997,-35.82,-0.40940848,0.7733272,9.7084875,-0.007330383,0.0036651916,-0.014049901,-0.07941663265228271,0.04214519262313843,-1.5067356824874878,1002.27734,
2021.05.22 15:01:20,24.0,24.0,37.32,-0.59999996,-35.7,-0.5243302,0.81642276,9.619903,0.0061086523,-0.009162978,-0.01282817,-0.08454032987356186,0.054450854659080505,-1.4977794885635376,1002.27734,
2021.05.22 15:01:20,24.0,24.0,37.559998,-0.9,-35.64,-0.59136784,0.80205756,9.55047,0.01282817,0.002443461,-0.015882496,-0.083624929189682,0.06184132769703865,-1.5066015720367432,1002.27734,
2021.05.22 15:01:20,24.0,24.0,37.92,-0.48,-36.3,-0.46686932,0.82360536,9.524135,0.012217305,-0.014660766,0.009162978,-0.08615807443857193,0.04898039624094963,-1.4933427572250366,1002.27734,
2021.05.22 15:01:21,24.0,24.0,38.219997,-0.29999998,-36.96,-0.30406362,0.78769237,9.548077,0.004276057,-0.018936822,0.04520403,-0.0822695791721344,0.03183477371931076,-1.494328260421753,1002.2832,
2021.05.22 15:01:21,24.0,24.0,38.46,-0.35999998,-36.84,-0.18674773,0.7565677,9.76116,-0.015882496,-0.029321533,0.065973446,-0.07733922451734543,0.019129382446408272,-1.5035113096237183,1002.2832,
2021.05.22 15:01:21,24.0,24.0,38.76,-0.48,-36.719997,-0.320823,0.78769237,9.679757,-0.01038471,-0.015271631,0.03481932,-0.08115193992853165,0.03313157707452774,-1.50159752368927,1002.2832,
2021.05.22 15:01:21,24.0,24.0,38.579998,-0.78,-36.54,-0.30645782,0.7781156,9.730036,-0.013439035,-0.018325957,0.023823744,-0.07976125180721283,0.031485654413700104,-1.5112794637680054,1002.2832,
2021.05.22 15:01:21,24.0,24.0,38.16,-1.26,-36.719997,-0.33518824,0.79966336,9.698911,-0.007330383,-0.014049901,0.017715093,-0.08221384882926941,0.034545622766017914,-1.520222783088684,1002.27734,
2021.05.22 15:01:21,24.0,24.0,37.68,-0.84,-37.26,-0.31124622,0.81163436,9.753978,-0.0067195175,-0.019547688,0.015882496,-0.0829773098230362,0.03189884498715401,-1.5064774751663208,1002.27734,
2021.05.22 15:01:21,24.0,24.0,37.2,-1.14,-37.32,-0.22984336,0.79008657,9.734824,-0.004276057,-0.01282817,0.017104227,-0.08096087723970413,0.023606041446328163,-1.517085075378418,1002.27734,
2021.05.22 15:01:21,24.0,24.0,37.14,-0.96,-37.5,-0.260968,0.82121116,9.6845455,0.0061086523,-0.004276057,0.009773844,-0.08456312865018845,0.026940330862998962,-1.5073612928390503,1002.27734,
2021.05.22 15:01:21,24.0,24.0,36.96,-0.65999997,-37.079998,-0.33518824,0.7733272,9.61272,0.014049901,-0.015882496,-0.0067195175,-0.08022689074277878,0.03485511988401413,-1.5031445026397705,1002.26685,
2021.05.22 15:01:21,24.0,24.0,37.26,-1.14,-36.899998,-0.33279404,0.81402856,9.588778,0.009162978,0.0012217305,-0.009773844,-0.08464010059833527,0.03469269350171089,-1.5127112865447998,1002.26685,
2021.05.22 15:01:21,24.0,24.0,37.14,-0.65999997,-36.84,-0.2705448,0.79248077,9.682152,0.004276057,-0.009162978,-0.002443461,-0.08163587749004364,0.027935363352298737,-1.5035852193832397,1002.26685,
2021.05.22 15:01:21,24.0,24.0,37.739998,-1.02,-36.42,-0.17477672,0.7086837,9.742006,-0.0036651916,-0.01282817,0.009162978,-0.07260560244321823,0.017938602715730667,-1.5256997346878052,1002.26685,
2021.05.22 15:01:21,24.0,24.0,37.739998,-1.14,-36.899998,-0.25139117,0.7445967,9.662998,0.004276057,0.004276057,-0.008552114,-0.0768786072731018,0.02600998803973198,-1.5226439237594604,1002.2671,
2021.05.22 15:01:21,24.0,24.0,38.04,-1.1999999,-36.899998,-0.2777274,0.78529817,9.65821,0.007941248,-0.031154128,-0.015882496,-0.08109702169895172,0.02874765358865261,-1.5199662446975708,1002.2671,
2021.05.22 15:01:21,24.0,24.0,37.739998,-1.38,-37.38,-0.31124622,0.81402856,9.730036,0.007330383,-0.018936822,-0.022602014,-0.08342456072568893,0.03197728469967842,-1.5205029249191284,1002.2671,
2021.05.22 15:01:21,24.0,24.0,37.739998,-1.0799999,-37.5,-0.3854665,0.8762778,9.639056,0.014660766,-0.021991149,-0.022602014,-0.09058786928653717,0.03996876999735832,-1.5032261610031128,1002.2671,
2021.05.22 15:01:21,24.0,24.0,37.98,-1.56,-37.32,-0.40462008,0.8643068,9.634268,0.01282817,-6.1086525E-4,-0.025045475,-0.08939382433891296,0.04197334498167038,-1.518143653869629,1002.26733,
2021.05.22 15:01:21,24.0,24.0,37.5,-1.38,-36.96,-0.40940848,0.79726917,9.78989,0.0067195175,-0.009162978,0.0012217305,-0.08118803054094315,0.041795164346694946,-1.5222190618515015,1002.26733,
2021.05.22 15:01:21,24.0,24.0,38.1,-1.8,-36.78,-0.17477672,0.7757214,9.660604,0.0061086523,-0.009162978,0.014660766,-0.08011243492364883,0.018089724704623222,-1.5386439561843872,1002.26733,
2021.05.22 15:01:21,24.0,24.0,37.38,-1.74,-37.02,-0.2873042,0.79248077,9.603143,0.026267206,-0.0030543262,0.022602014,-0.08229982852935791,0.0299088042229414,-1.532209038734436,1002.26733,
2021.05.22 15:01:21,24.0,24.0,37.079998,-1.4399999,-37.079998,-0.2657564,0.82360536,9.552865,0.023823744,-0.02076942,-0.005497787,-0.08596976846456528,0.027812374755740166,-1.519876480102539,1002.2722,
2021.05.22 15:01:21,24.0,24.0,37.14,-1.62,-37.14,-0.18195933,0.8331822,9.627085,0.016493361,-0.014660766,0.016493361,-0.08631519228219986,0.01889852061867714,-1.5255990028381348,1002.2722,
2021.05.22 15:01:21,24.0,24.0,36.66,-1.26,-37.079998,-0.2825158,0.8882488,9.679757,0.0,-0.0061086523,0.01282817,-0.09146853536367416,0.029177965596318245,-1.5082156658172607,1002.2722,
2021.05.22 15:01:21,24.0,24.0,36.84,-1.86,-36.84,-0.2681506,0.866701,9.679757,-6.1086525E-4,-0.03176499,-0.0012217305,-0.08926528692245483,0.027695119380950928,-1.528335452079773,1002.2722,
2021.05.22 15:01:21,24.0,24.0,37.14,-1.68,-36.66,-0.24181437,0.81881696,9.821015,-0.0012217305,-0.017715093,0.013439035,-0.08315649628639221,0.024617163464426994,-1.5309067964553833,1002.27295,
2021.05.22 15:01:22,24.0,24.0,37.14,-1.38,-37.079998,-0.2777274,0.89543146,9.545682,-0.002443461,-0.004276057,0.010995574,-0.09349184483289719,0.02908635325729847,-1.5101972818374634,1002.27295,
2021.05.22 15:01:22,24.0,24.0,37.62,-1.5,-36.719997,-0.33279404,0.89782566,9.581595,0.02443461,-0.032986723,-0.0030543262,-0.09337436407804489,0.034718677401542664,-1.5144189596176147,1002.27295,
2021.05.22 15:01:22,24.0,24.0,37.8,-1.68,-37.02,-0.29209262,0.8619126,9.557653,0.0036651916,0.004276057,0.002443461,-0.0898953378200531,0.030551616102457047,-1.523021936416626,1002.27295,
2021.05.22 15:01:22,24.0,24.0,37.62,-1.92,-36.899998,-0.21068975,0.8523358,9.797073,-0.01038471,-6.1086525E-4,0.027488936,-0.08676056563854218,0.021502062678337097,-1.5340367555618286,1002.27563,
2021.05.22 15:01:22,24.0,24.0,37.8,-2.1599998,-36.78,-0.20829555,0.8499416,9.694122,-0.007941248,0.0036651916,0.02565634,-0.08743226528167725,0.02148348279297352,-1.5402641296386719,1002.27563,
2021.05.22 15:01:22,24.0,24.0,37.38,-1.86,-37.26,-0.079008654,0.82599956,9.710882,0.008552114,-0.007330383,0.021991149,-0.08485212922096252,0.00813591480255127,-1.5349347591400146,1002.27563,
2021.05.22 15:01:22,24.0,24.0,37.2,-1.4399999,-37.14,-0.19393034,0.85473,9.718064,0.01160644,0.004276057,0.01160644,-0.08770957589149475,0.019953008741140366,-1.5191775560379028,1002.27563,
2021.05.22 15:01:22,24.0,24.0,37.14,-1.1999999,-37.559998,-0.31364042,0.89303726,9.603143,0.005497787,-0.018936822,-0.021380283,-0.09267845749855042,0.03264858201146126,-1.504267692565918,1002.28296,
2021.05.22 15:01:22,24.0,24.0,37.2,-1.26,-37.14,-0.25857377,0.90979666,9.593566,0.022602014,0.002443461,-0.01038471,-0.09451715648174286,0.026946309953927994,-1.5061075687408447,1002.28296,
2021.05.22 15:01:22,24.0,24.0,37.32,-1.4399999,-37.14,-0.31124622,0.90261406,9.710882,-0.0067195175,-0.014049901,-0.004276057,-0.0926351249217987,0.0320403128862381,-1.5124166011810303,1002.28296,
2021.05.22 15:01:22,24.0,24.0,37.14,-1.0799999,-37.14,-0.18914193,0.8571242,9.749189,0.004276057,0.008552114,0.008552114,-0.08767560124397278,0.01939835213124752,-1.5093916654586792,1002.28296,
2021.05.22 15:01:22,24.0,24.0,37.14,-0.84,-36.78,-0.24420857,0.8882488,9.765948,0.005497787,-0.01160644,0.017104227,-0.09067590534687042,0.02500092051923275,-1.4997466802597046,1002.28296,
2021.05.22 15:01:22,24.0,24.0,37.44,-1.02,-37.14,-0.29927522,0.8595184,9.840169,0.032986723,-0.028710667,-0.0061086523,-0.0870867371559143,0.03040425293147564,-1.5071884393692017,1002.28296,
2021.05.22 15:01:22,24.0,24.0,37.14,-1.0799999,-37.02,0.023942016,0.92655605,8.899248,0.1459968,-0.05375614,0.057421334,-0.10374206304550171,-0.002690334804356098,-1.497107982635498,1002.28296,
2021.05.22 15:01:22,24.0,24.0,37.5,-1.9799999,-36.899998,-0.23463176,0.8475474,10.093954,-0.1160644,0.13133603,-0.039095376,-0.08374682813882828,0.023240597918629646,-1.53844153881073,1002.28296,
2021.05.22 15:01:22,24.0,24.0,36.899998,-2.28,-36.719997,-0.15562311,0.9600749,9.758766,-0.005497787,-0.06536258,0.03359759,-0.09805280715227127,0.01594565436244011,-1.5327305793762207,1002.2832,
