Time,X-cord,Y-cord,Mag_x,Mag_y,Mag_z,Acc_x,Acc_y,Acc_z,Gyro_x,Gyro_y,Gyro_z,Orn_x,Orn_y,Orn_z,Pressure,
2021.05.22 15:08:12,60.0,24.0,26.939999,0.48,-20.46,-1.2234371,1.3790601,9.232041,0.03848451,0.035430185,-0.14294247,-0.1470145732164383,0.13175305724143982,-1.4072169065475464,1002.2134,
2021.05.22 15:08:12,60.0,24.0,27.06,0.17999999,-20.34,-0.89303726,1.364695,9.095572,-0.061086524,-0.009162978,-0.009773844,-0.1482262760400772,0.09787004441022873,-1.429105281829834,1002.2134,
2021.05.22 15:08:12,60.0,24.0,26.82,-0.29999998,-20.4,-0.7757214,1.2018893,9.677363,-0.10445796,0.08307768,0.064751714,-0.12317214906215668,0.07998731732368469,-1.472962498664856,1002.2007,
2021.05.22 15:08:12,60.0,24.0,26.58,-0.53999996,-20.039999,-0.61052144,0.9648633,10.113108,-0.14477506,0.07819075,0.08674286,-0.09494747221469879,0.06029614433646202,-1.5112115144729614,1002.2007,
2021.05.22 15:08:12,60.0,24.0,27.18,-0.48,-19.8,-0.50038815,0.91219085,10.096349,-0.06719518,0.09896017,0.06169739,-0.08999408781528473,0.04952077567577362,-1.516575813293457,1002.2007,
2021.05.22 15:08:12,60.0,24.0,27.3,-0.24,-19.74,-0.24899697,1.1013328,9.856929,0.039095376,0.10567969,-0.009162978,-0.11123514920473099,0.02525573968887329,-1.495227336883545,1002.2007,
2021.05.22 15:08:12,60.0,24.0,27.06,-0.06,-19.92,-0.4165911,1.0486604,9.923966,0.093462385,-0.052534413,-0.099571034,-0.1051868349313736,0.04195365309715271,-1.4889546632766724,1002.19116,
2021.05.22 15:08:12,60.0,24.0,27.119999,0.17999999,-20.22,-0.6392518,1.2162545,9.562442,0.099571034,0.010995574,-0.19242255,-0.12623274326324463,0.06675095111131668,-1.4567008018493652,1002.19116,
2021.05.22 15:08:12,60.0,24.0,26.88,0.0,-20.34,-0.61530983,1.0510546,9.744401,0.16615535,0.10934488,-0.07819075,-0.10723506659269333,0.06306123733520508,-1.478905439376831,1002.19116,
2021.05.22 15:08:12,60.0,24.0,27.0,0.0,-20.279999,-0.6464345,1.0654198,9.337387,0.12583824,0.0012217305,-0.040317107,-0.11334224045276642,0.06912048161029816,-1.47323739528656,1002.19116,
2021.05.22 15:08:12,60.0,24.0,27.18,0.06,-20.4,-0.6823475,1.0414777,9.514558,0.08368854,0.040317107,-0.010995574,-0.10875032842159271,0.07159358263015747,-1.47444748878479,1002.1887,
2021.05.22 15:08:12,60.0,24.0,27.779999,0.24,-19.98,-0.90740246,1.0295067,9.466674,0.09040806,0.021380283,-0.018936822,-0.10783454030752182,0.09556034952402115,-1.4676777124404907,1002.1887,
2021.05.22 15:08:12,60.0,24.0,28.08,-0.06,-20.34,-0.9816227,1.0103531,9.095572,0.07880162,-0.02687807,0.02443461,-0.1099947839975357,0.10750703513622284,-1.4743040800094604,1002.1887,
2021.05.22 15:08:12,60.0,24.0,27.779999,0.06,-20.46,-0.78050977,0.830788,9.485827,-0.04642576,-0.045814894,0.111177474,-0.08706637471914291,0.08209673315286636,-1.4928648471832275,1002.1887,
2021.05.22 15:08:12,60.0,24.0,27.96,-0.06,-20.16,-0.59615624,0.90261406,9.6845455,-0.08735373,-0.09468412,0.12156218,-0.09275845438241959,0.061479903757572174,-1.497314691543579,1002.188,
2021.05.22 15:08:12,60.0,24.0,27.48,-0.17999999,-21.0,-0.6440403,1.055843,9.275137,-0.05009095,-0.10323623,0.08368854,-0.11307795345783234,0.0693260058760643,-1.4786125421524048,1002.188,
2021.05.22 15:08:12,60.0,24.0,27.779999,-0.29999998,-20.939999,-0.6512229,1.0271125,9.720459,-0.1142318,-0.09162979,0.09040806,-0.10504063963890076,0.06689511239528656,-1.4916648864746094,1002.188,
2021.05.22 15:08:12,60.0,24.0,27.9,-0.53999996,-21.48,-0.37828386,0.9983821,9.878476,-0.11728613,-0.11728613,0.0983493,-0.10065112262964249,0.03827504441142082,-1.507064700126648,1002.188,
2021.05.22 15:08:12,60.0,24.0,27.72,-0.71999997,-21.779999,-0.48123455,1.1109096,9.526528,-0.048258353,-0.108123146,0.035430185,-0.11594139039516449,0.05047230422496796,-1.4970954656600952,1002.1936,
2021.05.22 15:08:12,60.0,24.0,28.019999,-1.26,-21.539999,-0.5482722,1.1659763,9.421184,-0.06963864,-0.10995574,0.021380283,-0.12292911112308502,0.058130115270614624,-1.5115165710449219,1002.1936,
2021.05.22 15:08:12,60.0,24.0,27.66,-0.59999996,-21.539999,-0.3854665,1.0630256,9.809045,-0.112399206,-0.08979719,0.06414085,-0.10786806792020798,0.039276834577322006,-1.502318024635315,1002.1936,
2021.05.22 15:08:12,60.0,24.0,27.42,-0.78,-21.42,-0.30645782,1.0462662,9.811439,-0.09407325,-0.077579886,0.052534413,-0.10618451982736588,0.031224597245454788,-1.5116157531738281,1002.1936,
2021.05.22 15:08:12,60.0,24.0,27.3,-0.48,-21.42,-0.31603462,0.93134445,10.070012,-0.08979719,-0.06291912,0.01282817,-0.09217943996191025,0.031373437494039536,-1.5118153095245361,1002.19507,
2021.05.22 15:08:13,60.0,24.0,27.18,-0.12,-21.18,-0.3854665,0.92416185,10.228029,-0.073303826,0.010995574,-0.021991149,-0.09004753082990646,0.03766943886876106,-1.4997628927230835,1002.19507,
2021.05.22 15:08:13,60.0,24.0,26.82,-0.12,-21.48,-0.49559975,1.1899183,9.459491,0.030543262,-0.047036625,-0.08246681,-0.12496409565210342,0.0523439422249794,-1.4648240804672241,1002.19507,
2021.05.22 15:08:13,60.0,24.0,26.699999,0.29999998,-21.48,-0.6799533,1.4149733,9.02614,0.10934488,-0.032375857,-0.08735373,-0.15506607294082642,0.07518954575061798,-1.415553331375122,1002.19507,
2021.05.22 15:08:13,60.0,24.0,26.519999,0.65999997,-21.779999,-0.62967503,1.2330139,9.797073,-0.018325957,0.03481932,-0.009162978,-0.12494196742773056,0.06418347358703613,-1.429126262664795,1002.1985,
2021.05.22 15:08:13,60.0,24.0,26.519999,0.9,-21.359999,-0.37110126,0.9911995,9.76116,-0.036651913,0.02687807,0.09162979,-0.1011258140206337,0.03799985349178314,-1.448712706565857,1002.1985,
2021.05.22 15:08:13,60.0,24.0,27.06,0.12,-21.06,-0.5363012,0.7326257,9.981427,-0.042760566,0.035430185,0.076358154,-0.07316235452890396,0.05367829650640488,-1.5028079748153687,1002.1985,
2021.05.22 15:08:13,60.0,24.0,27.42,0.06,-21.06,-0.34237084,0.6823475,9.80665,-0.029932396,0.051923547,0.087964594,-0.06942595541477203,0.03489793464541435,-1.5113853216171265,1002.1985,
2021.05.22 15:08:13,60.0,24.0,27.72,-0.48,-20.939999,-0.37110126,1.0486604,9.045294,0.0842994,-0.007941248,0.02076942,-0.11532294005155563,0.0410040058195591,-1.4941376447677612,1002.19946,
2021.05.22 15:08:13,60.0,24.0,27.96,-0.78,-21.66,-0.7398083,1.2641385,8.643068,0.12095132,0.037873644,-0.03176499,-0.14470888674259186,0.08538743853569031,-1.4679689407348633,1002.19946,
2021.05.22 15:08:13,60.0,24.0,27.42,-0.65999997,-21.779999,-0.51714754,1.1923125,9.41879,-0.028099801,0.103847094,0.029321533,-0.12573158740997314,0.05485086888074875,-1.4846681356430054,1002.19946,
2021.05.22 15:08:13,60.0,24.0,27.24,-0.42,-21.66,-0.062249243,0.93134445,10.28549,-0.19303341,0.11056661,0.14966199,-0.09030143916606903,0.006052067968994379,-1.5136874914169312,1002.19946,
2021.05.22 15:08:13,60.0,24.0,27.48,-0.24,-21.359999,0.1604115,0.9744401,9.995792,-0.1600467,0.017104227,0.1142318,-0.0971655324101448,-0.01604652591049671,-1.5065308809280396,1002.19653,
2021.05.22 15:08:13,60.0,24.0,27.24,-0.24,-21.119999,-0.18674773,1.0654198,9.809045,-0.04337143,-0.03176499,-0.0018325958,-0.10817248374223709,0.01903601922094822,-1.4928005933761597,1002.19653,
2021.05.22 15:08:13,60.0,24.0,27.539999,0.29999998,-20.46,-0.36152446,1.0079589,9.940725,-0.0061086523,0.0067195175,-0.040927973,-0.10098523646593094,0.036351993680000305,-1.4791631698608398,1002.19653,
2021.05.22 15:08:13,60.0,24.0,27.72,0.0,-20.4,-0.59855044,1.0773908,9.591172,0.042760566,-0.025045475,-0.034208454,-0.11164717376232147,0.06232555955648422,-1.47783625125885,1002.19653,
2021.05.22 15:08:13,60.0,24.0,27.72,-0.35999998,-20.64,-0.46208093,1.0319009,9.502586,0.009162978,-0.081855945,0.036651913,-0.10804107040166855,0.0485885851085186,-1.4956040382385254,1002.1887,
2021.05.22 15:08:13,60.0,24.0,27.72,-0.17999999,-20.52,-0.25857377,0.92176765,9.591172,-0.02565634,-0.08002335,0.077579886,-0.0957769900560379,0.02695302851498127,-1.5026360750198364,1002.1887,
2021.05.22 15:08:13,60.0,24.0,27.3,-0.59999996,-20.88,-0.25378537,0.8355764,9.782708,-0.034208454,-0.09773844,0.059864793,-0.08517827838659286,0.025936424732208252,-1.5245410203933716,1002.1887,
2021.05.22 15:08:13,60.0,24.0,26.82,-0.59999996,-20.939999,-0.16519992,0.7661445,9.773131,-0.0061086523,-0.07819075,0.032986723,-0.07822181284427643,0.01690186932682991,-1.530258297920227,1002.1887,
2021.05.22 15:08:13,60.0,24.0,26.34,-0.06,-21.06,-0.35194764,0.8690952,9.703699,0.02443461,-0.056199603,-0.043982297,-0.0892665758728981,0.036253537982702255,-1.496534824371338,1002.1853,
2021.05.22 15:08:13,60.0,24.0,26.039999,-0.59999996,-21.18,-0.51714754,0.92176765,9.543288,0.0421497,-0.009773844,-0.08246681,-0.09614915400743484,0.05413670837879181,-1.5077813863754272,1002.1853,
2021.05.22 15:08:13,60.0,24.0,26.279999,-0.06,-21.42,-0.61770403,0.9768343,9.509769,0.029321533,0.029932396,-0.08307768,-0.10214627534151077,0.06486356258392334,-1.4787094593048096,1002.1853,
2021.05.22 15:08:13,60.0,24.0,26.279999,0.42,-21.6,-0.60812724,0.9672575,9.655815,0.0030543262,0.03726278,-0.05497787,-0.09964438527822495,0.06289733946323395,-1.4615938663482666,1002.1853,
2021.05.22 15:08:13,60.0,24.0,25.8,0.29999998,-21.84,-0.39743748,0.9720459,9.572019,0.005497787,0.03848451,-0.01160644,-0.10111730545759201,0.041496921330690384,-1.4662703275680542,1002.1887,
2021.05.22 15:08:13,60.0,24.0,25.859999,0.12,-22.32,-0.2657564,0.9648633,9.816227,-0.009773844,0.02321288,-0.0030543262,-0.0979423001408577,0.027066560462117195,-1.477210283279419,1002.1887,
2021.05.22 15:08:14,60.0,24.0,25.74,-0.24,-22.08,-0.18674773,0.82599956,9.892841,0.0,0.037873644,-0.0036651916,-0.08328668773174286,0.018874814733862877,-1.5062003135681152,1002.1887,
2021.05.22 15:08:14,60.0,24.0,25.68,-0.48,-22.199999,-0.22266077,0.9624691,9.734824,0.034208454,0.008552114,-0.05009095,-0.09852279722690582,0.02286861464381218,-1.5008474588394165,1002.1887,
2021.05.22 15:08:14,60.0,24.0,26.4,-0.42,-21.9,-0.35194764,1.1133038,9.339781,0.07147124,-0.025045475,-0.0842994,-0.11855704337358475,0.03766482323408127,-1.4814682006835938,1002.2002,
2021.05.22 15:08:14,60.0,24.0,26.4,-0.12,-21.3,-0.48362875,1.1180922,9.758766,0.018325957,-0.004276057,-0.07147124,-0.11393705755472183,0.04951787739992142,-1.4743887186050415,1002.2002,
2021.05.22 15:08:14,60.0,24.0,26.76,-0.59999996,-21.06,-0.36870706,1.1085154,9.737218,-0.0018325958,-0.021991149,-0.034208454,-0.11327461898326874,0.037847667932510376,-1.497804880142212,1002.2002,
2021.05.22 15:08:14,60.0,24.0,26.939999,-1.0799999,-20.76,-0.5626374,1.0941502,9.710882,0.039095376,-0.021991149,-0.04642576,-0.11201310902833939,0.057874154299497604,-1.515680193901062,1002.2002,
2021.05.22 15:08:14,60.0,24.0,27.06,-1.26,-20.88,-0.39743748,1.0390835,9.552865,0.03848451,-0.052534413,-0.018325957,-0.10825305432081223,0.04158002883195877,-1.5279138088226318,1002.2046,
2021.05.22 15:08:14,60.0,24.0,26.76,-1.14,-20.939999,-0.46208093,0.9983821,9.552865,0.055588737,-0.030543262,-0.008552114,-0.10401250422000885,0.04833325371146202,-1.5252567529678345,1002.2046,
2021.05.22 15:08:14,60.0,24.0,26.76,-0.96,-21.0,-0.51235914,0.90740246,9.540894,0.03970624,-0.018325957,-0.007941248,-0.09468582272529602,0.05364984646439552,-1.5254074335098267,1002.2046,
2021.05.22 15:08:14,60.0,24.0,26.76,-0.71999997,-20.939999,-0.5243302,0.93373865,9.260772,0.055588737,-0.009162978,0.0018325958,-0.10032809525728226,0.0565580315887928,-1.5109808444976807,1002.2046,
2021.05.22 15:08:14,60.0,24.0,26.46,-0.35999998,-21.119999,-0.4285621,0.9504981,9.114726,0.012217305,-0.018325957,0.021991149,-0.10379217565059662,0.04698404669761658,-1.4940401315689087,1002.20605,
2021.05.22 15:08:14,60.0,24.0,26.76,-0.35999998,-21.119999,-0.21547815,1.0127473,9.43076,-0.064751714,0.005497787,0.05131268,-0.10694999992847443,0.02284446358680725,-1.4962807893753052,1002.20605,
2021.05.22 15:08:14,60.0,24.0,26.64,-0.06,-21.119999,-0.047884032,0.9576807,9.706094,-0.116675265,0.02443461,0.051923547,-0.0983484610915184,0.004933358635753393,-1.494558334350586,1002.20605,
2021.05.22 15:08:14,60.0,24.0,26.939999,-0.06,-21.119999,-0.20829555,0.9792285,9.981427,-0.100792766,0.059253927,-0.013439035,-0.09777097404003143,0.020865285769104958,-1.4933348894119263,1002.20605,
2021.05.22 15:08:14,60.0,24.0,26.88,-0.65999997,-20.88,-0.34237084,1.0007763,10.101137,-0.05009095,0.05681047,-0.064751714,-0.09869701415300369,0.03388131782412529,-1.5139249563217163,1002.2112,
2021.05.22 15:08:14,60.0,24.0,27.0,-0.84,-20.82,-0.5626374,1.0414777,9.91439,0.007330383,0.03481932,-0.07452556,-0.10449632257223129,0.05668877065181732,-1.512967586517334,1002.2112,
2021.05.22 15:08:14,60.0,24.0,26.76,-0.53999996,-20.82,-0.5602432,1.0271125,9.749189,0.027488936,0.01282817,-0.031154128,-0.10479480028152466,0.057402484118938446,-1.50046968460083,1002.2112,
2021.05.22 15:08:14,60.0,24.0,26.519999,-0.78,-20.4,-0.5291186,1.0031705,9.545682,0.031154128,-0.009773844,0.005497787,-0.1045478954911232,0.05537348613142967,-1.5115740299224854,1002.2112,
2021.05.22 15:08:14,60.0,24.0,27.119999,-0.17999999,-20.34,-0.40701428,0.89782566,9.528923,0.018325957,0.0067195175,0.03176499,-0.09385868906974792,0.04268761724233627,-1.5009901523590088,1002.2068,
2021.05.22 15:08:14,60.0,24.0,27.119999,0.24,-20.34,-0.4141969,0.878672,9.579201,0.009773844,0.0018325958,0.014049901,-0.09138618409633636,0.04321227967739105,-1.4870595932006836,1002.2068,
2021.05.22 15:08:14,60.0,24.0,27.359999,0.42,-20.88,-0.4261679,0.8810662,9.469068,0.01038471,0.014660766,0.0018325958,-0.09268635511398315,0.044975969940423965,-1.4777618646621704,1002.2068,
2021.05.22 15:08:14,60.0,24.0,27.359999,0.29999998,-21.3,-0.46686932,0.93613285,9.591172,-0.013439035,0.023823744,-0.015271631,-0.09718107432126999,0.048638589680194855,-1.4763004779815674,1002.2068,
2021.05.22 15:08:14,60.0,24.0,26.939999,0.35999998,-21.18,-0.50517654,0.9935937,9.588778,-0.015882496,0.019547688,-0.015882496,-0.10310999304056168,0.05263548344373703,-1.4672086238861084,1002.2068,
2021.05.22 15:08:14,60.0,24.0,26.58,0.17999999,-21.24,-0.45968673,1.0175357,9.586384,-0.018325957,0.018325957,-0.004886922,-0.10562743246555328,0.047915343195199966,-1.4712520837783813,1002.2068,
2021.05.22 15:08:14,60.0,24.0,26.4,-0.12,-20.88,-0.39983168,1.0151415,9.742006,-0.03359759,0.0036651916,0.0067195175,-0.10374108701944351,0.041019007563591,-1.4866291284561157,1002.2068,
2021.05.22 15:08:15,60.0,24.0,26.46,0.48,-20.64,-0.32321724,0.92416185,9.828198,-0.029321533,0.002443461,0.017104227,-0.09370562434196472,0.03287487477064133,-1.4744811058044434,1002.2068,
2021.05.22 15:08:15,60.0,24.0,26.76,0.24,-20.4,-0.34955344,0.92895025,9.895236,-0.017715093,-0.009773844,0.002443461,-0.09354618191719055,0.035310741513967514,-1.4852522611618042,1002.1992,
2021.05.22 15:08:15,60.0,24.0,27.18,0.0,-20.58,-0.4213795,0.94570965,9.437943,0.040927973,-0.0421497,-0.029321533,-0.09977084398269653,0.044617753475904465,-1.48832368850708,1002.1992,
2021.05.22 15:08:15,60.0,24.0,27.48,0.0,-20.76,-0.47405192,0.93373865,9.627085,-0.0030543262,-0.0018325958,-0.03176499,-0.09657208621501923,0.04920174181461334,-1.4903813600540161,1002.1992,
2021.05.22 15:08:15,60.0,24.0,27.599998,0.0,-21.06,-0.48123455,0.89782566,9.560047,0.007941248,-0.019547688,-0.022602014,-0.09352198243141174,0.050295639783144,-1.4919676780700684,1002.1992,
2021.05.22 15:08:15,60.0,24.0,27.599998,0.24,-21.72,-0.5291186,0.878672,9.749189,-0.012217305,0.004886922,-0.023823744,-0.08975346386432648,0.054219890385866165,-1.4831945896148682,1002.199,
2021.05.22 15:08:15,60.0,24.0,27.539999,0.84,-21.539999,-0.48123455,0.8834604,9.794679,-0.007941248,-0.01038471,-0.014049901,-0.08984678238630295,0.049092765897512436,-1.462030053138733,1002.199,
2021.05.22 15:08:15,60.0,24.0,27.539999,0.71999997,-21.539999,-0.5386954,0.9864111,9.655815,0.0067195175,-0.014049901,-0.02076942,-0.10164706408977509,0.055731963366270065,-1.4551711082458496,1002.199,
2021.05.22 15:08:15,60.0,24.0,27.3,0.53999996,-21.72,-0.521936,0.9696517,9.622296,0.01038471,-0.007941248,-0.009773844,-0.10028586536645889,0.05418924614787102,-1.4617100954055786,1002.199,
2021.05.22 15:08:15,60.0,24.0,26.82,0.12,-21.48,-0.5434838,0.9792285,9.634268,0.01282817,0.0030543262,-0.005497787,-0.10113261640071869,0.056351806968450546,-1.475764513015747,1002.1968,
2021.05.22 15:08:15,60.0,24.0,26.88,-0.06,-22.08,-0.47884035,0.93852705,9.667787,0.004276057,0.010995574,0.008552114,-0.09665676206350327,0.04948902502655983,-1.4857033491134644,1002.1968,
2021.05.22 15:08:15,60.0,24.0,27.06,-0.29999998,-21.84,-0.45729253,0.90500826,9.751583,0.0067195175,0.015271631,0.012217305,-0.09244020283222198,0.04685985669493675,-1.5004669427871704,1002.1968,
2021.05.22 15:08:15,60.0,24.0,26.58,-0.84,-21.42,-0.35434186,0.91458505,9.655815,0.007941248,-6.1086525E-4,0.019547688,-0.0943736881017685,0.03668079152703285,-1.5214613676071167,1002.1968,
2021.05.22 15:08:15,60.0,24.0,26.519999,-0.71999997,-20.939999,-0.39504328,0.92655605,9.627085,0.01282817,-0.007941248,0.0067195175,-0.09586899727582932,0.04101156070828438,-1.5166305303573608,1002.18823,
2021.05.22 15:08:15,60.0,24.0,26.4,-0.9,-20.52,-0.51954174,0.90979666,9.61272,0.007941248,6.1086525E-4,-0.004886922,-0.09422729164361954,0.053994785994291306,-1.524661660194397,1002.18823,
2021.05.22 15:08:15,60.0,24.0,26.099998,-0.24,-20.699999,-0.50278234,0.9672575,9.562442,0.0030543262,-0.014660766,0.0030543262,-0.100670725107193,0.05253049358725548,-1.491830825805664,1002.18823,
2021.05.22 15:08:15,60.0,24.0,26.46,0.06,-21.18,-0.50038815,0.9672575,9.569624,-0.004276057,-6.1086525E-4,0.013439035,-0.10059718787670135,0.05224164202809334,-1.4793145656585693,1002.18823,
2021.05.22 15:08:15,60.0,24.0,26.88,0.48,-21.06,-0.46447513,0.9864111,9.701305,-0.016493361,-6.1086525E-4,0.018325957,-0.10121478885412216,0.04784105718135834,-1.4654325246810913,1002.1907,
2021.05.22 15:08:15,60.0,24.0,27.42,0.59999996,-21.119999,-0.33279404,0.9576807,9.744401,-0.015271631,-0.0067195175,0.026267206,-0.09790876507759094,0.03413906320929527,-1.4680255651474,1002.1907,
2021.05.22 15:08:15,60.0,24.0,27.42,-0.29999998,-20.699999,-0.36870706,0.92655605,9.825804,-0.0061086523,0.004276057,0.0012217305,-0.09395448863506317,0.037506770342588425,-1.505595088005066,1002.1907,
2021.05.22 15:08:15,60.0,24.0,27.42,-0.42,-20.46,-0.39025488,0.9768343,9.560047,0.017104227,-0.02565634,-0.02076942,-0.10174127668142319,0.04079878702759743,-1.50418221950531,1002.1907,
2021.05.22 15:08:15,60.0,24.0,27.3,-0.84,-20.34,-0.4189853,0.9911995,9.49301,0.002443461,0.004886922,-0.026267206,-0.10393617302179337,0.04410757124423981,-1.5178585052490234,1002.1841,
2021.05.22 15:08:15,60.0,24.0,27.0,-0.78,-20.039999,-0.49320555,1.0055647,9.64145,-0.009162978,0.0067195175,-0.029321533,-0.10378555953502655,0.0511101558804512,-1.5153225660324097,1002.1841,
2021.05.22 15:08:15,60.0,24.0,27.06,-0.35999998,-20.4,-0.40462008,0.8858546,9.861717,-0.02565634,0.02565634,-0.004886922,-0.08951226621866226,0.04100637137889862,-1.5112245082855225,1002.1841,
2021.05.22 15:08:15,60.0,24.0,27.06,-0.48,-20.34,-0.50278234,0.94092125,9.586384,0.007941248,-0.01160644,-0.025045475,-0.09770502895116806,0.05239953473210335,-1.5076240301132202,1002.1841,
2021.05.22 15:08:16,60.0,24.0,27.3,-0.17999999,-20.699999,-0.41180268,0.93134445,9.646238,-0.009162978,-0.015882496,-0.009162978,-0.09616462141275406,0.04266458749771118,-1.4982372522354126,1002.17993,
2021.05.22 15:08:16,60.0,24.0,27.119999,-0.71999997,-20.88,-0.49799395,0.92895025,9.655815,-0.007941248,-0.007941248,-0.015882496,-0.09578458964824677,0.05152885615825653,-1.5165916681289673,1002.17993,
2021.05.22 15:08:16,60.0,24.0,27.359999,-0.59999996,-20.88,-0.48362875,0.9959879,9.579201,0.002443461,-0.014660766,-0.02565634,-0.10347089171409607,0.050444550812244415,-1.5061956644058228,1002.17993,
2021.05.22 15:08:16,60.0,24.0,27.24,-0.17999999,-21.06,-0.5386954,0.9552865,9.52174,-0.0012217305,-0.009162978,-0.017715093,-0.09983370453119278,0.05651506409049034,-1.4913731813430786,1002.17993,
2021.05.22 15:08:16,60.0,24.0,26.699999,-0.06,-21.06,-0.50996494,0.89782566,9.782708,-0.029321533,0.007330383,-0.009773844,-0.09139701724052429,0.05208207666873932,-1.4932498931884766,1002.187,
2021.05.22 15:08:16,60.0,24.0,26.46,0.53999996,-21.119999,-0.41180268,0.9600749,9.579201,-0.0036651916,-0.018325957,0.0030543262,-0.09979979693889618,0.042962800711393356,-1.4633760452270508,1002.187,
2021.05.22 15:08:16,60.0,24.0,26.279999,0.48,-20.699999,-0.40462008,0.9720459,9.636662,-0.012217305,-0.01160644,-0.0012217305,-0.10044163465499878,0.04196292906999588,-1.4663293361663818,1002.187,
2021.05.22 15:08:16,60.0,24.0,26.58,0.59999996,-20.4,-0.4285621,0.93852705,9.694122,-0.021380283,-0.019547688,-0.01038471,-0.09641965478658676,0.044179681688547134,-1.4670028686523438,1002.187,
2021.05.22 15:08:16,60.0,24.0,27.119999,0.48,-20.039999,-0.4189853,0.93852705,9.624691,-0.009773844,-0.0018325958,-0.01038471,-0.0971137136220932,0.04350487142801285,-1.4744858741760254,1002.1919,
2021.05.22 15:08:16,60.0,24.0,27.359999,0.42,-19.619999,-0.4405331,0.91219085,9.694122,-0.01160644,-0.019547688,-0.015271631,-0.09372489899396896,0.045412078499794006,-1.4814510345458984,1002.1919,
2021.05.22 15:08:16,60.0,24.0,27.3,0.48,-19.92,-0.40222588,0.8834604,9.595961,-0.004276057,-0.015271631,-0.01038471,-0.09172696620225906,0.04189164191484451,-1.4800634384155273,1002.1919,
2021.05.22 15:08:16,60.0,24.0,27.42,0.65999997,-20.1,-0.46208093,0.92176765,9.655815,-0.005497787,-0.017715093,-0.01282817,-0.0950658917427063,0.04781871289014816,-1.4694640636444092,1002.1919,
2021.05.22 15:08:16,60.0,24.0,27.359999,0.71999997,-20.76,-0.4261679,0.866701,9.655815,-0.004276057,-0.015882496,-0.009162978,-0.08943299204111099,0.04410725459456444,-1.469800353050232,1002.19556,
2021.05.22 15:08:16,60.0,24.0,27.48,0.9,-21.06,-0.39264908,0.8714894,9.588778,-0.023823744,-0.016493361,-0.007330383,-0.0905618965625763,0.040925949811935425,-1.4621455669403076,1002.19556,
2021.05.22 15:08:16,60.0,24.0,27.18,1.02,-21.24,-0.45250413,0.8643068,9.706094,-0.002443461,-0.017104227,-0.020158553,-0.0887177363038063,0.046586889773607254,-1.4563206434249878,1002.19556,
2021.05.22 15:08:16,60.0,24.0,26.699999,0.78,-21.18,-0.44771573,0.92655605,9.643845,-0.018936822,-0.026267206,-0.020158553,-0.09568103402853012,0.04639171436429024,-1.4577693939208984,1002.19556,
2021.05.22 15:08:16,60.0,24.0,26.4,0.84,-21.18,-0.49081135,0.91697925,9.617508,-0.0030543262,-0.0067195175,-0.01160644,-0.09493463486433029,0.050988875329494476,-1.4539215564727783,1002.1948,
2021.05.22 15:08:16,60.0,24.0,26.519999,0.65999997,-21.06,-0.41180268,0.82599956,9.809045,-0.017715093,-0.019547688,0.01160644,-0.0839361697435379,0.041957296431064606,-1.4729187488555908,1002.1948,
2021.05.22 15:08:16,60.0,24.0,26.76,0.53999996,-20.699999,-0.33279404,0.80924016,9.7563715,0.0018325958,-0.018936822,0.0018325958,-0.0827074721455574,0.03409720957279205,-1.4818333387374878,1002.1948,
2021.05.22 15:08:16,60.0,24.0,27.0,0.35999998,-21.18,-0.45729253,0.81642276,9.737218,0.009162978,-0.026267206,-0.021991149,-0.08355826139450073,0.04692888632416725,-1.485151767730713,1002.1948,
2021.05.22 15:08:16,60.0,24.0,26.82,0.48,-20.699999,-0.50517654,0.878672,9.435549,0.02321288,-0.019547688,-0.02443461,-0.09272373467683792,0.05348863825201988,-1.4727823734283447,1002.19556,
2021.05.22 15:08:16,60.0,24.0,26.519999,0.42,-21.0,-0.6368576,0.94810385,9.545682,-0.0030543262,-0.0030543262,-0.016493361,-0.09877993911504745,0.06661810725927353,-1.4651209115982056,1002.19556,
2021.05.22 15:08:16,60.0,24.0,26.76,0.65999997,-21.42,-0.34476504,0.8571242,9.586384,-0.022602014,-0.012217305,0.03726278,-0.0891161561012268,0.03594854101538658,-1.4691914319992065,1002.19556,
2021.05.22 15:08:16,60.0,24.0,26.279999,0.9,-21.24,-0.36631286,0.8523358,9.615114,-0.02687807,-0.0030543262,0.021991149,-0.08835054934024811,0.038079190999269485,-1.4589945077896118,1002.19556,
2021.05.22 15:08:16,60.0,24.0,26.46,1.02,-21.779999,-0.17238252,0.79487497,9.861717,-0.05009095,0.01038471,0.03359759,-0.08041597157716751,0.01747819036245346,-1.4637051820755005,1002.1936,
2021.05.22 15:08:17,60.0,24.0,26.279999,0.96,-21.66,-0.29927522,0.878672,9.706094,-0.016493361,-0.01160644,-0.01160644,-0.09023911505937576,0.030823977664113045,-1.4549083709716797,1002.1936,
2021.05.22 15:08:17,60.0,24.0,25.859999,0.42,-21.42,-0.38307226,0.89064306,9.682152,-0.0012217305,-6.1086525E-4,-0.023823744,-0.09165867418050766,0.03954416140913963,-1.4722542762756348,1002.1936,
2021.05.22 15:08:17,60.0,24.0,26.22,0.35999998,-21.119999,-0.40940848,0.8595184,9.581595,-0.0018325958,-0.021991149,-0.008552114,-0.08938455581665039,0.04270265996456146,-1.4784682989120483,1002.1936,
2021.05.22 15:08:17,60.0,24.0,26.4,0.12,-20.64,-0.36631286,0.8283938,9.672575,-0.01038471,-0.021380283,0.004886922,-0.08537418395280838,0.03785319626331329,-1.4942477941513062,1002.18774,
2021.05.22 15:08:17,60.0,24.0,26.4,0.17999999,-20.22,-0.4309563,0.7757214,9.627085,-0.010995574,-0.022602014,0.004276057,-0.08032316714525223,0.04473511874675751,-1.4965333938598633,1002.18774,
2021.05.22 15:08:17,60.0,24.0,26.64,0.78,-20.279999,-0.2896984,0.7685388,9.701305,-0.009162978,-0.02076942,0.0018325958,-0.07901996374130249,0.02985292486846447,-1.4772875308990479,1002.18774,
2021.05.22 15:08:17,60.0,24.0,26.939999,0.71999997,-20.58,-0.36152446,0.8379706,9.622296,-0.002443461,-0.01160644,-0.020158553,-0.08680625259876251,0.037553876638412476,-1.4721455574035645,1002.18774,
2021.05.22 15:08:17,60.0,24.0,27.06,0.71999997,-20.76,-0.39025488,0.8403648,9.574412,0.016493361,-0.007330383,-0.026267206,-0.08747532218694687,0.04073764383792877,-1.4708824157714844,1002.1865,
2021.05.22 15:08:17,60.0,24.0,27.66,0.35999998,-21.0,-0.39983168,0.8738836,9.722853,-0.019547688,0.01282817,-0.020158553,-0.08956319093704224,0.04109971970319748,-1.4837324619293213,1002.1865,
2021.05.22 15:08:17,60.0,24.0,26.76,0.42,-21.24,-0.45968673,0.90021986,9.622296,0.014660766,0.0061086523,-0.018936822,-0.09317842870950699,0.04773678258061409,-1.4734618663787842,1002.1865,
2021.05.22 15:08:17,60.0,24.0,26.519999,0.24,-21.119999,-0.29688102,0.830788,9.677363,0.0018325958,0.016493361,0.01038471,-0.08559854328632355,0.030668266117572784,-1.4892514944076538,1002.1865,
2021.05.22 15:08:17,60.0,24.0,26.4,0.42,-21.24,-0.17717093,0.81163436,9.801862,-6.1086525E-4,0.008552114,0.021380283,-0.08260219544172287,0.018073266372084618,-1.4860337972640991,1002.18506,
2021.05.22 15:08:17,60.0,24.0,26.16,0.84,-21.06,-0.21068975,0.79487497,9.7084875,0.014049901,-0.01282817,-0.0018325958,-0.08167287707328796,0.021698199212551117,-1.469913125038147,1002.18506,
2021.05.22 15:08:17,60.0,24.0,27.119999,0.9,-21.06,-0.3184288,0.830788,9.526528,0.040317107,0.007330383,-0.03359759,-0.08693946152925491,0.03341304510831833,-1.4650278091430664,1002.18506,
2021.05.22 15:08:17,60.0,24.0,27.18,1.14,-21.24,-0.45489833,0.878672,9.576807,0.017715093,-0.005497787,-0.0421497,-0.09139136970043182,0.04746432229876518,-1.4493989944458008,1002.18506,
2021.05.22 15:08:17,60.0,24.0,27.18,1.02,-21.359999,-0.46686932,0.8858546,9.569624,0.0018325958,-0.0012217305,-0.032375857,-0.09219732135534286,0.04874793812632561,-1.4525384902954102,1002.1865,
2021.05.22 15:08:17,60.0,24.0,27.119999,0.96,-21.66,-0.4333505,0.82599956,9.746795,-0.030543262,-0.0012217305,-0.009773844,-0.08446071296930313,0.04443156346678734,-1.4608885049819946,1002.1865,
2021.05.22 15:08:17,60.0,24.0,27.24,0.42,-21.3,-0.33518824,0.8714894,9.7084875,6.1086525E-4,-0.002443461,-6.1086525E-4,-0.08947274833917618,0.03451156988739967,-1.4802740812301636,1002.1865,
2021.05.22 15:08:17,60.0,24.0,27.0,0.78,-21.24,-0.37588966,0.8714894,9.619903,0.0036651916,-0.004886922,-0.009773844,-0.09027720242738724,0.03905429691076279,-1.4646848440170288,1002.1865,
2021.05.22 15:08:17,60.0,24.0,26.82,0.53999996,-21.06,-0.33758244,0.81642276,9.701305,6.1086525E-4,0.009162978,-0.004886922,-0.0839075893163681,0.03478359431028366,-1.4797523021697998,1002.18823,
2021.05.22 15:08:17,60.0,24.0,26.58,0.59999996,-20.64,-0.29688102,0.8499416,9.591172,0.005497787,-0.02076942,-0.009162978,-0.08834409713745117,0.03094368986785412,-1.4750422239303589,1002.18823,
2021.05.22 15:08:17,60.0,24.0,26.4,0.96,-20.939999,-0.32321724,0.8714894,9.603143,0.0,-0.029932396,-0.014660766,-0.09045159071683884,0.033644746989011765,-1.4573209285736084,1002.18823,
2021.05.22 15:08:17,60.0,24.0,27.0,0.59999996,-20.82,-0.39504328,0.81642276,9.727641,-0.0036651916,-0.007330383,-0.007330383,-0.08366326242685318,0.04058808460831642,-1.4781581163406372,1002.18823,
2021.05.22 15:08:17,60.0,24.0,27.42,0.35999998,-20.88,-0.35673606,0.8475474,9.540894,0.015271631,-0.023823744,-0.002443461,-0.0885390192270279,0.037372808903455734,-1.4848287105560303,1002.1819,
2021.05.22 15:08:17,60.0,24.0,27.359999,0.53999996,-20.88,-0.35913026,0.8595184,9.722853,-0.013439035,-0.012217305,0.0030543262,-0.08811289072036743,0.036919932812452316,-1.4783663749694824,1002.1819,
2021.05.22 15:08:18,60.0,24.0,27.24,0.71999997,-20.52,-0.34476504,0.91219085,9.504981,-0.0018325958,-0.005497787,-0.009773844,-0.09561426192522049,0.03625614568591118,-1.4666098356246948,1002.1819,
2021.05.22 15:08:18,60.0,24.0,26.76,0.78,-20.76,-0.4357447,0.91697925,9.698911,-0.018325957,-0.0018325958,-0.017104227,-0.09416993707418442,0.044896986335515976,-1.4611812829971313,1002.1819,
2021.05.22 15:08:18,60.0,24.0,26.519999,0.9,-20.76,-0.39264908,0.93613285,9.682152,-0.0030543262,-0.0012217305,0.002443461,-0.0963081642985344,0.0405316986143589,-1.4546364545822144,1002.1858,
2021.05.22 15:08:18,60.0,24.0,26.76,0.59999996,-20.82,-0.2705448,0.85473,9.792285,-0.008552114,0.0067195175,0.028099801,-0.08703235536813736,0.02762133628129959,-1.4766712188720703,1002.1858,
2021.05.22 15:08:18,60.0,24.0,26.46,0.78,-20.82,-0.17238252,0.80205756,9.768343,-0.0012217305,-0.013439035,0.031154128,-0.0819113701581955,0.017645226791501045,-1.474546194076538,1002.1858,
2021.05.22 15:08:18,60.0,24.0,26.46,0.9,-20.88,-0.18674773,0.81163436,9.646238,0.017104227,-0.01282817,0.007941248,-0.08392661064863205,0.0193572249263525,-1.4679104089736938,1002.1858,
2021.05.22 15:08:18,60.0,24.0,26.519999,1.02,-20.88,-0.29688102,0.79248077,9.636662,0.02076942,-0.0036651916,-0.018936822,-0.08201266080141068,0.030797716230154037,-1.4632208347320557,1002.1824,
2021.05.22 15:08:18,60.0,24.0,26.519999,0.84,-21.24,-0.37828386,0.89303726,9.481039,0.016493361,-0.009773844,-0.034208454,-0.09384060651063919,0.03987783566117287,-1.457297921180725,1002.1824,
2021.05.22 15:08:18,60.0,24.0,26.939999,0.29999998,-21.72,-0.4333505,0.8690952,9.634268,0.0030543262,6.1086525E-4,-0.025045475,-0.08987485617399216,0.04494982212781906,-1.4802498817443848,1002.1824,
2021.05.22 15:08:18,60.0,24.0,26.88,0.59999996,-21.42,-0.38067806,0.866701,9.742006,-0.01282817,0.002443461,-0.007330383,-0.08866442739963531,0.039056070148944855,-1.471754550933838,1002.1824,
2021.05.22 15:08:18,60.0,24.0,27.0,0.53999996,-21.539999,-0.37349546,0.8403648,9.67018,-0.007330383,0.0030543262,0.0067195175,-0.08662065863609314,0.03860423341393471,-1.4758493900299072,1002.19116,
2021.05.22 15:08:18,60.0,24.0,26.939999,0.78,-21.42,-0.2825158,0.82360536,9.629479,-0.008552114,-0.005497787,0.009162978,-0.08528541773557663,0.02933022379875183,-1.469687819480896,1002.19116,
2021.05.22 15:08:18,60.0,24.0,27.18,1.1999999,-21.3,-0.32321724,0.82599956,9.636662,-0.007941248,0.004276057,0.004276057,-0.08545747399330139,0.033527810126543045,-1.454487681388855,1002.19116,
2021.05.22 15:08:18,60.0,24.0,27.3,0.53999996,-21.539999,-0.37110126,0.8379706,9.662998,-0.005497787,-0.009773844,-0.0018325958,-0.08643971383571625,0.03838549554347992,-1.4770699739456177,1002.19116,
2021.05.22 15:08:18,60.0,24.0,26.58,0.59999996,-21.48,-0.2681506,0.85473,9.6845455,-0.002443461,-0.002443461,0.007941248,-0.08799547702074051,0.02768143266439438,-1.472965955734253,1002.1853,
2021.05.22 15:08:18,60.0,24.0,26.699999,0.71999997,-21.359999,-0.33279404,0.8355764,9.67018,6.1086525E-4,-0.0030543262,0.002443461,-0.08614269644021988,0.03440088406205177,-1.4696768522262573,1002.1853,
2021.05.22 15:08:18,60.0,24.0,26.64,0.48,-21.0,-0.3184288,0.82599956,9.64145,0.0,-6.1086525E-4,0.0018325958,-0.08541669696569443,0.033015068620443344,-1.4806572198867798,1002.1853,
2021.05.22 15:08:18,60.0,24.0,26.34,0.96,-20.939999,-0.32561144,0.82599956,9.682152,-6.1086525E-4,-0.005497787,0.0036651916,-0.08505764603614807,0.033617399632930756,-1.4615702629089355,1002.1853,
2021.05.22 15:08:18,60.0,24.0,26.939999,0.9,-20.939999,-0.33997664,0.8283938,9.662998,-0.009162978,0.0012217305,0.0030543262,-0.08546672016382217,0.0351688452064991,-1.4656386375427246,1002.19336,
2021.05.22 15:08:18,60.0,24.0,27.0,0.53999996,-21.359999,-0.37828386,0.8355764,9.629479,0.004276057,0.0018325958,-0.0018325958,-0.08648956567049026,0.03926374763250351,-1.476465106010437,1002.19336,
2021.05.22 15:08:18,60.0,24.0,26.939999,0.42,-22.08,-0.37110126,0.8882488,9.603143,6.1086525E-4,-0.01160644,-0.0012217305,-0.09216479957103729,0.038624510169029236,-1.4734894037246704,1002.19336,
2021.05.22 15:08:18,60.0,24.0,26.88,0.42,-21.84,-0.38307226,0.91697925,9.595961,0.004886922,0.009162978,0.01160644,-0.09519423544406891,0.03989897295832634,-1.4712984561920166,1002.19336,
2021.05.22 15:08:18,60.0,24.0,26.88,0.12,-21.42,-0.25139117,0.82121116,9.763555,-0.013439035,-0.017715093,0.030543262,-0.08388467133045197,0.02574222721159458,-1.4960243701934814,1002.2009,
2021.05.22 15:08:18,60.0,24.0,26.58,-0.12,-21.24,-0.20111294,0.81402856,9.873688,-0.016493361,0.02565634,0.027488936,-0.08224122226238251,0.02036575973033905,-1.507025957107544,1002.2009,
2021.05.22 15:08:18,60.0,24.0,26.22,-0.12,-20.64,-0.25857377,0.8379706,9.811439,0.01282817,-0.031154128,0.0,-0.08517132699489594,0.026348218321800232,-1.5048775672912598,1002.2009,
2021.05.22 15:08:19,60.0,24.0,26.16,-0.29999998,-21.0,-0.33997664,0.93852705,9.548077,0.05131268,-0.0036651916,-0.021380283,-0.09791848063468933,0.03559178113937378,-1.4983084201812744,1002.2009,
2021.05.22 15:08:19,60.0,24.0,26.46,0.06,-21.359999,-0.33997664,0.93134445,9.5385,0.032375857,-0.021991149,-0.010995574,-0.0972706601023674,0.03562748432159424,-1.4844015836715698,1002.1985,
2021.05.22 15:08:19,60.0,24.0,26.88,0.53999996,-20.939999,-0.41180268,0.90500826,9.698911,0.0,-0.021991149,-0.0036651916,-0.09295762330293655,0.04243316501379013,-1.4715570211410522,1002.1985,
2021.05.22 15:08:19,60.0,24.0,27.0,0.17999999,-20.76,-0.23223756,0.8331822,9.76116,0.009162978,0.0061086523,0.022602014,-0.08512651920318604,0.023787517100572586,-1.4955179691314697,1002.1985,
2021.05.22 15:08:19,60.0,24.0,27.119999,0.48,-20.88,-0.29209262,0.90500826,9.715671,0.014660766,-0.025045475,0.004886922,-0.09283960610628128,0.03005502186715603,-1.4771027565002441,1002.1985,
2021.05.22 15:08:19,60.0,24.0,27.0,0.9,-20.46,-0.32321724,0.91219085,9.610326,0.027488936,-0.017715093,-0.009162978,-0.09458110481500626,0.03361961618065834,-1.4604790210723877,1002.19604,
2021.05.22 15:08:19,60.0,24.0,26.699999,0.78,-20.58,-0.25857377,0.89303726,9.454702,0.04153884,-6.1086525E-4,0.007330383,-0.09413991123437881,0.027341879904270172,-1.4648321866989136,1002.19604,
2021.05.22 15:08:19,60.0,24.0,26.699999,1.1999999,-20.58,-0.320823,0.90261406,9.749189,-0.009162978,-0.030543262,-0.005497787,-0.09227065742015839,0.03289579227566719,-1.44947350025177,1002.19604,
2021.05.22 15:08:19,60.0,24.0,27.06,1.3199999,-20.34,-0.19871874,0.878672,9.576807,0.013439035,0.0018325958,0.007330383,-0.0914742574095726,0.020747022703289986,-1.450350046157837,1002.19604,
2021.05.22 15:08:19,60.0,24.0,27.06,0.53999996,-20.76,-0.34237084,0.92895025,9.809045,-0.009773844,-0.02443461,-0.008552114,-0.0943647101521492,0.03488942235708237,-1.473027229309082,1002.2012,
2021.05.22 15:08:19,60.0,24.0,26.519999,0.59999996,-21.3,-0.320823,0.9624691,9.564836,0.02443461,-0.01160644,-0.013439035,-0.10023222118616104,0.033529359847307205,-1.462037205696106,1002.2012,
2021.05.22 15:08:19,60.0,24.0,26.76,0.53999996,-21.6,-0.33997664,0.91697925,9.809045,0.015882496,-0.0030543262,0.009773844,-0.09315651655197144,0.03464563563466072,-1.4698947668075562,1002.2012,
2021.05.22 15:08:19,60.0,24.0,26.46,0.17999999,-21.539999,-0.24181437,0.8858546,9.871294,0.02321288,-0.047036625,0.0061086523,-0.08947402238845825,0.024491827934980392,-1.4876197576522827,1002.2012,
2021.05.22 15:08:19,60.0,24.0,26.22,0.53999996,-21.119999,-0.06464344,0.9864111,8.935161,0.15882497,-0.01282817,0.035430185,-0.10994848608970642,0.007234600372612476,-1.4609482288360596,1002.2012,
2021.05.22 15:08:19,60.0,24.0,26.88,0.59999996,-20.939999,-0.38067806,0.9744401,9.969456,-0.118507855,0.034208454,-0.07147124,-0.09736255556344986,0.03816589340567589,-1.4663891792297363,1002.2012,
2021.05.22 15:08:19,60.0,24.0,26.519999,0.12,-20.76,-0.12210429,0.9504981,9.787497,0.020158553,-0.043982297,0.030543262,-0.09680244326591492,0.012474890798330307,-1.4888089895248413,1002.2012,
2021.05.22 15:08:19,60.0,24.0,26.46,0.06,-20.64,-0.093373865,0.89064306,9.504981,0.035430185,-0.08124508,-0.01038471,-0.09342547506093979,0.009823360480368137,-1.4944143295288086,1002.2012,
