Time,X-cord,Y-cord,Mag_x,Mag_y,Mag_z,Acc_x,Acc_y,Acc_z,Gyro_x,Gyro_y,Gyro_z,Orn_x,Orn_y,Orn_z,Pressure,
2021.05.22 15:07:13,55.0,24.0,35.34,-0.24,-16.199999,-0.007182605,1.043872,8.99741,0.1563815,-0.07696902,0.06841691,-0.1155027374625206,7.982968236319721E-4,-1.5246368646621704,1002.2102,
2021.05.22 15:07:13,55.0,24.0,35.16,-0.29999998,-15.78,-0.6895301,1.2138603,9.7563715,0.10995574,0.055588737,-0.043982297,-0.12347623705863953,0.07055752724409103,-1.5135490894317627,1002.1997,
2021.05.22 15:07:13,55.0,24.0,35.04,-0.65999997,-16.199999,-0.4429273,1.0773908,9.749189,-0.047036625,0.029932396,-0.03176499,-0.1099516972899437,0.04540099948644638,-1.5330454111099243,1002.1997,
2021.05.22 15:07:13,55.0,24.0,34.98,-0.17999999,-16.44,-0.47405192,1.0989386,9.232041,0.0580322,0.08857546,-0.039095376,-0.11832334846258163,0.05130349099636078,-1.5130399465560913,1002.1997,
2021.05.22 15:07:13,55.0,24.0,34.92,-0.24,-15.9,-0.39983168,0.9768343,9.873688,-0.053145275,-0.04642576,-0.07391469,-0.09853195399045944,0.04047255218029022,-1.528104543685913,1002.1997,
2021.05.22 15:07:13,55.0,24.0,34.739998,-0.12,-15.96,-0.5554548,1.1659763,9.428367,0.03359759,0.18692477,-0.13805555,-0.1228312999010086,0.05884513631463051,-1.5091309547424316,1002.20166,
2021.05.22 15:07:13,55.0,24.0,34.68,-0.29999998,-15.599999,-0.6991069,1.0869676,10.134656,0.007330383,0.2406809,-0.09407325,-0.10659272223711014,0.06887270510196686,-1.5227670669555664,1002.20166,
2021.05.22 15:07:13,55.0,24.0,35.1,-0.35999998,-15.179999,-0.49559975,0.94570965,9.864111,0.111177474,0.19364429,-0.02443461,-0.09546196460723877,0.050200507044792175,-1.5342286825180054,1002.20166,
2021.05.22 15:07:14,55.0,24.0,35.1,0.0,-15.0,-0.62249243,0.89782566,9.878476,0.11056661,0.12217305,-0.02687807,-0.09045959264039993,0.06293181329965591,-1.5253039598464966,1002.20166,
2021.05.22 15:07:14,55.0,24.0,35.16,0.48,-14.5199995,-0.8523358,0.89064306,9.459491,0.12034045,0.018325957,-0.0018325958,-0.09350007027387619,0.08986111730337143,-1.5079203844070435,1002.2012,
2021.05.22 15:07:14,55.0,24.0,35.46,0.78,-14.7,-0.7374141,0.8810662,9.131485,0.06963864,0.010995574,0.076358154,-0.09587866812944412,0.08058024942874908,-1.499132513999939,1002.2012,
2021.05.22 15:07:14,55.0,24.0,34.98,0.78,-14.88,-0.59376204,0.7613561,9.244013,-0.050701816,-0.020158553,0.12461651,-0.08200836181640625,0.06414394825696945,-1.506754755973816,1002.2012,
2021.05.22 15:07:14,55.0,24.0,35.04,-0.06,-15.179999,-0.6631939,0.7230489,9.785102,-0.14905111,0.0067195175,0.115453534,-0.07359056919813156,0.06767237931489944,-1.5346260070800781,1002.2012,
2021.05.22 15:07:14,55.0,24.0,35.46,-0.53999996,-15.42,-0.62488663,0.8379706,9.902418,-0.15515977,-0.058643065,0.11301007,-0.08425489813089371,0.06302087754011154,-1.5433484315872192,1002.20703,
2021.05.22 15:07:14,55.0,24.0,35.219997,-0.84,-15.179999,-0.6560113,1.0366893,9.301474,-0.077579886,0.04520403,0.095294975,-0.11072344332933426,0.0704110860824585,-1.5381604433059692,1002.20703,
2021.05.22 15:07:14,55.0,24.0,35.46,-0.96,-15.599999,-0.5410896,0.9983821,9.603143,-0.18020524,-0.115453534,0.118507855,-0.10342905670404434,0.05628553777933121,-1.5459173917770386,1002.20703,
2021.05.22 15:07:14,55.0,24.0,35.34,-0.06,-15.48,-0.50996494,0.8714894,10.268731,-0.24495697,-0.06414085,0.1337795,-0.08456166833639145,0.049621157348155975,-1.5304428339004517,1002.20703,
2021.05.22 15:07:14,55.0,24.0,35.46,0.0,-15.66,-0.31364042,0.8714894,9.787497,-0.12950343,-0.08857546,0.12950343,-0.08876156806945801,0.032034046947956085,-1.528230905532837,1002.20557,
2021.05.22 15:07:14,55.0,24.0,35.82,-0.17999999,-16.14,-0.6344634,0.9768343,9.888053,-0.053145275,-0.08368854,0.081855945,-0.09826906025409698,0.06407681107521057,-1.5239845514297485,1002.20557,
2021.05.22 15:07:14,55.0,24.0,35.04,-0.12,-15.78,-0.39025488,0.81163436,9.179369,0.07452556,0.14782938,0.122783914,-0.08811087906360626,0.042488761246204376,-1.5300835371017456,1002.20557,
2021.05.22 15:07:14,55.0,24.0,35.1,-0.24,-16.02,-0.41180268,0.59376204,10.534488,-0.17470746,-0.20830505,0.12095132,-0.05626118928194046,0.039071016013622284,-1.549386739730835,1002.20557,
2021.05.22 15:07:14,55.0,24.0,34.62,0.0,-15.96,-0.37349546,0.7445967,9.244013,0.009162978,-0.11911872,0.032986723,-0.08031030744314194,0.04038207605481148,-1.5298306941986084,1002.20996,
2021.05.22 15:07:14,55.0,24.0,34.44,0.24,-15.54,-0.51714754,0.80445176,9.224859,0.06414085,-0.16737708,-0.03848451,-0.08684903383255005,0.05600159242749214,-1.5185668468475342,1002.20996,
2021.05.22 15:07:14,55.0,24.0,34.92,0.29999998,-15.299999,-0.92655605,0.8475474,9.394848,0.043982297,-0.047647487,-0.10567969,-0.08953844010829926,0.09830594807863235,-1.5117138624191284,1002.20996,
2021.05.22 15:07:14,55.0,24.0,34.92,0.0,-15.12,-0.8379706,0.9528923,9.404425,0.037873644,0.0036651916,-0.08246681,-0.10058340430259705,0.08886916935443878,-1.516321063041687,1002.20996,
2021.05.22 15:07:14,55.0,24.0,35.04,-1.02,-14.94,-1.0845734,1.0151415,9.667787,0.0036651916,0.019547688,-0.05497787,-0.10397163033485413,0.11171714961528778,-1.542699933052063,1002.20996,
2021.05.22 15:07:14,55.0,24.0,35.1,-0.24,-15.12,-0.6584055,0.8523358,10.01734,-0.07696902,0.015882496,0.0421497,-0.08469972759485245,0.0656321793794632,-1.5346121788024902,1002.20996,
2021.05.22 15:07:14,55.0,24.0,35.219997,0.06,-15.66,-0.33997664,0.8523358,9.76116,-0.04886922,-0.06658431,0.1142318,-0.08704568445682526,0.034815456718206406,-1.526761770248413,1002.20996,
2021.05.22 15:07:14,55.0,24.0,34.86,-0.06,-15.9,-0.5530606,0.8834604,9.643845,0.016493361,-0.047036625,0.044593163,-0.09120472520589828,0.05728581175208092,-1.524571180343628,1002.20996,
2021.05.22 15:07:14,55.0,24.0,34.68,0.48,-16.68,-0.7541735,0.92176765,9.828198,0.03481932,-0.01160644,0.018936822,-0.09324198216199875,0.07658559828996658,-1.50263512134552,1002.2141,
2021.05.22 15:07:14,55.0,24.0,34.68,-0.17999999,-16.8,-0.6871359,0.9648633,9.722853,0.03604105,-0.0012217305,0.04886922,-0.09866829961538315,0.0705549418926239,-1.5195821523666382,1002.2141,
2021.05.22 15:07:14,55.0,24.0,34.98,-1.0799999,-16.74,-0.40701428,1.0223241,9.461885,0.03359759,-0.036651913,0.09040806,-0.10753034800291061,0.042989689856767654,-1.5450189113616943,1002.2141,
2021.05.22 15:07:14,55.0,24.0,35.219997,-0.9,-16.8,-0.19632454,0.9816227,9.490616,0.0018325958,-0.025045475,0.09040806,-0.10304249823093414,0.020683225244283676,-1.5447766780853271,1002.2141,
2021.05.22 15:07:15,55.0,24.0,35.219997,-1.14,-16.44,-0.17956513,0.92416185,9.603143,-0.007941248,0.02076942,0.054367006,-0.09592323750257492,0.01869640126824379,-1.5563991069793701,1002.22046,
2021.05.22 15:07:15,55.0,24.0,34.92,-0.96,-16.44,-0.31364042,0.8619126,9.749189,-0.017104227,0.02687807,0.020158553,-0.0881340280175209,0.03215982764959335,-1.5536668300628662,1002.22046,
2021.05.22 15:07:15,55.0,24.0,34.38,-0.12,-16.44,-0.260968,0.82121116,9.878476,-0.01160644,0.02321288,0.017715093,-0.08291185647249222,0.026411697268486023,-1.5320155620574951,1002.22046,
2021.05.22 15:07:15,55.0,24.0,34.559998,0.59999996,-16.32,-0.30406362,0.842759,9.660604,0.018936822,-0.03359759,-0.004886922,-0.08697353303432465,0.03146421164274216,-1.5088971853256226,1002.22046,
2021.05.22 15:07:15,55.0,24.0,34.8,0.9,-16.68,-0.33758244,0.878672,9.583989,0.020158553,-0.03481932,-0.020158553,-0.09136930853128433,0.03520902618765831,-1.4969645738601685,1002.2173,
2021.05.22 15:07:15,55.0,24.0,35.16,0.59999996,-16.8,-0.4189853,0.93852705,9.49301,0.01282817,-0.0421497,-0.028099801,-0.09844960272312164,0.04410756751894951,-1.501136064529419,1002.2173,
2021.05.22 15:07:15,55.0,24.0,35.219997,-0.06,-16.859999,-0.39025488,0.9528923,9.595961,-0.021991149,-0.03176499,-0.009773844,-0.09889569878578186,0.0406462624669075,-1.5202714204788208,1002.2173,
2021.05.22 15:07:15,55.0,24.0,35.579998,-1.02,-16.98,-0.31124622,0.8882488,9.785102,-0.03726278,-0.022602014,0.007941248,-0.09048200398683548,0.03179745376110077,-1.5530980825424194,1002.2173,
2021.05.22 15:07:15,55.0,24.0,35.219997,-1.56,-16.619999,-0.2777274,0.830788,9.876082,-0.029321533,-0.010995574,-0.01038471,-0.08389061689376831,0.028113801032304764,-1.5730842351913452,1002.2163,
2021.05.22 15:07:15,55.0,24.0,34.559998,-1.02,-16.74,-0.41180268,0.8523358,9.7324295,6.1086525E-4,-0.019547688,-0.051923547,-0.08727631717920303,0.042287200689315796,-1.5539718866348267,1002.2163,
2021.05.22 15:07:15,55.0,24.0,34.86,-1.14,-16.38,-0.50038815,0.8571242,9.581595,0.020158553,0.017715093,-0.06047566,-0.0890970230102539,0.05217648670077324,-1.5566097497940063,1002.2163,
2021.05.22 15:07:15,55.0,24.0,34.32,-0.24,-16.38,-0.4237737,0.79008657,9.605537,0.0030543262,0.010995574,-0.05497787,-0.0819890946149826,0.04408905655145645,-1.5343199968338013,1002.2163,
2021.05.22 15:07:15,55.0,24.0,34.2,0.0,-16.5,-0.5530606,0.80445176,9.583989,0.015882496,0.049480084,-0.06658431,-0.08360231667757034,0.05764279514551163,-1.524431586265564,1002.21606,
2021.05.22 15:07:15,55.0,24.0,34.92,-0.35999998,-16.08,-0.5674258,0.82360536,9.622296,0.007941248,0.06414085,-0.089186326,-0.08523796498775482,0.05890168249607086,-1.5359296798706055,1002.21606,
2021.05.22 15:07:15,55.0,24.0,34.38,0.24,-15.78,-0.6607997,0.79008657,9.569624,0.016493361,0.093462385,-0.08857546,-0.08218028396368027,0.0689423531293869,-1.518876552581787,1002.21606,
2021.05.22 15:07:15,55.0,24.0,34.739998,-0.24,-15.42,-0.6536171,0.80924016,9.888053,-0.01038471,0.11056661,-0.08552113,-0.08148117363452911,0.06600567698478699,-1.5351588726043701,1002.21606,
2021.05.22 15:07:15,55.0,24.0,35.219997,-0.48,-15.42,-0.6751649,0.878672,9.61272,-0.005497787,0.09285152,-0.07452556,-0.09093114733695984,0.07012145966291428,-1.537248134613037,1002.21606,
2021.05.22 15:07:15,55.0,24.0,34.92,-0.35999998,-15.36,-0.5793968,0.8858546,9.785102,-0.007330383,0.077579886,-0.049480084,-0.09012782573699951,0.059143081307411194,-1.5352509021759033,1002.21606,
2021.05.22 15:07:15,55.0,24.0,35.219997,-0.48,-15.42,-0.5482722,0.8762778,9.65821,-0.014660766,0.05375614,-0.025045475,-0.09033641964197159,0.05670661851763725,-1.5389927625656128,1002.21606,
2021.05.22 15:07:15,55.0,24.0,35.34,-0.65999997,-15.12,-0.45010993,0.830788,9.900024,-0.01160644,0.043982297,-0.009773844,-0.08363562077283859,0.04543424770236015,-1.549475073814392,1002.21606,
2021.05.22 15:07:15,55.0,24.0,35.16,-0.65999997,-14.639999,-0.49799395,0.79966336,9.739613,-0.0036651916,-0.012217305,0.0018325958,-0.08181408047676086,0.05108628794550896,-1.5509018898010254,1002.2146,
2021.05.22 15:07:15,55.0,24.0,35.28,-0.59999996,-14.94,-0.5626374,0.8499416,9.433155,0.040317107,-0.040317107,-0.015882496,-0.08970032632350922,0.05957408994436264,-1.5438122749328613,1002.2146,
2021.05.22 15:07:15,55.0,24.0,35.16,-0.59999996,-15.179999,-0.62249243,0.81402856,9.464279,0.015271631,-0.06841691,-0.0018325958,-0.0856153815984726,0.06567822396755219,-1.544553279876709,1002.2146,
2021.05.22 15:07:15,55.0,24.0,35.04,-0.24,-15.42,-0.5602432,0.7254431,9.710882,-0.01282817,-0.0720821,0.014660766,-0.0744423195719719,0.05762842670083046,-1.5398415327072144,1002.2146,
2021.05.22 15:07:15,55.0,24.0,35.1,0.12,-15.78,-0.6488287,0.7350199,9.617508,0.010995574,-0.08307768,-0.009773844,-0.07610459625720978,0.06736122071743011,-1.5267608165740967,1002.2136,
2021.05.22 15:07:16,55.0,24.0,35.04,0.29999998,-15.839999,-0.81642276,0.80205756,9.459491,0.022602014,-0.07880162,-0.01282817,-0.0842745378613472,0.08609391748905182,-1.514788031578064,1002.2136,
2021.05.22 15:07:16,55.0,24.0,35.28,0.59999996,-15.719999,-0.7230489,0.80924016,9.449914,0.007941248,-0.07391469,0.019547688,-0.08517847955226898,0.07636502385139465,-1.5073022842407227,1002.2136,
2021.05.22 15:07:16,55.0,24.0,34.86,0.42,-16.14,-0.79008657,0.8379706,9.555259,-0.005497787,-0.043982297,0.02687807,-0.08717752993106842,0.08249837160110474,-1.5089503526687622,1002.2136,
2021.05.22 15:07:16,55.0,24.0,34.86,0.24,-16.5,-0.5793968,0.7781156,9.722853,-0.015882496,-0.018325957,0.059864793,-0.07971853017807007,0.059520844370126724,-1.5200954675674438,1002.20874,
2021.05.22 15:07:16,55.0,24.0,34.559998,0.48,-16.68,-0.5746084,0.8595184,9.646238,0.004276057,-0.029932396,0.047036625,-0.08871287852525711,0.05949782207608223,-1.5071537494659424,1002.20874,
2021.05.22 15:07:16,55.0,24.0,34.559998,0.17999999,-16.859999,-0.40222588,0.81163436,9.813833,6.1086525E-4,0.0061086523,0.06780604,-0.0824463963508606,0.04096267744898796,-1.5210967063903809,1002.20874,
2021.05.22 15:07:16,55.0,24.0,35.04,-0.24,-16.5,-0.48841715,0.8475474,9.835381,0.03970624,-0.026267206,0.04642576,-0.08585568517446518,0.0496184416115284,-1.5321056842803955,1002.20874,
2021.05.22 15:07:16,55.0,24.0,35.16,-0.17999999,-16.02,-0.48123455,0.92655605,9.406818,0.077579886,-0.03848451,0.05375614,-0.09805423766374588,0.05111349746584892,-1.5252537727355957,1002.2129,
2021.05.22 15:07:16,55.0,24.0,35.64,-0.78,-15.42,-0.37588966,0.93613285,9.588778,0.032375857,-0.045814894,0.07819075,-0.09724533557891846,0.0391809344291687,-1.5463716983795166,1002.2129,
2021.05.22 15:07:16,55.0,24.0,35.399998,-0.96,-15.839999,-0.12689269,0.90740246,9.689334,0.009162978,-0.029321533,0.08857546,-0.09336931258440018,0.0130953723564744,-1.5547674894332886,1002.2129,
2021.05.22 15:07:16,55.0,24.0,34.92,-0.53999996,-16.68,-0.24181437,0.90979666,9.787497,0.014049901,-0.023823744,0.034208454,-0.09266052395105362,0.0247014332562685,-1.5393545627593994,1002.2129,
2021.05.22 15:07:16,55.0,24.0,34.92,-0.71999997,-16.56,-0.3878607,0.9600749,9.581595,0.048258353,-0.005497787,-0.014049901,-0.09978539496660233,0.04045766964554787,-1.539462685585022,1002.2173,
2021.05.22 15:07:16,55.0,24.0,34.8,-0.53999996,-17.16,-0.37828386,0.9576807,9.634268,0.030543262,0.007330383,-0.025045475,-0.09900230914354324,0.03924424946308136,-1.532914161682129,1002.2173,
2021.05.22 15:07:16,55.0,24.0,34.86,-0.65999997,-16.44,-0.35434186,0.90979666,9.842564,0.017104227,0.015882496,-0.018936822,-0.0921136662364006,0.03598543256521225,-1.542497158050537,1002.2173,
2021.05.22 15:07:16,55.0,24.0,34.92,-0.65999997,-16.08,-0.48123455,0.89782566,9.543288,0.0421497,0.025045475,-0.03848451,-0.0936848446726799,0.05038381367921829,-1.5411638021469116,1002.2173,
2021.05.22 15:07:16,55.0,24.0,34.559998,-0.35999998,-16.8,-0.46686932,1.0151415,9.088389,0.0720821,-0.02687807,-0.040927973,-0.11109017580747604,0.0513247512280941,-1.5203585624694824,1002.20996,
2021.05.22 15:07:16,55.0,24.0,34.44,-0.17999999,-16.8,-0.35913026,0.93373865,9.651027,-0.02687807,0.018325957,-0.007330383,-0.09638369828462601,0.037194449454545975,-1.5246723890304565,1002.20996,
2021.05.22 15:07:16,55.0,24.0,34.14,0.17999999,-17.1,-0.4381389,1.0534488,9.722853,-0.030543262,0.028099801,-0.023823744,-0.1078181266784668,0.0450323261320591,-1.5054162740707397,1002.20996,
2021.05.22 15:07:16,55.0,24.0,34.2,0.12,-17.22,-0.5650316,1.1348516,9.49301,0.018936822,-0.0061086523,-0.05131268,-0.11877314001321793,0.0594506673514843,-1.4985474348068237,1002.20996,
2021.05.22 15:07:16,55.0,24.0,34.32,0.24,-17.1,-0.44771573,1.0845734,9.713276,-0.0036651916,0.019547688,-0.018325957,-0.11108129471540451,0.04606057330965996,-1.502023458480835,1002.2107,
2021.05.22 15:07:16,55.0,24.0,34.44,-0.17999999,-17.22,-0.40701428,1.0366893,9.773131,0.01160644,0.02443461,0.0036651916,-0.10558940470218658,0.04162219911813736,-1.5178585052490234,1002.2107,
2021.05.22 15:07:16,55.0,24.0,34.86,-0.35999998,-17.4,-0.49559975,1.0654198,9.631873,0.036651913,0.019547688,-0.017715093,-0.11002174764871597,0.0514088049530983,-1.5193421840667725,1002.2107,
2021.05.22 15:07:16,55.0,24.0,34.92,-0.42,-17.22,-0.38307226,1.055843,9.674969,0.016493361,0.010995574,-0.002443461,-0.10861680656671524,0.039573486894369125,-1.524135708808899,1002.2107,
2021.05.22 15:07:16,55.0,24.0,35.34,-0.84,-17.16,-0.33518824,1.0630256,9.698911,0.004276057,0.004886922,-0.005497787,-0.10910221934318542,0.034545622766017914,-1.5372530221939087,1002.20386,
2021.05.22 15:07:16,55.0,24.0,35.579998,-0.65999997,-17.039999,-0.37588966,1.103727,9.548077,0.008552114,0.0018325958,-0.017715093,-0.11499769985675812,0.03934778273105621,-1.5290030241012573,1002.20386,
2021.05.22 15:07:17,55.0,24.0,35.04,-0.24,-16.98,-0.51235914,1.1133038,9.593566,-0.0012217305,-0.0018325958,-0.035430185,-0.11536719650030136,0.05335585027933121,-1.5142762660980225,1002.20386,
2021.05.22 15:07:17,55.0,24.0,35.399998,-0.24,-16.92,-0.37828386,1.0103531,9.653421,-0.0018325958,0.01038471,-0.01160644,-0.10420361906290054,0.039166465401649475,-1.5228914022445679,1002.20386,
2021.05.22 15:07:17,55.0,24.0,35.04,0.29999998,-16.74,-0.44532153,0.9600749,9.7324295,0.009773844,-0.0030543262,-0.028099801,-0.09822675585746765,0.04572456702589989,-1.5096666812896729,1002.1997,
2021.05.22 15:07:17,55.0,24.0,34.739998,0.48,-16.619999,-0.5506664,0.9935937,9.385271,0.03970624,-0.01160644,-0.03726278,-0.10529471188783646,0.05860627815127373,-1.4986820220947266,1002.1997,
2021.05.22 15:07:17,55.0,24.0,35.46,0.0,-16.56,-0.533907,0.9600749,9.428367,-0.002443461,-0.004276057,-0.009162978,-0.10131734609603882,0.056567318737506866,-1.5164488554000854,1002.1997,
2021.05.22 15:07:17,55.0,24.0,34.86,0.29999998,-16.56,-0.49081135,0.89543146,9.536105,-0.030543262,0.004886922,0.015271631,-0.093501515686512,0.051423367112874985,-1.5116807222366333,1002.1997,
2021.05.22 15:07:17,55.0,24.0,35.04,-0.29999998,-16.56,-0.45489833,0.93373865,9.440337,-0.02565634,-0.0067195175,0.0061086523,-0.09847527742385864,0.04814941808581352,-1.5271576642990112,1002.198,
2021.05.22 15:07:17,55.0,24.0,34.739998,-0.65999997,-16.68,-0.5650316,0.9720459,9.603143,-0.03726278,0.01038471,-0.009773844,-0.10070507228374481,0.05877043679356575,-1.5345361232757568,1002.198,
2021.05.22 15:07:17,55.0,24.0,34.559998,-0.29999998,-17.039999,-0.5602432,0.9911995,9.629479,-0.032986723,0.030543262,-0.0067195175,-0.10240066051483154,0.05811449512839317,-1.521728515625,1002.198,
2021.05.22 15:07:17,55.0,24.0,35.219997,-0.71999997,-17.16,-0.6679823,1.0390835,9.78989,-0.03359759,0.032986723,-0.009773844,-0.10549905896186829,0.06812625378370285,-1.5313912630081177,1002.198,
2021.05.22 15:07:17,55.0,24.0,34.92,-0.71999997,-17.039999,-0.5554548,1.0342951,9.720459,-0.02076942,0.034208454,0.016493361,-0.10583373159170151,0.05708078294992447,-1.5327048301696777,1002.1997,
2021.05.22 15:07:17,55.0,24.0,35.52,-0.24,-16.44,-0.62009823,1.0534488,9.598354,-0.0067195175,0.022602014,0.017715093,-0.1090899258852005,0.06451497972011566,-1.5185872316360474,1002.1997,
2021.05.22 15:07:17,55.0,24.0,35.34,-0.42,-16.38,-0.48362875,0.9624691,9.710882,-0.018936822,0.023823744,0.042760566,-0.09866829961538315,0.04976164922118187,-1.5311791896820068,1002.1997,
2021.05.22 15:07:17,55.0,24.0,35.34,-0.12,-16.14,-0.46686932,0.9504981,9.605537,0.0,6.1086525E-4,0.03604105,-0.09851650893688202,0.04856596514582634,-1.5234624147415161,1002.1997,
2021.05.22 15:07:17,55.0,24.0,35.579998,0.0,-16.199999,-0.4357447,0.9624691,9.466674,0.007941248,-0.009162978,0.02321288,-0.10121461004018784,0.04599686712026596,-1.519101619720459,1002.2107,
2021.05.22 15:07:17,55.0,24.0,35.34,-0.17999999,-16.68,-0.46926352,0.89064306,9.627085,-0.015271631,-0.0036651916,0.021991149,-0.09214293956756592,0.04870554059743881,-1.526979684829712,1002.2107,
2021.05.22 15:07:17,55.0,24.0,34.92,-0.24,-16.38,-0.40462008,0.90500826,9.689334,-0.028710667,0.0061086523,0.014660766,-0.09305167943239212,0.041735079139471054,-1.5293924808502197,1002.2107,
2021.05.22 15:07:17,55.0,24.0,34.5,-0.17999999,-16.56,-0.5674258,1.0007763,9.579201,-6.1086525E-4,-0.029932396,-0.008552114,-0.10391540825366974,0.05916605889797211,-1.5186232328414917,1002.2107,
2021.05.22 15:07:17,55.0,24.0,34.62,-0.24,-16.98,-0.557849,1.0271125,9.488221,-0.008552114,-0.009773844,-0.008552114,-0.10764697194099426,0.0587262399494648,-1.5171924829483032,1002.2053,
2021.05.22 15:07:17,55.0,24.0,34.92,-0.24,-16.74,-0.51954174,0.9840169,9.672575,-0.021380283,-0.023823744,0.014049901,-0.10123893618583679,0.053661298006772995,-1.5225605964660645,1002.2053,
2021.05.22 15:07:17,55.0,24.0,35.219997,-0.35999998,-16.5,-0.3184288,0.90740246,9.7084875,-0.028710667,-0.014049901,0.028099801,-0.09314431995153427,0.0327872596681118,-1.5338029861450195,1002.2053,
2021.05.22 15:07:17,55.0,24.0,35.46,-0.59999996,-16.859999,-0.46447513,0.89064306,9.715671,-0.005497787,-0.03176499,0.0067195175,-0.09131157398223877,0.0477704294025898,-1.5392441749572754,1002.2053,
2021.05.22 15:07:17,55.0,24.0,35.219997,-1.14,-16.38,-0.45968673,0.94570965,9.560047,-0.0036651916,-0.01160644,-0.02565634,-0.09848926216363907,0.04804714396595955,-1.5521711111068726,1002.20996,
2021.05.22 15:07:17,55.0,24.0,34.92,-1.14,-16.44,-0.50757074,0.94092125,9.564836,0.0030543262,-0.039095376,-0.014660766,-0.09792057424783707,0.053016602993011475,-1.5516409873962402,1002.20996,
2021.05.22 15:07:17,55.0,24.0,34.8,-0.71999997,-16.68,-0.48602295,0.9744401,9.564836,-0.008552114,0.0036651916,-0.031154128,-0.10139714181423187,0.05076985061168671,-1.536933183670044,1002.20996,
2021.05.22 15:07:18,55.0,24.0,34.68,-0.65999997,-16.32,-0.45729253,0.94092125,9.694122,-0.013439035,-0.02565634,-0.020158553,-0.0966511145234108,0.04713720083236694,-1.53910231590271,1002.20996,
2021.05.22 15:07:18,55.0,24.0,34.68,-0.12,-15.96,-0.48123455,0.92176765,9.742006,-0.009162978,0.017104227,-0.027488936,-0.0942227840423584,0.04935776814818382,-1.5252963304519653,1002.2051,
2021.05.22 15:07:18,55.0,24.0,34.739998,-0.42,-15.839999,-0.5363012,0.9696517,9.696517,0.004886922,-0.01282817,-0.03176499,-0.09951756149530411,0.05525234714150429,-1.5310670137405396,1002.2051,
2021.05.22 15:07:18,55.0,24.0,34.86,-0.9,-15.719999,-0.521936,0.93852705,9.706094,0.0,-0.02076942,-0.007941248,-0.09625672549009323,0.053722310811281204,-1.547461986541748,1002.2051,
2021.05.22 15:07:18,55.0,24.0,34.8,-0.9,-15.839999,-0.38307226,0.93373865,9.694122,0.0067195175,-0.02565634,0.0030543262,-0.0959494411945343,0.03949538245797157,-1.5487747192382812,1002.2051,
2021.05.22 15:07:18,55.0,24.0,35.04,-0.9,-16.56,-0.4357447,0.89064306,9.610326,0.022602014,-0.017715093,-0.017104227,-0.0923173651099205,0.04531027004122734,-1.548169732093811,1002.2051,
2021.05.22 15:07:18,55.0,24.0,35.16,-1.02,-16.8,-0.51714754,0.90261406,9.605537,0.021991149,-0.004276057,-0.025045475,-0.09355826675891876,0.05378655344247818,-1.5495089292526245,1002.2051,
2021.05.22 15:07:18,55.0,24.0,35.28,-0.96,-16.8,-0.51235914,0.8499416,9.634268,0.015271631,0.008552114,-0.018325957,-0.08786934614181519,0.0531308613717556,-1.5509856939315796,1002.2051,
2021.05.22 15:07:18,55.0,24.0,35.46,-1.38,-16.859999,-0.51235914,0.8810662,9.548077,0.017715093,0.0061086523,-0.021991149,-0.0918847993016243,0.053609564900398254,-1.5607999563217163,1002.2051,
2021.05.22 15:07:18,55.0,24.0,35.94,-1.86,-16.56,-0.46208093,0.94331545,9.555259,0.007330383,-0.0012217305,-0.017715093,-0.09828914701938629,0.04832116514444351,-1.5724350214004517,1002.21313,
2021.05.22 15:07:18,55.0,24.0,35.579998,-1.62,-16.44,-0.44771573,0.92176765,9.56723,-0.0018325958,0.007941248,-0.013439035,-0.09594552218914032,0.04676268249750137,-1.5673457384109497,1002.21313,
2021.05.22 15:07:18,55.0,24.0,35.579998,-1.14,-16.5,-0.45250413,0.8810662,9.813833,-0.018325957,0.018936822,-0.01282817,-0.08944341540336609,0.04607617110013962,-1.5569043159484863,1002.21313,
2021.05.22 15:07:18,55.0,24.0,35.579998,-0.65999997,-16.08,-0.47884035,0.90740246,9.665392,0.008552114,6.1086525E-4,-0.021991149,-0.09349323064088821,0.049501270055770874,-1.54183030128479,1002.21313,
2021.05.22 15:07:18,55.0,24.0,34.559998,-0.29999998,-15.78,-0.51714754,0.91458505,9.600749,0.010995574,0.0018325958,-0.021991149,-0.09483858197927475,0.053813327103853226,-1.5301331281661987,1002.2095,
2021.05.22 15:07:18,55.0,24.0,34.8,0.12,-16.14,-0.5243302,0.92895025,9.519346,0.012217305,-0.010995574,-0.015271631,-0.09713119268417358,0.0550248809158802,-1.5156861543655396,1002.2095,
2021.05.22 15:07:18,55.0,24.0,34.68,-0.42,-15.96,-0.48123455,0.92655605,9.598354,-0.008552114,0.01282817,-0.008552114,-0.0961146354675293,0.050095248967409134,-1.533036470413208,1002.2095,
2021.05.22 15:07:18,55.0,24.0,34.68,-0.53999996,-16.02,-0.47644615,0.94092125,9.528923,0.0030543262,-0.009162978,-0.01038471,-0.09830264747142792,0.04995839297771454,-1.5352615118026733,1002.2095,
2021.05.22 15:07:18,55.0,24.0,35.04,-0.35999998,-16.14,-0.4405331,0.8738836,9.720459,-0.017104227,0.017104227,-6.1086525E-4,-0.08956900238990784,0.04528920352458954,-1.5350526571273804,1002.208,
2021.05.22 15:07:18,55.0,24.0,35.16,-0.29999998,-15.299999,-0.3878607,0.8499416,9.765948,-0.022602014,-0.005497787,0.004886922,-0.08674434572458267,0.039694759994745255,-1.537601113319397,1002.208,
2021.05.22 15:07:18,55.0,24.0,35.219997,-0.48,-15.299999,-0.58418524,0.9576807,9.562442,0.0030543262,-0.015271631,-0.035430185,-0.0996328666806221,0.06101580709218979,-1.5341389179229736,1002.208,
2021.05.22 15:07:18,55.0,24.0,35.16,-0.24,-15.36,-0.5530606,0.9792285,9.512163,0.0067195175,-0.01038471,-0.02687807,-0.10241176933050156,0.05807707831263542,-1.525881052017212,1002.208,
2021.05.22 15:07:18,55.0,24.0,35.399998,-0.42,-15.66,-0.61291564,0.9504981,9.557653,-0.009773844,-0.009162978,-0.016493361,-0.09892111271619797,0.06404056400060654,-1.5315101146697998,1002.2002,
2021.05.22 15:07:18,55.0,24.0,35.04,-0.65999997,-16.08,-0.49799395,0.89064306,9.787497,-0.04520403,0.01282817,0.008552114,-0.09063151478767395,0.05083678662776947,-1.542792797088623,1002.2002,
2021.05.22 15:07:18,55.0,24.0,34.739998,0.0,-15.78,-0.50038815,0.90021986,9.672575,-0.020158553,-0.004886922,0.012217305,-0.09267876297235489,0.051686592400074005,-1.5228811502456665,1002.2002,
2021.05.22 15:07:18,55.0,24.0,34.8,0.0,-15.9,-0.50038815,0.8690952,9.715671,-0.019547688,-0.007941248,6.1086525E-4,-0.0890980064868927,0.051457732915878296,-1.5245018005371094,1002.2002,
2021.05.22 15:07:19,55.0,24.0,34.8,0.0,-15.66,-0.47405192,0.89543146,9.629479,-0.008552114,-0.007330383,0.005497787,-0.0926104187965393,0.04918952286243439,-1.5236176252365112,1002.20654,
2021.05.22 15:07:19,55.0,24.0,34.8,0.0,-15.839999,-0.5770026,0.91697925,9.555259,-0.0018325958,-0.009773844,-0.0036651916,-0.09550003707408905,0.060312628746032715,-1.5202888250350952,1002.20654,
2021.05.22 15:07:19,55.0,24.0,35.1,-0.29999998,-16.02,-0.44532153,0.8738836,9.694122,-0.021380283,0.0036651916,0.013439035,-0.08980852365493774,0.04590500146150589,-1.5334982872009277,1002.20654,
2021.05.22 15:07:19,55.0,24.0,34.86,-0.65999997,-15.839999,-0.38067806,0.8523358,9.689334,-0.014660766,-0.002443461,0.017104227,-0.08767325431108475,0.039268165826797485,-1.5460065603256226,1002.20654,
2021.05.22 15:07:19,55.0,24.0,34.86,-0.35999998,-15.78,-0.47405192,0.8283938,9.809045,-0.015882496,0.0061086523,0.007330383,-0.08415435999631882,0.048290468752384186,-1.53828763961792,1002.1992,
2021.05.22 15:07:19,55.0,24.0,34.98,-0.42,-15.719999,-0.38067806,0.80924016,9.648633,0.004886922,-0.015882496,0.004276057,-0.08361038565635681,0.039433639496564865,-1.5414326190948486,1002.1992,
2021.05.22 15:07:19,55.0,24.0,35.16,-0.24,-15.96,-0.51954174,0.8882488,9.579201,0.0061086523,0.0061086523,-0.020158553,-0.09232749789953232,0.05418335273861885,-1.5297648906707764,1002.1992,
2021.05.22 15:07:19,55.0,24.0,35.399998,0.35999998,-16.5,-0.51475334,0.8834604,9.56723,-0.002443461,-0.018325957,-0.004276057,-0.091948963701725,0.05375196784734726,-1.5114984512329102,1002.1992,
2021.05.22 15:07:19,55.0,24.0,35.1,-0.06,-16.68,-0.4405331,0.80684596,9.840169,-0.021991149,0.022602014,0.012217305,-0.08173061907291412,0.04473898187279701,-1.529188871383667,1002.19556,
2021.05.22 15:07:19,55.0,24.0,35.16,0.35999998,-16.26,-0.60812724,0.8619126,9.76116,0.010995574,-0.0067195175,-0.007941248,-0.0879022553563118,0.06222029775381088,-1.5129040479660034,1002.19556,
2021.05.22 15:07:19,55.0,24.0,34.98,0.17999999,-16.26,-0.50278234,0.90021986,9.524135,0.020158553,-0.014049901,0.010995574,-0.09410960972309113,0.052741385996341705,-1.5157274007797241,1002.19556,
2021.05.22 15:07:19,55.0,24.0,34.86,-0.12,-16.08,-0.5482722,0.8451532,9.564836,0.007941248,-0.0012217305,0.022602014,-0.08798788487911224,0.05725899338722229,-1.5275423526763916,1002.19556,
2021.05.22 15:07:19,55.0,24.0,34.739998,-0.24,-15.9,-0.32800564,0.8355764,9.507375,-0.008552114,-0.02443461,0.031154128,-0.08761008828878403,0.034486450254917145,-1.5340532064437866,1002.20483,
2021.05.22 15:07:19,55.0,24.0,34.5,-0.78,-16.02,-0.35194764,0.8379706,9.586384,-0.025045475,-0.005497787,0.01282817,-0.08713255822658539,0.03669680282473564,-1.5493688583374023,1002.20483,
2021.05.22 15:07:19,55.0,24.0,34.26,-0.53999996,-16.02,-0.29209262,0.7733272,9.995792,-0.059864793,0.005497787,-0.008552114,-0.07717865705490112,0.02921324409544468,-1.547903060913086,1002.20483,
2021.05.22 15:07:19,55.0,24.0,34.2,-0.29999998,-16.199999,-0.6560113,0.9552865,9.622296,0.034208454,-0.004886922,-0.07819075,-0.09872649610042572,0.06807083636522293,-1.5246790647506714,1002.20483,
2021.05.22 15:07:19,55.0,24.0,34.44,-0.53999996,-16.199999,-0.79487497,0.9672575,9.639056,0.040317107,-0.017715093,-0.059253927,-0.09967684000730515,0.0822778195142746,-1.5298705101013184,1002.2046,
2021.05.22 15:07:19,55.0,24.0,34.5,-0.17999999,-16.619999,-0.50038815,0.90979666,9.61272,0.05131268,-0.06719518,0.013439035,-0.09423716366291046,0.052007850259542465,-1.5246434211730957,1002.2046,
2021.05.22 15:07:19,55.0,24.0,35.04,-0.42,-16.92,-0.36391866,0.78050977,9.82341,0.040317107,-0.06352998,0.055588737,-0.07923337072134018,0.03702912852168083,-1.5410780906677246,1002.2046,
2021.05.22 15:07:19,55.0,24.0,35.219997,-0.71999997,-16.44,-0.20350714,0.8714894,9.442732,0.047647487,-0.08979719,0.04337143,-0.09201012551784515,0.02154838666319847,-1.5460454225540161,1002.2046,
2021.05.22 15:07:19,55.0,24.0,35.46,-0.48,-16.619999,-0.49320555,0.93613285,9.799467,-0.002443461,-0.03604105,0.015882496,-0.09512026607990265,0.0502873994410038,-1.534144401550293,1002.2075,
2021.05.22 15:07:19,55.0,24.0,35.28,-0.84,-16.44,-0.34237084,0.94570965,9.842564,-0.01038471,-0.06169739,6.1086525E-4,-0.09573207050561905,0.034770701080560684,-1.5462515354156494,1002.2075,
2021.05.22 15:07:19,55.0,24.0,34.92,-0.9,-16.02,-0.31124622,1.0223241,9.414001,0.08735373,-0.030543262,0.013439035,-0.1081136167049408,0.033050015568733215,-1.5429482460021973,1002.2075,
2021.05.22 15:07:19,55.0,24.0,34.8,-0.71999997,-16.199999,-0.48123455,1.1492168,9.727641,-0.0018325958,-0.055588737,-0.026267206,-0.11745192855596542,0.049430541694164276,-1.5301060676574707,1002.2075,
2021.05.22 15:07:19,55.0,24.0,34.5,-0.78,-16.14,-0.33039984,0.9720459,9.77792,0.021991149,0.0067195175,0.029932396,-0.09903063625097275,0.03377754986286163,-1.5432847738265991,1002.2058,
2021.05.22 15:07:20,55.0,24.0,34.92,-0.78,-15.599999,-0.14604631,0.842759,10.201694,0.025045475,-0.07819075,0.055588737,-0.08241415023803711,0.014314910396933556,-1.555005669593811,1002.2058,
2021.05.22 15:07:20,55.0,24.0,34.739998,-0.78,-16.02,0.4261679,1.1563994,8.573636,0.13622294,-0.10751228,0.0580322,-0.1339060664176941,-0.0496659129858017,-1.5388888120651245,1002.2058,
2021.05.22 15:07:20,55.0,24.0,34.44,-0.96,-15.54,-0.581791,0.9528923,9.787497,0.15821409,-0.034208454,0.0012217305,-0.09688231348991394,0.05937240645289421,-1.548600673675537,1002.2058,
2021.05.22 15:07:20,55.0,24.0,34.739998,-0.78,-15.9,-0.21787235,0.8714894,9.703699,-0.092240654,0.027488936,-0.06414085,-0.08954726159572601,0.02244873344898224,-1.5500162839889526,1002.20483,
