Time,X-cord,Y-cord,Mag_x,Mag_y,Mag_z,Acc_x,Acc_y,Acc_z,Gyro_x,Gyro_y,Gyro_z,Orn_x,Orn_y,Orn_z,Pressure,
2021.05.22 14:59:09,13.0,24.0,30.599998,-1.4399999,-33.42,-0.6991069,1.0534488,9.107543,0.20708331,0.014660766,-0.06841691,-0.1148211807012558,0.07661107182502747,-1.4760808944702148,1002.3391,
2021.05.22 14:59:09,13.0,24.0,30.24,-1.56,-33.48,-0.34476504,0.8523358,9.809045,0.06352998,0.056199603,-0.06841691,-0.08662191778421402,0.035133205354213715,-1.5215190649032593,1002.3313,
2021.05.22 14:59:09,13.0,24.0,30.359999,-1.26,-33.12,-0.4357447,0.8355764,9.89763,-0.12461651,-0.089186326,0.004886922,-0.08414105325937271,0.043996747583150864,-1.5141466856002808,1002.3313,
2021.05.22 14:59:09,13.0,24.0,30.179998,-0.9,-32.94,-0.5243302,0.90500826,9.507375,0.01282817,-0.017715093,-0.05009095,-0.09476102888584137,0.05509402975440025,-1.4871891736984253,1002.3313,
2021.05.22 14:59:09,13.0,24.0,30.06,-0.71999997,-33.0,-0.60573304,0.8475474,9.727641,0.100792766,0.019547688,-0.05375614,-0.08674110472202301,0.06218896806240082,-1.4887691736221313,1002.3313,
2021.05.22 14:59:09,13.0,24.0,30.06,-0.53999996,-33.12,-0.62967503,0.8643068,9.821015,0.020158553,0.022602014,-0.050701816,-0.08760075271129608,0.06402742862701416,-1.4805792570114136,1002.3364,
2021.05.22 14:59:09,13.0,24.0,30.06,-0.42,-32.7,-0.79966336,0.9600749,9.52174,0.01282817,0.013439035,-0.059864793,-0.10013998299837112,0.08378628641366959,-1.4577072858810425,1002.3364,
2021.05.22 14:59:09,13.0,24.0,30.42,-0.59999996,-33.0,-0.7445967,0.90740246,9.478644,0.06963864,0.01038471,-0.065973446,-0.09514904767274857,0.07839420437812805,-1.4718279838562012,1002.3364,
2021.05.22 14:59:09,13.0,24.0,30.179998,-0.71999997,-33.42,-0.7757214,0.89064306,9.531317,0.051923547,0.03604105,-0.027488936,-0.09286801517009735,0.08120760321617126,-1.4761168956756592,1002.3364,
2021.05.22 14:59:09,13.0,24.0,30.06,-0.84,-33.66,-0.830788,0.8714894,9.457097,0.026267206,0.01160644,-0.01038471,-0.09154180437326431,0.08762316405773163,-1.47959566116333,1002.3308,
2021.05.22 14:59:09,13.0,24.0,30.0,-1.14,-33.54,-0.7685388,0.8451532,9.545682,-0.017104227,-0.004886922,0.021991149,-0.08802413195371628,0.08033838123083115,-1.49687922000885,1002.3308,
2021.05.22 14:59:09,13.0,24.0,30.24,-1.26,-33.54,-0.8834604,0.8882488,9.734824,-0.022602014,0.022602014,0.02443461,-0.09062212705612183,0.09050466120243073,-1.4965226650238037,1002.3308,
2021.05.22 14:59:09,13.0,24.0,30.66,-1.1999999,-33.42,-0.770933,0.9552865,9.727641,0.004276057,-0.014049901,0.04886922,-0.09758539497852325,0.07908648997545242,-1.489053726196289,1002.3308,
2021.05.22 14:59:09,13.0,24.0,31.08,-1.02,-33.12,-0.7158663,0.93852705,9.346964,0.03359759,-0.0061086523,0.059253927,-0.09978412836790085,0.07643888890743256,-1.482786774635315,1002.3296,
2021.05.22 14:59:09,13.0,24.0,30.96,-0.84,-33.66,-0.7182605,0.94331545,9.303867,-0.004886922,0.016493361,0.05375614,-0.10074657201766968,0.07704739272594452,-1.4728240966796875,1002.3296,
2021.05.22 14:59:09,13.0,24.0,30.72,-0.71999997,-33.719997,-0.5602432,0.91219085,9.490616,-0.040927973,0.025045475,0.07086037,-0.09565518796443939,0.058962855488061905,-1.4779257774353027,1002.3296,
2021.05.22 14:59:09,13.0,24.0,30.72,-1.26,-33.48,-0.4237737,0.8834604,9.816227,-0.058643065,0.040317107,0.06719518,-0.08967509865760803,0.04314394295215607,-1.5073126554489136,1002.3296,
2021.05.22 14:59:09,13.0,24.0,30.72,-1.68,-33.18,-0.45729253,0.81163436,9.636662,-0.004886922,0.028710667,0.010995574,-0.08393128961324692,0.04741784557700157,-1.5286942720413208,1002.33325,
2021.05.22 14:59:09,13.0,24.0,30.72,-1.62,-33.0,-0.557849,0.9648633,9.552865,0.03359759,0.0067195175,-0.017715093,-0.10049108415842056,0.0583297461271286,-1.505732536315918,1002.33325,
2021.05.22 14:59:09,13.0,24.0,30.359999,-1.8,-32.94,-0.39264908,1.0079589,9.56723,0.03970624,-0.058643065,0.034208454,-0.10488048195838928,0.04101802408695221,-1.5092617273330688,1002.33325,
2021.05.22 14:59:09,13.0,24.0,30.42,-0.9,-33.18,-0.4285621,0.9935937,9.43076,0.037873644,-0.040927973,0.03481932,-0.10486201196908951,0.04541176185011864,-1.4769375324249268,1002.33325,
2021.05.22 14:59:09,13.0,24.0,30.0,-0.78,-33.84,-0.22505496,0.8619126,9.713276,-0.0030543262,-0.058643065,0.08735373,-0.08848009258508682,0.023165686056017876,-1.4931007623672485,1002.33594,
2021.05.22 14:59:09,13.0,24.0,29.82,-0.9,-34.14,-0.18674773,0.7445967,9.847352,-0.022602014,-0.045814894,0.07452556,-0.07545676827430725,0.018961984664201736,-1.5119500160217285,1002.33594,
2021.05.22 14:59:10,13.0,24.0,30.24,-0.84,-34.44,-0.24899697,0.62728083,10.134656,-0.04337143,-0.032375857,0.048258353,-0.06179717555642128,0.024563919752836227,-1.525437831878662,1002.33594,
2021.05.22 14:59:10,13.0,24.0,30.179998,-1.38,-34.26,-0.31603462,0.7278373,9.880871,-0.01160644,-0.051923547,-0.007330383,-0.07349101454019547,0.03197358921170235,-1.5292364358901978,1002.33594,
2021.05.22 14:59:10,13.0,24.0,30.599998,-1.4399999,-33.899998,-0.59855044,0.94331545,9.7324295,0.03970624,-0.03604105,-0.057421334,-0.09644206613302231,0.06142325699329376,-1.5004405975341797,1002.3296,
2021.05.22 14:59:10,13.0,24.0,30.96,-1.74,-33.54,-0.7158663,1.0654198,9.334992,0.069027774,0.015271631,-0.07696902,-0.11331027001142502,0.07653653621673584,-1.4890137910842896,1002.3296,
2021.05.22 14:59:10,13.0,24.0,31.08,-1.4399999,-33.3,-0.5674258,0.9720459,9.634268,0.020158553,0.016493361,-0.012217305,-0.10038156062364578,0.05882865935564041,-1.4993046522140503,1002.3296,
2021.05.22 14:59:10,13.0,24.0,30.779999,-1.38,-33.66,-0.3878607,0.8762778,9.773131,-0.031154128,0.0061086523,0.03359759,-0.08935285359621048,0.03966561332345009,-1.5118701457977295,1002.3296,
2021.05.22 14:59:10,13.0,24.0,30.48,-0.78,-33.899998,-0.15322891,0.9768343,9.375694,0.0,-0.054367006,0.023823744,-0.10379961878061295,0.01634175144135952,-1.4778945446014404,1002.3301,
2021.05.22 14:59:10,13.0,24.0,30.359999,-0.53999996,-34.02,-0.48841715,1.1228806,9.354146,0.064751714,-0.053145275,-0.050701816,-0.11930831521749496,0.05216660350561142,-1.442031979560852,1002.3301,
2021.05.22 14:59:10,13.0,24.0,30.179998,-0.84,-33.96,-0.44532153,1.1755531,9.184157,0.04153884,-0.028099801,-0.064751714,-0.12715791165828705,0.04845006763935089,-1.4432897567749023,1002.3301,
2021.05.22 14:59:10,13.0,24.0,30.3,-0.84,-33.78,-0.7589619,1.1492168,9.330204,0.04337143,0.005497787,-0.03726278,-0.12215492874383926,0.08116591721773148,-1.4415857791900635,1002.3301,
2021.05.22 14:59:10,13.0,24.0,30.48,-1.1999999,-33.54,-0.5506664,0.93852705,9.679757,-0.027488936,0.047647487,0.036651913,-0.09650052338838577,0.056827202439308167,-1.4938684701919556,1002.3286,
2021.05.22 14:59:10,13.0,24.0,30.48,-1.1999999,-33.719997,-0.20111294,0.91219085,9.854534,-0.10629055,-0.03359759,0.11789699,-0.0922834575176239,0.020405329763889313,-1.5047816038131714,1002.3286,
2021.05.22 14:59:10,13.0,24.0,30.359999,-0.78,-33.96,-0.06703765,0.9624691,9.442732,-0.03481932,-0.08857546,0.05497787,-0.1015736386179924,0.007099272217601538,-1.4817408323287964,1002.3286,
2021.05.22 14:59:10,13.0,24.0,30.359999,-0.59999996,-34.02,-0.49559975,0.9911995,9.483433,-0.018325957,-0.010995574,-0.02565634,-0.1040000468492508,0.05221203342080116,-1.4627991914749146,1002.3286,
2021.05.22 14:59:10,13.0,24.0,30.24,-0.71999997,-33.96,-0.59855044,0.9792285,9.785102,-0.04642576,0.036651913,-0.03970624,-0.09955647587776184,0.061093445867300034,-1.470242977142334,1002.3308,
2021.05.22 14:59:10,13.0,24.0,30.179998,-0.71999997,-33.6,-0.5722142,1.0271125,9.773131,-0.052534413,0.019547688,-0.017104227,-0.10453343391418457,0.05848295986652374,-1.4658054113388062,1002.3308,
2021.05.22 14:59:10,13.0,24.0,30.539999,-1.02,-33.78,-0.39504328,1.0941502,9.753978,-0.06169739,-0.005497787,0.002443461,-0.11161702871322632,0.04047860950231552,-1.4721901416778564,1002.3308,
2021.05.22 14:59:10,13.0,24.0,30.3,-1.38,-33.66,-0.46208093,1.0390835,9.713276,-0.03604105,-0.009773844,-6.1086525E-4,-0.10645082592964172,0.04753626137971878,-1.4888932704925537,1002.3308,
2021.05.22 14:59:10,13.0,24.0,30.3,-1.26,-33.78,-0.5530606,0.94331545,9.849746,-0.02443461,0.028099801,-0.015271631,-0.09533008188009262,0.0560908317565918,-1.4962579011917114,1002.3301,
2021.05.22 14:59:10,13.0,24.0,30.599998,-1.26,-33.96,-0.5315128,0.8762778,9.631873,0.01038471,0.019547688,-0.002443461,-0.09059005230665207,0.055126793682575226,-1.502385139465332,1002.3301,
2021.05.22 14:59:10,13.0,24.0,30.06,-1.0799999,-33.78,-0.60573304,0.8595184,9.725247,0.028710667,-6.1086525E-4,-0.004886922,-0.0879814624786377,0.062204234302043915,-1.4974275827407837,1002.3301,
2021.05.22 14:59:10,13.0,24.0,30.539999,-0.71999997,-33.66,-0.4357447,0.8858546,9.387665,0.032375857,0.0030543262,0.015882496,-0.09398447722196579,0.046383440494537354,-1.4821913242340088,1002.3301,
2021.05.22 14:59:10,13.0,24.0,30.599998,-0.65999997,-33.719997,-0.44771573,0.9648633,9.459491,0.032986723,-0.026267206,0.022602014,-0.10153508186340332,0.0472944974899292,-1.4708906412124634,1002.32056,
2021.05.22 14:59:10,13.0,24.0,30.539999,-1.14,-33.6,-0.31603462,0.90979666,9.639056,-0.005497787,-0.009162978,0.031154128,-0.09405744820833206,0.032775141298770905,-1.4991034269332886,1002.32056,
2021.05.22 14:59:10,13.0,24.0,31.019999,-1.8,-33.18,-0.2825158,0.93373865,9.696517,-0.026267206,0.004886922,0.02565634,-0.09595981985330582,0.029127560555934906,-1.521816611289978,1002.32056,
2021.05.22 14:59:11,13.0,24.0,30.119999,-1.92,-33.54,-0.45729253,0.93613285,9.813833,-0.0061086523,0.0030543262,-0.004276057,-0.09499890357255936,0.0465630479156971,-1.521769642829895,1002.32056,
2021.05.22 14:59:11,13.0,24.0,29.88,-2.04,-33.36,-0.45489833,0.9720459,9.911995,-0.023823744,0.01160644,-0.026267206,-0.09765292704105377,0.045861538499593735,-1.5230774879455566,1002.3237,
2021.05.22 14:59:11,13.0,24.0,29.939999,-1.38,-33.239998,-0.6751649,1.0845734,9.497798,0.016493361,-0.0030543262,-0.039095376,-0.11341585218906403,0.07096708565950394,-1.4757816791534424,1002.3237,
2021.05.22 14:59:11,13.0,24.0,29.519999,-0.96,-33.48,-0.61291564,1.0199299,9.356541,0.0580322,-0.032375857,-0.050701816,-0.108348049223423,0.06541319191455841,-1.4660431146621704,1002.3237,
2021.05.22 14:59:11,13.0,24.0,30.0,-1.02,-33.48,-0.46208093,0.8523358,9.509769,0.04886922,-0.010995574,0.007941248,-0.0892837718129158,0.04855193942785263,-1.4969844818115234,1002.3237,
2021.05.22 14:59:11,13.0,24.0,29.64,-0.84,-33.059998,-0.4189853,0.79248077,9.466674,0.031154128,0.009162978,0.035430185,-0.08343666046857834,0.04423011094331741,-1.4989938735961914,1002.32544,
2021.05.22 14:59:11,13.0,24.0,29.4,-1.0799999,-33.54,-0.36631286,0.79966336,9.428367,0.042760566,-0.015271631,0.02443461,-0.08454864472150803,0.03883267939090729,-1.5049806833267212,1002.32544,
2021.05.22 14:59:11,13.0,24.0,29.4,-1.0799999,-33.54,-0.33518824,0.8882488,9.299079,0.014049901,-0.015882496,0.026267206,-0.09516971558332443,0.036029715090990067,-1.4924896955490112,1002.32544,
2021.05.22 14:59:11,13.0,24.0,29.519999,-1.0799999,-33.42,-0.46447513,0.9744401,9.296685,-0.0030543262,-0.019547688,0.002443461,-0.10430537164211273,0.04991986230015755,-1.4792174100875854,1002.32544,
2021.05.22 14:59:11,13.0,24.0,29.88,-1.26,-33.719997,-0.4261679,1.0055647,9.586384,-0.037873644,-0.005497787,-0.01282817,-0.10441052913665771,0.044426292181015015,-1.4864895343780518,1002.3164,
2021.05.22 14:59:11,13.0,24.0,30.24,-1.1999999,-33.48,-0.38307226,0.9864111,9.856929,-0.07941248,0.018936822,-0.0012217305,-0.0996660515666008,0.03884369879961014,-1.4930893182754517,1002.3164,
2021.05.22 14:59:11,13.0,24.0,30.119999,-1.0799999,-33.66,-0.34955344,0.9888053,9.995792,-0.08307768,0.01038471,-0.007330383,-0.09854152053594589,0.03495581075549126,-1.4901314973831177,1002.3164,
2021.05.22 14:59:11,13.0,24.0,30.24,-0.78,-33.96,-0.49320555,1.0965444,9.720459,-0.057421334,0.0018325958,-0.026267206,-0.1121898740530014,0.05069544166326523,-1.4591305255889893,1002.3164,
2021.05.22 14:59:11,13.0,24.0,30.359999,-0.48,-34.2,-0.58657944,1.1061212,9.634268,0.007941248,-0.0036651916,-0.06536258,-0.11410116404294968,0.060809627175331116,-1.4432471990585327,1002.3218,
2021.05.22 14:59:11,13.0,24.0,30.119999,-0.12,-34.26,-0.51714754,0.9528923,9.80665,-0.0012217305,0.01160644,-0.022602014,-0.0967303216457367,0.05268556997179985,-1.4532822370529175,1002.3218,
2021.05.22 14:59:11,13.0,24.0,30.24,-0.12,-34.38,-0.47405192,0.8762778,9.718064,0.0018325958,0.015271631,0.0012217305,-0.08982057869434357,0.04874185100197792,-1.4628069400787354,1002.3218,
2021.05.22 14:59:11,13.0,24.0,30.0,-0.12,-33.78,-0.47884035,0.8283938,9.607931,0.03359759,-0.02565634,-0.0018325958,-0.08590099960565567,0.049796830862760544,-1.4685027599334717,1002.3218,
2021.05.22 14:59:11,13.0,24.0,29.82,-0.24,-34.02,-0.39264908,0.8475474,9.445126,0.021380283,-0.027488936,0.01160644,-0.08941732347011566,0.04154768958687782,-1.468730092048645,1002.32495,
2021.05.22 14:59:11,13.0,24.0,29.4,-0.71999997,-34.44,-0.50757074,0.90261406,9.28232,0.025045475,-0.035430185,-0.002443461,-0.09679167717695236,0.05462705343961716,-1.4706135988235474,1002.32495,
2021.05.22 14:59:11,13.0,24.0,29.88,-1.02,-34.32,-0.521936,0.8595184,9.495404,0.009162978,-0.0036651916,-0.010995574,-0.09013805538415909,0.054911963641643524,-1.4916648864746094,1002.32495,
2021.05.22 14:59:11,13.0,24.0,29.939999,-1.26,-34.92,-0.30885202,0.82360536,9.64145,-0.03604105,0.015271631,0.017104227,-0.08517304062843323,0.03202282264828682,-1.5085563659667969,1002.32495,
2021.05.22 14:59:11,13.0,24.0,29.82,-1.5,-34.559998,-0.48841715,0.89543146,9.701305,-0.03359759,-0.0067195175,0.010995574,-0.0919235572218895,0.050303034484386444,-1.5062615871429443,1002.3242,
2021.05.22 14:59:11,13.0,24.0,30.119999,-1.14,-34.14,-0.521936,0.89782566,9.720459,-0.01282817,-0.0018325958,-0.010995574,-0.09197146445512772,0.05364307016134262,-1.495033621788025,1002.3242,
2021.05.22 14:59:11,13.0,24.0,29.82,-0.96,-33.96,-0.50757074,0.93373865,9.64145,-0.023823744,-0.004886922,0.0030543262,-0.09641251713037491,0.052596092224121094,-1.4831455945968628,1002.3242,
2021.05.22 14:59:11,13.0,24.0,29.939999,-1.1999999,-33.66,-0.5315128,0.9672575,9.504981,-0.004886922,-0.014660766,0.012217305,-0.10125700384378433,0.0558612197637558,-1.486315131187439,1002.3242,
2021.05.22 14:59:12,13.0,24.0,29.939999,-1.1999999,-33.239998,-0.3878607,0.92176765,9.725247,-0.01038471,-0.0061086523,0.017715093,-0.09442397952079773,0.03986070677638054,-1.4992424249649048,1002.3196,
2021.05.22 14:59:12,13.0,24.0,29.64,-1.1999999,-33.3,-0.30885202,0.85473,9.56723,-0.029321533,0.009162978,0.04153884,-0.08905663341283798,0.03227107226848602,-1.5060906410217285,1002.3196,
2021.05.22 14:59:12,13.0,24.0,29.58,-1.14,-32.94,-0.48123455,0.8619126,9.701305,-0.01160644,6.1086525E-4,0.009773844,-0.08850409835577011,0.049564506858587265,-1.5027600526809692,1002.3196,
2021.05.22 14:59:12,13.0,24.0,29.58,-1.14,-32.7,-0.45250413,0.8643068,9.610326,-0.019547688,0.02565634,-0.0012217305,-0.08959519118070602,0.04705045372247696,-1.5026510953903198,1002.3196,
2021.05.22 14:59:12,13.0,24.0,30.06,-0.96,-33.12,-0.545878,0.89782566,9.569624,-0.013439035,0.013439035,0.002443461,-0.09339559823274612,0.05698103830218315,-1.4896384477615356,1002.32983,
2021.05.22 14:59:12,13.0,24.0,30.72,-0.78,-32.82,-0.49081135,0.8690952,9.509769,-0.019547688,0.007330383,0.0036651916,-0.09101608395576477,0.05156552791595459,-1.4900339841842651,1002.32983,
2021.05.22 14:59:12,13.0,24.0,31.019999,-0.71999997,-33.36,-0.34476504,0.7781156,9.825804,-0.02565634,0.017715093,0.03359759,-0.07897771149873734,0.035073328763246536,-1.5039056539535522,1002.32983,
2021.05.22 14:59:12,13.0,24.0,31.199999,-0.53999996,-33.66,-0.4189853,0.7733272,9.52174,-0.043982297,0.021380283,0.04153884,-0.08096113055944443,0.043974652886390686,-1.493743896484375,1002.32983,
2021.05.22 14:59:12,13.0,24.0,30.66,-0.42,-33.719997,-0.4381389,0.842759,9.514558,0.0030543262,-0.0036651916,0.01282817,-0.08825214207172394,0.04601680859923363,-1.479062557220459,1002.3301,
2021.05.22 14:59:12,13.0,24.0,30.72,-1.14,-33.66,-0.3878607,0.81881696,9.636662,-0.022602014,6.1086525E-4,0.02321288,-0.08469709753990173,0.040226735174655914,-1.5090582370758057,1002.3301,
2021.05.22 14:59:12,13.0,24.0,30.9,-1.74,-33.3,-0.44532153,0.842759,9.787497,-0.029932396,0.018325957,0.029321533,-0.0858054831624031,0.04546766355633736,-1.528659701347351,1002.3301,
2021.05.22 14:59:12,13.0,24.0,31.019999,-1.56,-33.3,-0.39983168,0.82360536,9.878476,-0.02321288,0.014660766,0.021991149,-0.08311360329389572,0.040452953428030014,-1.5265803337097168,1002.3301,
2021.05.22 14:59:12,13.0,24.0,31.619999,-2.22,-32.94,-0.4405331,0.8379706,9.7803135,-0.010995574,0.0067195175,0.027488936,-0.08538442850112915,0.04501241818070412,-1.5470269918441772,1002.3313,
2021.05.22 14:59:12,13.0,24.0,31.38,-1.86,-33.059998,-0.45010993,0.81642276,9.524135,0.018325957,-0.022602014,0.010995574,-0.08541754633188248,0.04722478985786438,-1.534199833869934,1002.3313,
2021.05.22 14:59:12,13.0,24.0,30.96,-0.96,-33.36,-0.4405331,0.78290397,9.605537,0.035430185,-0.02076942,0.004886922,-0.0812406912446022,0.045830294489860535,-1.5075238943099976,1002.3313,
2021.05.22 14:59:12,13.0,24.0,31.08,-1.0799999,-33.12,-0.47165772,0.7398083,9.495404,0.035430185,0.0,-0.0018325958,-0.07765980809926987,0.04963141679763794,-1.5161128044128418,1002.3313,
2021.05.22 14:59:12,13.0,24.0,31.14,-0.35999998,-33.059998,-0.557849,0.7517793,9.603143,0.035430185,-0.010995574,-0.004276057,-0.07799442857503891,0.058025047183036804,-1.4902946949005127,1002.3264,
2021.05.22 14:59:12,13.0,24.0,31.14,-0.65999997,-33.36,-0.39264908,0.7038953,9.627085,0.021991149,-0.014049901,0.018325957,-0.07292584329843521,0.04076328128576279,-1.5082709789276123,1002.3264,
2021.05.22 14:59:12,13.0,24.0,30.779999,-1.3199999,-33.239998,-0.40940848,0.7637503,9.595961,0.017104227,-0.032375857,0.021991149,-0.0793514996767044,0.042638812214136124,-1.5224063396453857,1002.3264,
2021.05.22 14:59:12,13.0,24.0,30.359999,-1.5,-33.48,-0.4405331,0.79487497,9.6845455,0.010995574,-0.029932396,0.014049901,-0.08180886507034302,0.04545691981911659,-1.523938536643982,1002.3264,
2021.05.22 14:59:12,13.0,24.0,30.119999,-1.86,-33.54,-0.5291186,0.85473,9.615114,0.012217305,-0.017715093,0.0012217305,-0.08852812647819519,0.05497443303465843,-1.5263900756835938,1002.31396,
2021.05.22 14:59:12,13.0,24.0,29.699999,-1.5,-33.48,-0.49320555,0.89782566,9.722853,0.002443461,-0.019547688,0.0,-0.09196309000253677,0.05068298056721687,-1.509542465209961,1002.31396,
2021.05.22 14:59:12,13.0,24.0,30.0,-1.3199999,-33.42,-0.5363012,0.9744401,9.785102,0.008552114,-0.01160644,0.009773844,-0.09910903126001358,0.054753150790929794,-1.4944758415222168,1002.31396,
2021.05.22 14:59:12,13.0,24.0,30.119999,-1.02,-33.42,-0.3854665,0.9528923,9.799467,0.01160644,-0.004886922,0.021991149,-0.09685999900102615,0.03931518271565437,-1.4900646209716797,1002.31396,
2021.05.22 14:59:12,13.0,24.0,29.64,-1.3199999,-33.719997,-0.37349546,0.8619126,9.991004,0.015882496,-0.010995574,0.03359759,-0.08599603176116943,0.03736577555537224,-1.5118311643600464,1002.3142,
2021.05.22 14:59:13,13.0,24.0,30.06,-1.68,-33.36,-0.30166942,0.8523358,9.557653,0.037873644,0.0018325958,0.02321288,-0.08889903873205185,0.03155265003442764,-1.5235395431518555,1002.3142,
2021.05.22 14:59:13,13.0,24.0,29.939999,-1.68,-33.48,-0.4261679,0.8619126,9.346964,0.07574729,-0.028099801,-0.0061086523,-0.09185817092657089,0.045562706887722015,-1.5172935724258423,1002.3142,
2021.05.22 14:59:13,13.0,24.0,29.58,-2.46,-33.42,-0.33518824,0.78529817,9.337387,0.0580322,0.0018325958,-0.005497787,-0.08385135233402252,0.035882025957107544,-1.555469036102295,1002.3142,
2021.05.22 14:59:13,13.0,24.0,29.519999,-2.3999999,-33.54,-0.31124622,0.7302315,9.43076,0.014660766,0.012217305,0.007941248,-0.07723474502563477,0.03299132362008095,-1.5613325834274292,1002.32764,
2021.05.22 14:59:13,13.0,24.0,29.279999,-1.9799999,-33.899998,-0.2896984,0.7302315,9.528923,-0.014049901,0.018325957,0.002443461,-0.07644849270582199,0.03039264678955078,-1.546661138534546,1002.32764,
2021.05.22 14:59:13,13.0,24.0,29.4,-1.9799999,-34.02,-0.23942018,0.7422025,9.682152,-0.050701816,0.021380283,-0.014660766,-0.07648386061191559,0.024722954258322716,-1.5469839572906494,1002.32764,
2021.05.22 14:59:13,13.0,24.0,29.46,-1.1999999,-34.2,-0.36391866,0.89303726,9.43076,-0.08368854,-0.007941248,-0.07574729,-0.09434276074171066,0.038569338619709015,-1.495132327079773,1002.32764,
2021.05.22 14:59:13,13.0,24.0,29.76,-0.96,-33.84,-0.6679823,0.8643068,9.998186,-0.042760566,0.04337143,-0.065973446,-0.08604112267494202,0.06671120226383209,-1.4938435554504395,1002.334,
2021.05.22 14:59:13,13.0,24.0,29.76,-0.53999996,-33.54,-0.7158663,1.0079589,9.727641,-0.09896017,0.047036625,-0.09407325,-0.102973073720932,0.07345853000879288,-1.4564586877822876,1002.334,
2021.05.22 14:59:13,13.0,24.0,29.699999,-0.42,-33.42,-0.6919243,0.93613285,9.677363,-0.032986723,0.032375857,-0.087964594,-0.0961902067065239,0.07137778401374817,-1.4615845680236816,1002.334,
2021.05.22 14:59:13,13.0,24.0,29.88,-0.29999998,-33.6,-0.45010993,0.8283938,10.089166,-0.0421497,0.010995574,-0.010995574,-0.08184245973825455,0.04458363354206085,-1.4809601306915283,1002.334,
2021.05.22 14:59:13,13.0,24.0,29.939999,-0.24,-33.84,-0.82121116,0.91219085,9.720459,-0.037873644,0.025045475,0.004886922,-0.09323813021183014,0.08428262174129486,-1.455134391784668,1002.33057,
2021.05.22 14:59:13,13.0,24.0,29.939999,-0.84,-33.96,-0.6536171,0.82121116,9.770737,0.045814894,-6.1086525E-4,-0.022602014,-0.08366484940052032,0.06679585576057434,-1.49265718460083,1002.33057,
2021.05.22 14:59:13,13.0,24.0,30.179998,-0.48,-34.2,-0.46208093,0.79487497,9.361329,0.019547688,-0.010995574,0.057421334,-0.08460477739572525,0.049320582300424576,-1.4819856882095337,1002.33057,
2021.05.22 14:59:13,13.0,24.0,30.3,-1.14,-33.6,-0.37349546,0.79008657,9.308656,0.04642576,-0.055588737,0.08002335,-0.0846058577299118,0.04010194540023804,-1.508522868156433,1002.33057,
2021.05.22 14:59:13,13.0,24.0,30.24,-1.26,-33.96,-0.2633622,0.6847417,9.528923,0.017715093,-0.069027774,0.08552113,-0.07170869410037994,0.027631158009171486,-1.5286465883255005,1002.32886,
2021.05.22 14:59:13,13.0,24.0,30.42,-1.1999999,-33.96,-0.40940848,0.6727707,9.682152,-0.025045475,0.0061086523,0.06169739,-0.06931240111589432,0.04225969314575195,-1.5279415845870972,1002.32886,
2021.05.22 14:59:13,13.0,24.0,30.48,-1.86,-33.6,-0.39743748,0.8499416,9.464279,-0.010995574,-0.034208454,0.028710667,-0.0894865095615387,0.04196876659989357,-1.527377724647522,1002.32886,
2021.05.22 14:59:13,13.0,24.0,30.539999,-1.74,-34.079998,-0.32800564,0.8403648,9.7563715,-0.04337143,-0.022602014,0.03726278,-0.08587462455034256,0.03360697627067566,-1.5273964405059814,1002.32886,
2021.05.22 14:59:13,13.0,24.0,30.599998,-1.3199999,-33.84,-0.19153613,0.830788,9.809045,-0.064751714,0.0036651916,0.034208454,-0.08447843790054321,0.019524000585079193,-1.5177310705184937,1002.3313,
2021.05.22 14:59:13,13.0,24.0,30.179998,-1.38,-34.079998,-0.23223756,0.80445176,9.880871,-0.045814894,-0.026267206,-0.002443461,-0.0812135636806488,0.02349942922592163,-1.5216025114059448,1002.3313,
2021.05.22 14:59:13,13.0,24.0,29.699999,-1.3199999,-33.719997,-0.581791,0.9528923,9.351752,-0.01160644,0.0061086523,-0.06658431,-0.10134947299957275,0.06213190034031868,-1.4882793426513672,1002.3313,
2021.05.22 14:59:13,13.0,24.0,28.859999,-1.02,-33.719997,-0.7493851,0.9911995,9.3661175,0.032375857,-0.007330383,-0.10445796,-0.10510236769914627,0.07984013855457306,-1.4656070470809937,1002.3313,
2021.05.22 14:59:13,13.0,24.0,28.859999,-1.68,-33.36,-0.37588966,0.8331822,9.583989,-0.02687807,0.02687807,-0.016493361,-0.08665049821138382,0.039200492203235626,-1.5232843160629272,1002.324,
2021.05.22 14:59:13,13.0,24.0,29.22,-1.5,-33.059998,-0.33518824,0.78769237,9.751583,-0.050701816,0.017104227,0.03359759,-0.08055347949266434,0.034359171986579895,-1.5264928340911865,1002.324,
2021.05.22 14:59:14,13.0,24.0,29.4,-1.1999999,-33.719997,-0.2825158,0.7326257,9.89763,-0.05009095,-0.02321288,0.017715093,-0.07385560125112534,0.028536036610603333,-1.5232592821121216,1002.324,
2021.05.22 14:59:14,13.0,24.0,30.3,-1.5,-33.66,-0.17717093,0.7374141,9.725247,-0.004276057,-0.02076942,6.1086525E-4,-0.07566739618778229,0.018215611577033997,-1.5340858697891235,1002.324,
2021.05.22 14:59:14,13.0,24.0,30.06,-0.84,-34.2,-0.2777274,0.78050977,9.425972,0.01282817,-0.03848451,-0.047036625,-0.08258002251386642,0.02945553883910179,-1.5001252889633179,1002.33325,
2021.05.22 14:59:14,13.0,24.0,29.699999,-0.65999997,-34.38,-0.4333505,0.79008657,9.409213,0.01282817,-0.014049901,-0.076358154,-0.08368465304374695,0.04602345451712608,-1.4881277084350586,1002.33325,
2021.05.22 14:59:14,13.0,24.0,29.58,-1.02,-34.02,-0.4333505,0.7134721,9.639056,-0.02687807,0.023823744,-0.064751714,-0.07380986213684082,0.04492752254009247,-1.5142251253128052,1002.33325,
2021.05.22 14:59:14,13.0,24.0,29.4,-0.53999996,-34.079998,-0.4381389,0.6775591,9.861717,-0.03604105,0.007330383,-0.0580322,-0.06853079795837402,0.04439906030893326,-1.5033420324325562,1002.33325,
2021.05.22 14:59:14,13.0,24.0,29.82,-0.53999996,-33.84,-0.4357447,0.6727707,9.876082,-0.02565634,0.029321533,-0.06169739,-0.06795022636651993,0.044092610478401184,-1.5056601762771606,1002.3347,
2021.05.22 14:59:14,13.0,24.0,29.88,-0.48,-33.36,-0.6655881,0.8355764,9.591172,0.04520403,-0.012217305,-0.08735373,-0.0866924598813057,0.0692848265171051,-1.4771608114242554,1002.3347,
2021.05.22 14:59:14,13.0,24.0,30.359999,0.0,-33.239998,-0.6440403,0.82121116,9.524135,0.035430185,0.01160644,-0.05681047,-0.08581647276878357,0.06751912832260132,-1.463604211807251,1002.3347,
2021.05.22 14:59:14,13.0,24.0,30.06,-0.24,-33.3,-0.50517654,0.81163436,9.3733,0.0421497,-0.02076942,0.0012217305,-0.08625003695487976,0.0538431778550148,-1.4731547832489014,1002.3347,
2021.05.22 14:59:14,13.0,24.0,29.88,-0.06,-32.94,-0.22505496,0.7398083,9.679757,-0.005497787,-0.02565634,0.031154128,-0.07625957578420639,0.023245876654982567,-1.485047459602356,1002.34155,
2021.05.22 14:59:14,13.0,24.0,29.88,-0.24,-33.42,-0.10295067,0.60812724,9.957485,-0.025045475,0.021991149,0.052534413,-0.06099335849285126,0.01033865474164486,-1.5093727111816406,1002.34155,
2021.05.22 14:59:14,13.0,24.0,29.76,-0.35999998,-33.84,-0.2657564,0.6895301,9.627085,0.021380283,-0.045814894,-0.020158553,-0.07147473841905594,0.02759806625545025,-1.4975180625915527,1002.34155,
2021.05.22 14:59:14,13.0,24.0,29.939999,-0.12,-33.96,-0.39504328,0.7733272,9.591172,0.03359759,-0.014049901,-0.064751714,-0.08038714528083801,0.04116494953632355,-1.4762576818466187,1002.34155,
2021.05.22 14:59:14,13.0,24.0,30.119999,-0.29999998,-33.84,-0.5554548,0.78050977,9.583989,0.028099801,0.012217305,-0.06780604,-0.08112405985593796,0.05789177119731903,-1.4792810678482056,1002.33594,
2021.05.22 14:59:14,13.0,24.0,30.539999,-0.12,-33.66,-0.58897364,0.81881696,9.500193,0.023823744,-0.005497787,-0.06169739,-0.08581309765577316,0.06191672384738922,-1.4682719707489014,1002.33594,
2021.05.22 14:59:14,13.0,24.0,30.06,-0.29999998,-33.66,-0.59855044,0.82360536,9.514558,0.01282817,-0.005497787,-0.034208454,-0.08617790043354034,0.06282611936330795,-1.4723255634307861,1002.33594,
2021.05.22 14:59:14,13.0,24.0,29.939999,-0.78,-33.54,-0.4405331,0.78290397,9.679757,-0.02321288,-0.0067195175,0.017104227,-0.08062177896499634,0.04547937586903572,-1.4993820190429688,1002.33594,
2021.05.22 14:59:14,13.0,24.0,29.699999,-0.9,-34.14,-0.39264908,0.7637503,9.794679,-0.01038471,-0.032375857,0.01282817,-0.0777563750743866,0.040066543966531754,-1.5057164430618286,1002.33545,
2021.05.22 14:59:14,13.0,24.0,29.16,-1.0799999,-34.2,-0.45250413,0.78050977,9.61272,0.017104227,-0.016493361,0.009162978,-0.08092856407165527,0.04703875258564949,-1.5056241750717163,1002.33545,
2021.05.22 14:59:14,13.0,24.0,29.58,-0.9,-34.02,-0.4165911,0.7613561,9.701305,0.0,-0.029321533,0.019547688,-0.07824742048978806,0.04291538894176483,-1.5047284364700317,1002.33545,
2021.05.22 14:59:14,13.0,24.0,30.06,-0.29999998,-34.14,-0.32800564,0.79487497,9.52174,0.013439035,-0.0421497,0.018325957,-0.08323775231838226,0.03443446010351181,-1.4801502227783203,1002.33545,
2021.05.22 14:59:14,13.0,24.0,29.58,-0.48,-34.02,-0.36631286,0.80684596,9.543288,0.0036651916,-0.010995574,0.004276057,-0.08428355306386948,0.03836550936102867,-1.4832772016525269,1002.32764,
2021.05.22 14:59:14,13.0,24.0,29.58,-0.06,-34.14,-0.3854665,0.7637503,9.68694,-0.009162978,0.007941248,0.01038471,-0.07861857861280441,0.03977140411734581,-1.474928379058838,1002.32764,
2021.05.22 14:59:14,13.0,24.0,29.16,-0.17999999,-34.14,-0.4141969,0.80445176,9.672575,-0.0030543262,-0.015882496,0.007941248,-0.0829017236828804,0.042795635759830475,-1.4718043804168701,1002.32764,
2021.05.22 14:59:15,13.0,24.0,28.74,-0.48,-33.78,-0.31124622,0.81881696,9.627085,0.018325957,-0.021991149,0.017104227,-0.08480516821146011,0.03231900930404663,-1.4820014238357544,1002.32764,
2021.05.22 14:59:15,13.0,24.0,28.92,-0.29999998,-34.079998,-0.33279404,0.81642276,9.61272,0.018936822,0.007941248,0.017715093,-0.08467768132686615,0.03460635617375374,-1.4749150276184082,1002.3247,
2021.05.22 14:59:15,13.0,24.0,29.039999,-0.78,-34.079998,-0.35434186,0.8379706,9.751583,0.007330383,-0.035430185,0.01282817,-0.08566492050886154,0.03632087633013725,-1.4908093214035034,1002.3247,
2021.05.22 14:59:15,13.0,24.0,29.519999,-0.96,-34.079998,-0.34237084,0.8283938,9.516952,0.04337143,0.002443461,0.013439035,-0.08676934987306595,0.035959336906671524,-1.4971187114715576,1002.3247,
2021.05.22 14:59:15,13.0,24.0,29.16,-0.96,-34.62,-0.4261679,0.8499416,9.662998,0.01038471,-0.005497787,0.007941248,-0.08764781802892685,0.044074513018131256,-1.4918595552444458,1002.3247,
2021.05.22 14:59:15,13.0,24.0,29.279999,-0.71999997,-34.38,-0.34476504,0.8571242,9.52174,0.015271631,-0.007330383,0.014660766,-0.08971715718507767,0.036192383617162704,-1.4833530187606812,1002.3198,
2021.05.22 14:59:15,13.0,24.0,29.279999,-0.42,-34.14,-0.39983168,0.78529817,9.763555,0.0036651916,0.03481932,0.016493361,-0.08019188791513443,0.04092857614159584,-1.4845081567764282,1002.3198,
2021.05.22 14:59:15,13.0,24.0,29.279999,-0.06,-34.14,-0.2825158,0.7781156,9.605537,-0.009162978,-0.0030543262,0.02321288,-0.08079569041728973,0.029403287917375565,-1.473318338394165,1002.3198,
2021.05.22 14:59:15,13.0,24.0,29.58,-0.42,-33.96,-0.36631286,0.842759,9.653421,0.010995574,0.0012217305,0.007941248,-0.08701849728822708,0.03792823106050491,-1.4780923128128052,1002.3198,
2021.05.22 14:59:15,13.0,24.0,29.4,-0.71999997,-34.079998,-0.32321724,0.866701,9.569624,0.013439035,0.0030543262,0.015271631,-0.09027031064033508,0.03376249969005585,-1.4844850301742554,1002.3257,
2021.05.22 14:59:15,13.0,24.0,29.22,-0.65999997,-34.62,-0.35194764,0.8619126,9.727641,0.009773844,-0.034208454,0.0,-0.08831620961427689,0.036164384335279465,-1.4820365905761719,1002.3257,
2021.05.22 14:59:15,13.0,24.0,29.16,-0.9,-34.62,-0.25857377,0.81163436,9.813833,6.1086525E-4,0.03359759,0.017715093,-0.08248681575059891,0.026341794058680534,-1.4994604587554932,1002.3257,
2021.05.22 14:59:15,13.0,24.0,29.16,-0.71999997,-34.5,-0.39504328,0.8571242,9.528923,0.02687807,-0.021380283,-0.0018325958,-0.08963174372911453,0.041433557868003845,-1.4816474914550781,1002.3257,
2021.05.22 14:59:15,13.0,24.0,29.64,-0.65999997,-34.2,-0.4405331,0.89543146,9.593566,0.056199603,0.002443461,-0.018936822,-0.0929696336388588,0.045887406915426254,-1.4768966436386108,1002.31274,
2021.05.22 14:59:15,13.0,24.0,29.82,-0.96,-34.079998,-0.33997664,0.82599956,9.579201,0.015271631,0.027488936,0.007941248,-0.08596181869506836,0.035476237535476685,-1.4989264011383057,1002.31274,
2021.05.22 14:59:15,13.0,24.0,30.06,-0.84,-34.44,-0.4357447,0.91458505,9.634268,0.012217305,0.02076942,-0.01038471,-0.0945507064461708,0.045197825878858566,-1.4818205833435059,1002.31274,
2021.05.22 14:59:15,13.0,24.0,30.24,-0.71999997,-34.26,-0.45729253,0.92416185,9.497798,0.023823744,0.007941248,-0.008552114,-0.09688586741685867,0.04811006411910057,-1.475338339805603,1002.31274,
2021.05.22 14:59:15,13.0,24.0,29.939999,-0.96,-34.26,-0.39504328,0.85473,9.799467,0.010995574,0.02321288,0.010995574,-0.08693165332078934,0.040290914475917816,-1.4966241121292114,1002.31714,
2021.05.22 14:59:15,13.0,24.0,30.0,-0.78,-34.26,-0.22984336,0.82121116,9.679757,0.025045475,-0.023823744,0.02565634,-0.08461158722639084,0.023740284144878387,-1.4963072538375854,1002.31714,
2021.05.22 14:59:15,13.0,24.0,29.82,-0.84,-34.02,-0.4213795,0.878672,9.758766,0.03726278,-0.03176499,0.005497787,-0.08971396088600159,0.04315278306603432,-1.4889390468597412,1002.31714,
2021.05.22 14:59:15,13.0,24.0,29.76,-0.84,-34.02,-0.47165772,0.80205756,9.600749,0.06780604,-0.050701816,0.030543262,-0.08324766904115677,0.04908771440386772,-1.495737075805664,1002.31714,
2021.05.22 14:59:15,13.0,24.0,30.119999,-1.14,-33.96,-0.41180268,0.878672,9.957485,0.08674286,-0.15027285,0.049480084,-0.08793959766626358,0.041332539170980453,-1.502805233001709,1002.3164,
2021.05.22 14:59:15,13.0,24.0,29.939999,-1.68,-33.899998,0.29209262,1.2545617,7.9942393,0.23090707,-0.15577064,0.0983493,-0.15556146204471588,-0.03652164340019226,-1.461479902267456,1002.3164,
2021.05.22 14:59:15,13.0,24.0,29.76,-1.86,-33.719997,-0.7302315,0.9720459,10.117896,-0.10262536,0.05131268,-0.007330383,-0.09553103148937225,0.07204734534025192,-1.5135899782180786,1002.3164,
2021.05.22 14:59:15,13.0,24.0,29.939999,-2.1,-33.66,0.045489833,0.8762778,9.528923,0.031154128,-0.12522738,0.070249505,-0.09170083701610565,-0.0047738333232700825,-1.5383155345916748,1002.3164,
