Time,X-cord,Y-cord,Mag_x,Mag_y,Mag_z,Acc_x,Acc_y,Acc_z,Gyro_x,Gyro_y,Gyro_z,Orn_x,Orn_y,Orn_z,Pressure,
2021.05.22 15:01:04,23.0,24.0,39.0,-0.29999998,-36.719997,-0.23223756,0.9911995,9.622296,0.0421497,-0.03359759,-0.06719518,-0.1026189774274826,0.024130674079060555,-1.4776756763458252,1002.28784,
2021.05.22 15:01:04,23.0,24.0,38.76,0.48,-36.78,-0.24420857,0.89303726,9.449914,-0.09590584,-0.029321533,-0.07696902,-0.0941910669207573,0.025836661458015442,-1.4645719528198242,1002.28784,
2021.05.22 15:01:04,23.0,24.0,38.579998,0.59999996,-37.38,-0.19632454,0.80684596,9.715671,-0.055588737,-0.01160644,-0.032986723,-0.08283887803554535,0.020204249769449234,-1.4718323945999146,1002.2947,
2021.05.22 15:01:04,23.0,24.0,38.579998,0.53999996,-37.14,-0.2825158,0.82360536,9.593566,-0.059253927,0.0,-0.057421334,-0.08560285717248917,0.029439955949783325,-1.4694857597351074,1002.2947,
2021.05.22 15:01:04,23.0,24.0,38.64,0.29999998,-36.6,-0.3854665,0.7685388,9.476251,0.019547688,0.043982297,-0.06963864,-0.08085788041353226,0.04065470024943352,-1.480002760887146,1002.2947,
2021.05.22 15:01:04,23.0,24.0,38.52,-0.06,-36.239998,-0.24660277,0.7230489,9.821015,-0.061086524,0.009162978,-0.03970624,-0.07346697151660919,0.025104427710175514,-1.4998921155929565,1002.2947,
2021.05.22 15:01:04,23.0,24.0,38.34,0.29999998,-36.18,-0.34237084,0.7350199,9.662998,-0.03970624,-0.0012217305,-0.04642576,-0.0758717879652977,0.03541630133986473,-1.486140489578247,1002.29614,
2021.05.22 15:01:04,23.0,24.0,38.34,0.35999998,-35.76,-0.23223756,0.7038953,9.983821,-0.06047566,-0.0061086523,-0.02076942,-0.07036815583705902,0.023257197812199593,-1.4926739931106567,1002.29614,
2021.05.22 15:01:04,23.0,24.0,38.52,0.71999997,-35.76,-0.40462008,0.7302315,9.742006,-0.0018325958,-0.032986723,-0.040927973,-0.07475288212299347,0.04150968790054321,-1.4763357639312744,1002.29614,
2021.05.22 15:01:04,23.0,24.0,38.64,1.02,-35.579998,-0.4165911,0.7230489,9.617508,0.015271631,-0.040317107,-0.025045475,-0.07496928423643112,0.04328884929418564,-1.4685002565383911,1002.29614,
2021.05.22 15:01:04,23.0,24.0,38.82,0.53999996,-35.399998,-0.36870706,0.7757214,9.483433,0.029321533,-0.06169739,-0.0012217305,-0.08155448734760284,0.038859497755765915,-1.4763917922973633,1002.2815,
2021.05.22 15:01:04,23.0,24.0,39.0,0.96,-36.0,-0.14844051,0.6679823,9.572019,0.015882496,-0.03604105,0.035430185,-0.06966359168291092,0.015506511554121971,-1.479851484298706,1002.2815,
2021.05.22 15:01:04,23.0,24.0,38.399998,0.96,-36.18,-0.08379706,0.5793968,9.758766,-0.0036651916,-0.05131268,0.03726278,-0.05930013582110405,0.008586638607084751,-1.4890110492706299,1002.2815,
2021.05.22 15:01:04,23.0,24.0,38.16,0.71999997,-37.079998,-0.17238252,0.47884035,9.648633,0.0067195175,-0.050701816,0.021991149,-0.049579210579395294,0.017864104360342026,-1.5018171072006226,1002.2815,
2021.05.22 15:01:04,23.0,24.0,37.92,1.0799999,-36.96,-0.107739076,0.40462008,9.742006,-0.015882496,-0.06414085,0.029932396,-0.04150715470314026,0.011058777570724487,-1.500793218612671,1002.2849,
2021.05.22 15:01:04,23.0,24.0,37.86,0.42,-36.6,0.1340753,0.47884035,9.923966,-0.040927973,-0.057421334,0.039095376,-0.048209115862846375,-0.013509430922567844,-1.514573574066162,1002.2849,
2021.05.22 15:01:04,23.0,24.0,37.98,0.06,-36.42,-0.1412579,0.7015011,9.624691,0.0018325958,-0.06291912,-0.03359759,-0.07274910062551498,0.01467556320130825,-1.4975528717041016,1002.2849,
2021.05.22 15:01:04,23.0,24.0,37.98,0.24,-36.0,-0.25617957,0.866701,9.576807,0.036651913,-0.08002335,-0.05131268,-0.09022203087806702,0.02674361877143383,-1.4745380878448486,1002.2849,
2021.05.22 15:01:04,23.0,24.0,38.16,-0.06,-36.3,-0.18435353,0.78529817,9.746795,0.004276057,-0.017715093,0.009162978,-0.08038190752267838,0.018912017345428467,-1.4932209253311157,1002.28,
2021.05.22 15:01:04,23.0,24.0,37.8,0.0,-36.54,-0.22026655,0.6967127,10.163386,-0.005497787,-0.007330383,0.03176499,-0.0684281438589096,0.021669162437319756,-1.5018820762634277,1002.28,
2021.05.22 15:01:05,23.0,24.0,37.86,0.53999996,-36.36,-0.08619126,0.6392518,10.086772,0.012217305,-0.0018325958,0.059253927,-0.06328831613063812,0.008544771932065487,-1.4948023557662964,1002.28,
2021.05.22 15:01:05,23.0,24.0,37.5,0.35999998,-36.719997,-0.009576807,0.7565677,9.65821,0.06841691,-0.06414085,0.050701816,-0.07817448675632477,9.915713453665376E-4,-1.4848065376281738,1002.28,
2021.05.22 15:01:05,23.0,24.0,37.38,0.06,-37.14,0.11971009,0.82121116,9.485827,0.061086524,-0.04642576,0.049480084,-0.08635028451681137,-0.012619218789041042,-1.4858683347702026,1002.2737,
2021.05.22 15:01:05,23.0,24.0,37.68,0.24,-37.14,-0.06464344,0.6727707,9.911995,0.012217305,0.008552114,0.03604105,-0.06776902079582214,0.006521646399050951,-1.4969120025634766,1002.2737,
2021.05.22 15:01:05,23.0,24.0,37.62,-0.42,-37.44,0.016759412,0.6727707,10.055647,-0.035430185,0.015882496,0.020158553,-0.06680511683225632,-0.0016666651936247945,-1.5157579183578491,1002.2737,
2021.05.22 15:01:05,23.0,24.0,38.399998,-0.59999996,-36.96,-0.045489833,0.9672575,9.224859,0.042760566,-0.059864793,-0.021991149,-0.10447035729885101,0.004931182600557804,-1.4852544069290161,1002.2737,
2021.05.22 15:01:05,23.0,24.0,38.28,-0.17999999,-36.899998,-0.46926352,1.1587936,9.050082,0.0983493,-0.037873644,-0.09285152,-0.12718036770820618,0.05180545896291733,-1.440828561782837,1002.28125,
2021.05.22 15:01:05,23.0,24.0,38.28,-0.42,-36.719997,-0.35434186,1.0414777,9.354146,0.040317107,0.06658431,-0.03481932,-0.11080312728881836,0.0378626249730587,-1.4680664539337158,1002.28125,
2021.05.22 15:01:05,23.0,24.0,38.219997,0.35999998,-36.719997,-0.58897364,0.9816227,9.80665,-0.01160644,0.06352998,0.029321533,-0.099587082862854,0.05998654291033745,-1.4536640644073486,1002.28125,
2021.05.22 15:01:05,23.0,24.0,37.98,0.17999999,-37.14,-0.20590134,0.82360536,9.91439,-0.045814894,0.037873644,0.09285152,-0.08286362141370773,0.020764943212270737,-1.4818390607833862,1002.28125,
2021.05.22 15:01:05,23.0,24.0,38.1,0.06,-37.14,0.079008654,0.7541735,9.720459,-0.05375614,-0.084910266,0.1459968,-0.07742854207754135,-0.008127899840474129,-1.4951971769332886,1002.2803,
2021.05.22 15:01:05,23.0,24.0,38.04,0.0,-37.14,0.023942016,0.842759,9.246407,-6.1086525E-4,-0.05681047,0.06414085,-0.09089305251836777,-0.0025893261190503836,-1.4828611612319946,1002.2803,
2021.05.22 15:01:05,23.0,24.0,38.1,0.0,-37.02,-0.30406362,0.92895025,9.330204,-0.02076942,0.022602014,0.002443461,-0.09918440878391266,0.032577645033597946,-1.468461275100708,1002.2803,
2021.05.22 15:01:05,23.0,24.0,37.5,-0.24,-37.2,-0.4405331,0.82121116,9.864111,-0.06841691,0.108123146,0.017715093,-0.08297854661941528,0.044630538672208786,-1.4877630472183228,1002.2803,
2021.05.22 15:01:05,23.0,24.0,37.739998,-0.78,-36.719997,-0.45010993,0.8714894,10.086772,-0.06414085,0.07574729,0.04520403,-0.08609995990991592,0.04459420219063759,-1.5009785890579224,1002.2827,
2021.05.22 15:01:05,23.0,24.0,37.559998,-1.0799999,-36.719997,-0.35434186,0.9911995,9.866506,-0.015882496,0.04153884,0.06169739,-0.10006103664636612,0.03589818254113197,-1.4956763982772827,1002.2827,
2021.05.22 15:01:05,23.0,24.0,36.96,-1.38,-36.96,-0.4237737,1.115698,9.548077,0.03176499,0.058643065,0.06719518,-0.11620966345071793,0.044354040175676346,-1.4831492900848389,1002.2827,
2021.05.22 15:01:05,23.0,24.0,37.5,-0.96,-36.78,-0.21787235,1.0342951,9.885659,0.0012217305,0.06536258,0.116675265,-0.104221411049366,0.022035667672753334,-1.4903669357299805,1002.2827,
2021.05.22 15:01:05,23.0,24.0,37.2,-0.65999997,-36.78,0.06703765,0.89303726,9.818622,0.021991149,0.03604105,0.13561209,-0.09070175141096115,-0.00682749692350626,-1.5001251697540283,1002.2871,
2021.05.22 15:01:05,23.0,24.0,37.62,-0.59999996,-36.84,0.10055647,0.91697925,9.706094,0.04153884,-0.008552114,0.09712757,-0.09418997913599014,-0.010359766893088818,-1.4964420795440674,1002.2871,
2021.05.22 15:01:05,23.0,24.0,38.219997,-1.3199999,-36.899998,0.11971009,0.85473,9.619903,0.055588737,-6.1086525E-4,0.06963864,-0.08861064910888672,-0.01244335900992155,-1.5214959383010864,1002.2871,
2021.05.22 15:01:05,23.0,24.0,37.62,-1.5,-36.6,0.059855044,0.79726917,9.80665,0.03604105,-0.009773844,0.035430185,-0.08111891895532608,-0.006103440187871456,-1.5324466228485107,1002.2871,
2021.05.22 15:01:05,23.0,24.0,37.44,-1.38,-36.899998,-0.090979666,0.8571242,9.519346,0.059253927,-0.027488936,-0.007941248,-0.08979400992393494,0.00955705251544714,-1.5178215503692627,1002.28516,
2021.05.22 15:01:05,23.0,24.0,36.96,-1.14,-36.719997,-0.10055647,0.8355764,9.533711,0.040927973,-0.03848451,-0.007330383,-0.08741617202758789,0.010547072626650333,-1.5133260488510132,1002.28516,
2021.05.22 15:01:05,23.0,24.0,36.6,-1.14,-36.6,-0.11252748,0.80924016,9.713276,0.004276057,-0.014049901,-0.012217305,-0.08311528712511063,0.011584397405385971,-1.5172877311706543,1002.28516,
2021.05.22 15:01:06,23.0,24.0,36.96,-1.3199999,-36.48,-0.18674773,0.89543146,9.409213,0.020158553,-0.032375857,-0.03726278,-0.09486109763383865,0.019844722002744675,-1.509868860244751,1002.28516,
2021.05.22 15:01:06,23.0,24.0,37.14,-1.86,-35.82,-0.20111294,0.878672,9.500193,-0.018325957,0.009162978,-0.040317107,-0.09220698475837708,0.02116619236767292,-1.5290946960449219,1002.2793,
2021.05.22 15:01:06,23.0,24.0,37.44,-2.04,-36.18,-0.20350714,0.78769237,10.084377,-0.02443461,0.05497787,-0.034208454,-0.0779360830783844,0.020177697762846947,-1.5478779077529907,1002.2793,
2021.05.22 15:01:06,23.0,24.0,37.739998,-1.92,-35.76,-0.38307226,0.8499416,9.524135,0.037873644,-0.005497787,-0.059864793,-0.08893351256847382,0.04019954800605774,-1.5323340892791748,1002.2793,
2021.05.22 15:01:06,23.0,24.0,37.92,-2.1599998,-35.94,-0.4213795,0.94570965,9.526528,0.005497787,-0.018325957,-0.010995574,-0.09885096549987793,0.04420340806245804,-1.5278587341308594,1002.2793,
2021.05.22 15:01:06,23.0,24.0,38.04,-2.1,-36.42,-0.14604631,0.9504981,9.706094,-0.012217305,-0.004276057,0.030543262,-0.09760574251413345,0.015045731328427792,-1.5304176807403564,1002.28,
2021.05.22 15:01:06,23.0,24.0,38.219997,-2.1,-36.239998,-0.08140286,0.92416185,9.828198,-0.012217305,-0.012217305,0.012217305,-0.09375278651714325,0.008282393217086792,-1.535699486732483,1002.28,
2021.05.22 15:01:06,23.0,24.0,38.34,-1.68,-36.3,-0.10534488,0.94570965,9.651027,0.022602014,6.1086525E-4,-0.010995574,-0.0976729467511177,0.010914972983300686,-1.5205376148223877,1002.28,
2021.05.22 15:01:06,23.0,24.0,38.579998,-1.4399999,-36.54,-0.15322891,0.9888053,9.78989,0.0067195175,0.009162978,-0.026267206,-0.10064907371997833,0.015650471672415733,-1.5103750228881836,1002.28,
2021.05.22 15:01:06,23.0,24.0,38.28,-1.56,-36.6,-0.25857377,0.9504981,9.674969,0.031154128,0.035430185,-0.022602014,-0.09789403527975082,0.026719696819782257,-1.513913869857788,1002.281,
2021.05.22 15:01:06,23.0,24.0,38.34,-1.74,-36.18,-0.12449849,0.8810662,9.801862,0.01282817,0.02076942,-0.009162978,-0.08963952958583832,0.012700831517577171,-1.5299205780029297,1002.281,
2021.05.22 15:01:06,23.0,24.0,38.1,-1.92,-36.54,-0.19632454,0.8810662,9.6845455,0.028099801,0.031154128,-0.04642576,-0.09070823341608047,0.020269164815545082,-1.531538486480713,1002.281,
2021.05.22 15:01:06,23.0,24.0,37.98,-2.1599998,-36.239998,-0.38307226,0.89782566,9.639056,0.040317107,0.016493361,-0.04642576,-0.09280374646186829,0.039720773696899414,-1.533980369567871,1002.281,
2021.05.22 15:01:06,23.0,24.0,38.52,-1.86,-36.66,-0.4165911,1.0175357,9.414001,0.018936822,0.016493361,-0.029932396,-0.1075650230050087,0.04422343894839287,-1.5094151496887207,1002.27466,
2021.05.22 15:01:06,23.0,24.0,38.219997,-1.74,-37.02,-0.45729253,0.9959879,9.442732,-0.021380283,0.031154128,0.0,-0.10496599227190018,0.048390187323093414,-1.5066417455673218,1002.27466,
2021.05.22 15:01:06,23.0,24.0,38.76,-1.4399999,-36.899998,-0.36631286,0.9983821,9.706094,-0.018325957,0.017104227,0.021380283,-0.10242846608161926,0.037722598761320114,-1.504282832145691,1002.27466,
2021.05.22 15:01:06,23.0,24.0,38.879997,-1.0799999,-36.66,-0.2681506,1.0151415,9.643845,-0.02321288,0.0012217305,0.021380283,-0.10483671724796295,0.027798200026154518,-1.4950075149536133,1002.27466,
2021.05.22 15:01:06,23.0,24.0,38.52,-0.78,-36.18,-0.2705448,0.9888053,9.653421,-0.016493361,0.014049901,0.01282817,-0.10203477740287781,0.028018459677696228,-1.4904776811599731,1002.27466,
2021.05.22 15:01:06,23.0,24.0,38.76,-1.0799999,-36.18,-0.2753332,0.9935937,9.67018,-0.028099801,-6.1086525E-4,0.015882496,-0.1023477092385292,0.028464704751968384,-1.4984484910964966,1002.27466,
2021.05.22 15:01:06,23.0,24.0,38.04,-1.3199999,-36.48,-0.29688102,0.9816227,9.753978,-0.027488936,0.010995574,0.008552114,-0.1002543643116951,0.03042752481997013,-1.5044686794281006,1002.27466,
2021.05.22 15:01:06,23.0,24.0,37.86,-1.4399999,-36.719997,-0.33997664,0.9911995,9.6845455,-0.014049901,-0.007330383,0.015882496,-0.10193108022212982,0.03509065881371498,-1.5042227506637573,1002.27466,
2021.05.22 15:01:06,23.0,24.0,38.04,-1.92,-36.78,-0.30166942,0.9624691,9.737218,-0.03726278,0.002443461,0.031154128,-0.09847738593816757,0.030971162021160126,-1.5215035676956177,1002.27515,
2021.05.22 15:01:06,23.0,24.0,37.98,-1.4399999,-37.02,-0.2801216,0.90021986,9.77792,0.010995574,-0.009162978,0.007330383,-0.09177035093307495,0.02864054962992668,-1.5151175260543823,1002.27515,
2021.05.22 15:01:06,23.0,24.0,37.98,-1.4399999,-36.54,-0.44771573,0.9720459,9.406818,-0.0018325958,-0.01160644,0.007330383,-0.10285311937332153,0.047558918595314026,-1.5018342733383179,1002.27515,
2021.05.22 15:01:06,23.0,24.0,38.219997,-1.0799999,-36.18,-0.30406362,0.9935937,9.655815,-0.028099801,0.0030543262,0.05009095,-0.10248972475528717,0.03147980198264122,-1.4967730045318604,1002.27515,
2021.05.22 15:01:07,23.0,24.0,38.46,-0.9,-36.0,-0.22026655,0.9504981,9.655815,-0.017715093,0.002443461,0.040927973,-0.09809641540050507,0.02280784770846367,-1.4987660646438599,1002.2761,
2021.05.22 15:01:07,23.0,24.0,38.64,-1.68,-35.579998,-0.16998832,0.9911995,9.646238,-0.02565634,-0.023823744,0.03970624,-0.10237986594438553,0.01762041449546814,-1.5173276662826538,1002.2761,
2021.05.22 15:01:07,23.0,24.0,39.239998,-1.68,-35.82,-0.07182605,0.94092125,10.019734,-0.037873644,0.008552114,0.013439035,-0.09362982213497162,0.007168335374444723,-1.5271505117416382,1002.2761,
2021.05.22 15:01:07,23.0,24.0,39.0,-2.34,-36.3,-0.18674773,0.878672,10.031705,0.019547688,0.013439035,-0.022602014,-0.0873514711856842,0.018613602966070175,-1.5473511219024658,1002.2761,
2021.05.22 15:01:07,23.0,24.0,38.399998,-2.46,-36.12,-0.31603462,0.93134445,9.864111,0.05681047,-0.030543262,-0.037873644,-0.09409040212631226,0.03202787786722183,-1.5423758029937744,1002.27905,
2021.05.22 15:01:07,23.0,24.0,37.98,-1.9799999,-36.36,-0.37828386,0.9840169,9.308656,0.07391469,-0.02687807,-0.017104227,-0.10523252934217453,0.040615513920784,-1.5157694816589355,1002.27905,
2021.05.22 15:01:07,23.0,24.0,38.219997,-2.1599998,-36.239998,-0.21068975,0.8595184,9.526528,0.007330383,-0.004886922,0.029932396,-0.08995816111564636,0.02211250551044941,-1.5392760038375854,1002.27905,
2021.05.22 15:01:07,23.0,24.0,37.8,-1.74,-36.0,-0.007182605,0.6919243,9.835381,-0.0036651916,-0.014660766,0.02321288,-0.07023479789495468,7.302822195924819E-4,-1.5498164892196655,1002.27905,
2021.05.22 15:01:07,23.0,24.0,37.86,-1.3199999,-36.78,-0.11731588,0.7493851,9.581595,0.021380283,-0.04153884,-0.037873644,-0.07804618030786514,0.012243266217410564,-1.5283812284469604,1002.27637,
2021.05.22 15:01:07,23.0,24.0,37.98,-1.38,-36.66,-0.25378537,0.8379706,9.624691,-0.0012217305,-0.004886922,-0.055588737,-0.08681566268205643,0.02636205032467842,-1.5197720527648926,1002.27637,
2021.05.22 15:01:07,23.0,24.0,37.739998,-1.62,-36.54,-0.36870706,0.89303726,9.720459,-0.005497787,-0.009773844,-0.061086524,-0.09154926985502243,0.03791285678744316,-1.519758701324463,1002.27637,
2021.05.22 15:01:07,23.0,24.0,38.28,-2.1,-36.54,-0.49559975,0.9576807,9.473856,0.005497787,-0.008552114,-0.054367006,-0.10060782730579376,0.05226472020149231,-1.521921992301941,1002.27637,
2021.05.22 15:01:07,23.0,24.0,37.98,-2.3999999,-35.88,-0.24899697,0.93373865,9.950302,-0.053145275,0.04520403,0.007330383,-0.0935371145606041,0.0250188410282135,-1.542495608329773,1002.26587,
2021.05.22 15:01:07,23.0,24.0,37.739998,-2.1599998,-36.059998,-0.31603462,0.7565677,10.240001,0.1160644,-0.004886922,-0.07513642,-0.07371459156274796,0.03085296042263508,-1.5547887086868286,1002.26587,
2021.05.22 15:01:07,23.0,24.0,37.739998,-2.04,-36.059998,-0.7278373,1.0893618,8.863335,0.047647487,-0.059253927,0.009773844,-0.12188701331615448,0.08193393796682358,-1.4924752712249756,1002.26587,
2021.05.22 15:01:07,23.0,24.0,37.739998,-1.74,-36.12,-0.107739076,0.90979666,9.452309,-0.081855945,0.015882496,0.10629055,-0.09594947099685669,0.011397683061659336,-1.5234285593032837,1002.26587,
2021.05.22 15:01:07,23.0,24.0,38.219997,-1.68,-36.42,0.21787235,0.7086837,9.876082,-0.037873644,-0.013439035,0.0036651916,-0.07161742448806763,-0.022057026624679565,-1.5485148429870605,1002.2615,
2021.05.22 15:01:07,23.0,24.0,38.46,-1.92,-36.54,-0.12928689,0.8858546,9.8042555,0.032375857,-0.0012217305,-0.07269296,-0.09010162204504013,0.013186048716306686,-1.533394455909729,1002.2615,
2021.05.22 15:01:07,23.0,24.0,38.399998,-1.56,-36.84,-0.30645782,1.0414777,9.406818,0.007330383,0.0061086523,-0.06352998,-0.11020812392234802,0.03256674483418465,-1.4999982118606567,1002.2615,
2021.05.22 15:01:07,23.0,24.0,38.399998,-1.62,-36.48,-0.36152446,0.9840169,9.811439,-0.028710667,0.007941248,-0.021380283,-0.09989123046398163,0.03683058172464371,-1.51240873336792,1002.2615,
2021.05.22 15:01:07,23.0,24.0,38.34,-1.86,-36.6,-0.22744916,0.9552865,9.866506,-0.005497787,-0.021991149,-0.017715093,-0.09649482369422913,0.02304857410490513,-1.523904800415039,1002.2742,
2021.05.22 15:01:07,23.0,24.0,38.34,-1.86,-36.239998,-0.29927522,0.9696517,9.864111,0.005497787,-0.014049901,-0.025045475,-0.09794139117002487,0.03033050149679184,-1.5223512649536133,1002.2742,
2021.05.22 15:01:07,23.0,24.0,38.34,-2.1599998,-36.239998,-0.29688102,0.92176765,9.770737,0.047647487,-0.01282817,-0.035430185,-0.09401810169219971,0.030375367030501366,-1.5342886447906494,1002.2742,
2021.05.22 15:01:07,23.0,24.0,38.34,-1.8,-36.6,-0.50038815,1.0199299,9.397242,0.05009095,-0.014049901,-0.0421497,-0.10796008259057999,0.05319816619157791,-1.5057188272476196,1002.2742,
2021.05.22 15:01:07,23.0,24.0,38.34,-1.3199999,-36.239998,-0.49799395,0.9672575,9.500193,-0.004886922,0.014049901,0.01160644,-0.10132671147584915,0.05237141624093056,-1.5008219480514526,1002.2776,
2021.05.22 15:01:07,23.0,24.0,38.34,-1.38,-36.36,-0.31124622,0.8403648,9.722853,0.0018325958,-6.1086525E-4,0.026267206,-0.08617372065782547,0.032000891864299774,-1.5208206176757812,1002.2776,
2021.05.22 15:01:08,23.0,24.0,37.98,-1.38,-36.12,-0.2657564,0.90500826,9.49301,0.0018325958,-0.030543262,0.029321533,-0.09500992298126221,0.02798764780163765,-1.5126197338104248,1002.2776,
2021.05.22 15:01:08,23.0,24.0,37.5,-1.62,-35.94,-0.22026655,0.90740246,9.555259,-0.031154128,-0.0030543262,0.02565634,-0.09465474635362625,0.023047784343361855,-1.5199739933013916,1002.2776,
2021.05.22 15:01:08,23.0,24.0,37.26,-1.4399999,-36.059998,-0.2633622,0.90740246,9.696517,-0.03481932,0.0061086523,0.022602014,-0.0932743102312088,0.027153819799423218,-1.515215516090393,1002.2771,
2021.05.22 15:01:08,23.0,24.0,37.5,-1.4399999,-36.18,-0.19871874,0.9816227,9.569624,-0.028710667,-0.015271631,0.018936822,-0.10219753533601761,0.020762590691447258,-1.5072681903839111,1002.2771,
2021.05.22 15:01:08,23.0,24.0,37.8,-1.26,-36.18,-0.28491,1.0199299,9.694122,-0.040927973,0.01038471,0.020158553,-0.10478061437606812,0.029381515458226204,-1.4988783597946167,1002.2771,
2021.05.22 15:01:08,23.0,24.0,38.1,-1.02,-36.3,-0.16519992,1.0079589,9.753978,-0.035430185,0.007330383,0.028710667,-0.1029580757021904,0.01693505235016346,-1.4967067241668701,1002.2771,
2021.05.22 15:01:08,23.0,24.0,38.7,-1.5,-36.48,-0.20590134,1.0127473,9.720459,-0.021380283,0.007941248,0.007330383,-0.10378953069448471,0.02117909863591194,-1.5083339214324951,1002.27783,
2021.05.22 15:01:08,23.0,24.0,38.34,-1.02,-36.84,-0.11492168,0.9552865,9.876082,-0.013439035,0.0018325958,0.009773844,-0.09642080217599869,0.011635838076472282,-1.5029982328414917,1002.27783,
2021.05.22 15:01:08,23.0,24.0,38.34,-1.26,-37.44,-0.21068975,0.93852705,9.744401,0.009773844,-0.002443461,-0.017104227,-0.09599602222442627,0.021618254482746124,-1.5065760612487793,1002.27783,
2021.05.22 15:01:08,23.0,24.0,38.46,-1.26,-37.44,-0.22984336,0.92895025,9.763555,0.021991149,-0.004276057,-0.02321288,-0.09483301639556885,0.02353660576045513,-1.5076457262039185,1002.27783,
2021.05.22 15:01:08,23.0,24.0,38.34,-0.71999997,-37.5,-0.30406362,0.9959879,9.445126,0.040317107,-0.02076942,-0.019547688,-0.10500766336917877,0.03218153491616249,-1.4809962511062622,1002.28784,
2021.05.22 15:01:08,23.0,24.0,38.64,-1.5,-36.899998,-0.17238252,0.878672,9.682152,0.0,-0.0018325958,0.013439035,-0.09048954397439957,0.017802271991968155,-1.5207480192184448,1002.28784,
2021.05.22 15:01:08,23.0,24.0,38.219997,-1.1999999,-36.3,-0.11731588,0.80684596,9.818622,0.0061086523,-0.010995574,-0.0012217305,-0.08198502659797668,0.011947736144065857,-1.5228245258331299,1002.28784,
2021.05.22 15:01:08,23.0,24.0,38.16,-1.38,-36.78,-0.21068975,0.90021986,9.581595,0.025045475,-0.027488936,-0.035430185,-0.093655526638031,0.021985461935400963,-1.5134634971618652,1002.28784,
2021.05.22 15:01:08,23.0,24.0,38.1,-1.62,-36.719997,-0.320823,0.91697925,9.619903,0.013439035,-0.01038471,-0.026267206,-0.09498142451047897,0.03333756700158119,-1.5168997049331665,1002.2905,
2021.05.22 15:01:08,23.0,24.0,38.16,-0.78,-36.6,-0.34715924,1.0031705,9.411607,0.005497787,-0.010995574,-0.021991149,-0.10611610859632492,0.03686957061290741,-1.4827464818954468,1002.2905,
2021.05.22 15:01:08,23.0,24.0,38.879997,-0.96,-36.899998,-0.37349546,0.9720459,9.660604,-0.02565634,0.018325957,0.01282817,-0.10020770132541656,0.038642462342977524,-1.4938936233520508,1002.2905,
2021.05.22 15:01:08,23.0,24.0,39.0,-1.02,-36.66,-0.20590134,0.8810662,9.799467,-0.017104227,0.007941248,0.01160644,-0.08964882791042328,0.021008392795920372,-1.5096802711486816,1002.2905,
2021.05.22 15:01:08,23.0,24.0,38.46,-0.35999998,-37.079998,-0.25139117,0.90740246,9.78989,0.01038471,-0.01038471,0.0018325958,-0.09239336103200912,0.02567300945520401,-1.4869149923324585,1002.28784,
2021.05.22 15:01:08,23.0,24.0,38.16,-0.78,-37.86,-0.272939,0.94570965,9.615114,0.02076942,0.0,6.1086525E-4,-0.09800200164318085,0.028378833085298538,-1.489171028137207,1002.28784,
2021.05.22 15:01:08,23.0,24.0,37.32,-0.9,-38.16,-0.28491,0.93373865,9.679757,0.009773844,-0.0018325958,0.016493361,-0.09612412005662918,0.02942509390413761,-1.4916280508041382,1002.28784,
2021.05.22 15:01:08,23.0,24.0,37.079998,-1.3199999,-37.739998,-0.1412579,0.90500826,9.739613,0.02443461,-0.0067195175,0.016493361,-0.09264460951089859,0.014502424746751785,-1.5099211931228638,1002.28784,
2021.05.22 15:01:08,23.0,24.0,37.86,-1.86,-37.32,-0.20111294,0.91937345,9.591172,0.028710667,-0.03176499,-0.013439035,-0.09554335474967957,0.020965473726391792,-1.5227161645889282,1002.29126,
2021.05.22 15:01:08,23.0,24.0,37.8,-1.62,-36.96,-0.2801216,1.043872,9.615114,0.018325957,-0.07452556,-0.020158553,-0.10809668898582458,0.02912522852420807,-1.5029582977294922,1002.29126,
2021.05.22 15:01:08,23.0,24.0,38.1,-1.26,-36.48,-0.3184288,0.8882488,9.516952,0.007941248,0.014660766,0.01282817,-0.09301197528839111,0.03344663977622986,-1.5098263025283813,1002.29126,
2021.05.22 15:01:09,23.0,24.0,38.46,-1.0799999,-37.02,-0.22744916,0.91219085,9.627085,-0.019547688,-0.018936822,0.01160644,-0.09444430470466614,0.02362157218158245,-1.5043435096740723,1002.29126,
2021.05.22 15:01:09,23.0,24.0,38.16,-1.26,-36.78,-0.33279404,0.9600749,9.557653,-0.005497787,0.009162978,0.0012217305,-0.10005483031272888,0.034805577248334885,-1.5017038583755493,1002.2859,
2021.05.22 15:01:09,23.0,24.0,38.52,-1.26,-36.96,-0.24660277,1.0247183,9.526528,-0.01282817,0.002443461,0.018325957,-0.10711710900068283,0.0258801206946373,-1.4962636232376099,1002.2859,
2021.05.22 15:01:09,23.0,24.0,38.64,-1.38,-37.079998,-0.21787235,0.9792285,9.627085,-0.026267206,0.008552114,0.030543262,-0.10134159028530121,0.022627323865890503,-1.5056384801864624,1002.2859,
2021.05.22 15:01:09,23.0,24.0,38.399998,-1.38,-36.78,-0.079008654,0.93852705,9.763555,-0.032986723,0.014049901,0.040927973,-0.09582799673080444,0.00809202529489994,-1.5137704610824585,1002.2859,
2021.05.22 15:01:09,23.0,24.0,38.16,-1.1999999,-37.2,-0.016759412,0.92176765,9.900024,-0.01282817,-0.007330383,0.02076942,-0.09283982962369919,0.0016928641125559807,-1.5115478038787842,1002.2859,
2021.05.22 15:01:09,23.0,24.0,38.219997,-1.56,-36.719997,-0.12210429,1.0055647,9.528923,0.01282817,-0.021991149,-0.013439035,-0.10512993484735489,0.012813368812203407,-1.5085411071777344,1002.2859,
2021.05.22 15:01:09,23.0,24.0,38.04,-1.38,-36.84,-0.22266077,1.0007763,9.703699,-0.0036651916,0.004886922,-0.010995574,-0.10274328291416168,0.022941941395401955,-1.5038212537765503,1002.2859,
2021.05.22 15:01:09,23.0,24.0,37.86,-1.02,-36.78,-0.1412579,0.9888053,9.572019,0.002443461,-0.016493361,-0.007941248,-0.10292539745569229,0.014756307005882263,-1.4953285455703735,1002.2859,
2021.05.22 15:01:09,23.0,24.0,37.98,-0.96,-36.3,-0.22266077,0.9504981,9.698911,-0.0018325958,0.017104227,-0.008552114,-0.09766299277544022,0.02295326441526413,-1.499072551727295,1002.29395,
2021.05.22 15:01:09,23.0,24.0,37.5,-1.14,-36.719997,-0.21308395,0.94092125,9.600749,0.0036651916,-0.018936822,-0.005497787,-0.0976691022515297,0.022190868854522705,-1.5020205974578857,1002.29395,
2021.05.22 15:01:09,23.0,24.0,37.68,-1.3199999,-36.48,-0.16759412,0.9720459,9.557653,6.1086525E-4,-0.01160644,0.004886922,-0.1013394370675087,0.01753327250480652,-1.504910945892334,1002.29395,
2021.05.22 15:01:09,23.0,24.0,37.86,-1.26,-36.48,-0.1412579,0.89782566,9.591172,-0.015882496,0.014049901,0.004886922,-0.09332752227783203,0.014726842753589153,-1.512000322341919,1002.29395,
2021.05.22 15:01:09,23.0,24.0,37.8,-1.26,-36.6,-0.18435353,0.866701,9.911995,-0.02687807,0.004886922,-0.010995574,-0.0872027799487114,0.018596889451146126,-1.5171458721160889,1002.2886,
2021.05.22 15:01:09,23.0,24.0,37.86,-0.96,-36.54,-0.21308395,0.93613285,9.622296,0.0018325958,-0.014660766,-0.02076942,-0.09695905447006226,0.022141193971037865,-1.499051570892334,1002.2886,
2021.05.22 15:01:09,23.0,24.0,38.04,-1.14,-36.6,-0.2777274,0.9840169,9.646238,-0.010995574,-0.012217305,-0.0061086523,-0.10161694884300232,0.028783313930034637,-1.4982134103775024,1002.2886,
2021.05.22 15:01:09,23.0,24.0,37.8,-1.5,-36.66,-0.21547815,0.9816227,9.639056,-0.004886922,0.01160644,0.005497787,-0.10146299004554749,0.022350972518324852,-1.5085147619247437,1002.2886,
2021.05.22 15:01:09,23.0,24.0,37.62,-1.8,-36.899998,-0.1316811,0.92416185,9.782708,-0.020158553,-0.009162978,6.1086525E-4,-0.09418091177940369,0.013459784910082817,-1.5243474245071411,1002.29126,
2021.05.22 15:01:09,23.0,24.0,37.44,-1.86,-36.6,-0.12928689,0.878672,9.694122,0.015271631,6.1086525E-4,-0.020158553,-0.09038467705249786,0.013335835188627243,-1.5303313732147217,1002.29126,
2021.05.22 15:01:09,23.0,24.0,37.02,-1.68,-36.6,-0.20350714,0.91219085,9.557653,-0.01038471,-0.002443461,-0.02321288,-0.09513123333454132,0.021289367228746414,-1.5190047025680542,1002.29126,
2021.05.22 15:01:09,23.0,24.0,37.14,-1.3199999,-36.66,-0.22026655,0.92655605,9.595961,-0.01038471,-0.004886922,-0.022602014,-0.09623328596353531,0.022950060665607452,-1.507787823677063,1002.29126,
2021.05.22 15:01:09,23.0,24.0,37.14,-0.96,-36.36,-0.2657564,0.91219085,9.648633,-0.009162978,0.0012217305,-0.004886922,-0.09422525018453598,0.027536461129784584,-1.5000455379486084,1002.2903,
2021.05.22 15:01:09,23.0,24.0,37.38,-0.65999997,-36.719997,-0.19632454,0.8643068,9.555259,-0.028099801,-0.014660766,0.01160644,-0.09018910676240921,0.020543338730931282,-1.4966951608657837,1002.2903,
2021.05.22 15:01:09,23.0,24.0,37.079998,-0.42,-36.6,-0.1364695,0.82360536,9.864111,-0.02076942,-0.007941248,-6.1086525E-4,-0.08329398930072784,0.013834068551659584,-1.497945785522461,1002.2903,
2021.05.22 15:01:09,23.0,24.0,37.14,-0.59999996,-36.42,-0.16759412,0.91219085,9.519346,0.0012217305,-0.0061086523,-0.02321288,-0.09551854431629181,0.017603814601898193,-1.4904600381851196,1002.2903,
2021.05.22 15:01:10,23.0,24.0,37.02,-0.84,-36.6,-0.24660277,0.91937345,9.67018,-0.018325957,0.007941248,-0.015271631,-0.09475750476121902,0.02549583651125431,-1.4956814050674438,1002.2954,
2021.05.22 15:01:10,23.0,24.0,36.96,-0.65999997,-36.66,-0.2633622,0.93134445,9.56723,-0.009162978,0.0061086523,-0.008552114,-0.09700506180524826,0.02752057835459709,-1.487762212753296,1002.2954,
2021.05.22 15:01:10,23.0,24.0,37.14,-0.71999997,-36.66,-0.25857377,0.8810662,9.691729,-0.022602014,-0.004886922,0.007941248,-0.09062781184911728,0.026673512533307076,-1.4965386390686035,1002.2954,
2021.05.22 15:01:10,23.0,24.0,36.96,-0.42,-36.899998,-0.18435353,0.8451532,9.739613,-0.017715093,0.014049901,0.017715093,-0.08654258400201797,0.01892596110701561,-1.492871642112732,1002.2954,
2021.05.22 15:01:10,23.0,24.0,37.14,-0.24,-36.719997,-0.1436521,0.8499416,9.691729,-0.0018325958,-0.018936822,0.007330383,-0.08746428042650223,0.014821047894656658,-1.4885525703430176,1002.2942,
2021.05.22 15:01:10,23.0,24.0,37.68,-0.65999997,-36.3,-0.20111294,0.8762778,9.627085,-6.1086525E-4,-0.004276057,-0.002443461,-0.09075231105089188,0.020887289196252823,-1.4976989030838013,1002.2942,
2021.05.22 15:01:10,23.0,24.0,37.92,-0.53999996,-36.239998,-0.16519992,0.8834604,9.627085,-0.002443461,-0.008552114,-0.004276057,-0.09149850159883499,0.017158227041363716,-1.4949885606765747,1002.2942,
2021.05.22 15:01:10,23.0,24.0,38.46,-0.9,-36.42,-0.33518824,0.8738836,9.679757,0.0012217305,-0.010995574,-0.009773844,-0.08998177945613861,0.034613922238349915,-1.5038114786148071,1002.2942,
2021.05.22 15:01:10,23.0,24.0,38.34,-0.71999997,-36.42,-0.08619126,0.91219085,9.588778,0.029321533,-0.034208454,0.02687807,-0.0948418527841568,0.008988521993160248,-1.4981902837753296,1002.2915,
2021.05.22 15:01:10,23.0,24.0,38.04,-0.48,-36.66,-0.11252748,0.8858546,9.564836,6.1086525E-4,0.004276057,0.014660766,-0.09234596788883209,0.011764164082705975,-1.492679238319397,1002.2915,
2021.05.22 15:01:10,23.0,24.0,38.1,-0.59999996,-36.84,-0.12928689,0.8882488,9.809045,-0.01038471,-0.03848451,0.01038471,-0.09029994159936905,0.013179611414670944,-1.497292160987854,1002.2915,
2021.05.22 15:01:10,23.0,24.0,37.5,-0.42,-36.719997,0.02873042,0.8643068,9.548077,0.015271631,0.02565634,0.004886922,-0.0902751162648201,-0.00300901778973639,-1.4943199157714844,1002.2915,
2021.05.22 15:01:10,23.0,24.0,37.559998,-0.71999997,-36.78,-0.22266077,0.81881696,9.768343,-0.019547688,-0.034208454,-0.034208454,-0.08360640704631805,0.022790171205997467,-1.5048469305038452,1002.2815,
2021.05.22 15:01:10,23.0,24.0,37.559998,-0.96,-37.079998,-0.24181437,0.8714894,9.504981,0.02321288,0.009162978,-0.022602014,-0.09140260517597198,0.025435319170355797,-1.5022083520889282,1002.2815,
2021.05.22 15:01:10,23.0,24.0,37.26,-0.96,-37.32,-0.21068975,0.89064306,9.610326,-6.1086525E-4,-0.02443461,-0.014660766,-0.09238959848880768,0.02191975899040699,-1.50059974193573,1002.2815,
2021.05.22 15:01:10,23.0,24.0,37.62,-1.0799999,-37.44,-0.21068975,0.85473,9.576807,6.1086525E-4,0.009162978,-0.0012217305,-0.08899272978305817,0.021996451541781425,-1.5076929330825806,1002.2815,
2021.05.22 15:01:10,23.0,24.0,37.739998,-1.38,-37.559998,-0.15083471,0.81642276,9.701305,0.0030543262,0.004276057,-0.0018325958,-0.0839480385184288,0.015546624548733234,-1.5217647552490234,1002.27856,
2021.05.22 15:01:10,23.0,24.0,37.559998,-1.3199999,-37.2,-0.12449849,0.8283938,9.739613,0.017715093,-0.019547688,6.1086525E-4,-0.0848429724574089,0.012781997211277485,-1.5202064514160156,1002.27856,
2021.05.22 15:01:10,23.0,24.0,37.92,-1.3199999,-37.26,-0.18914193,0.90500826,9.737218,0.045814894,-0.032375857,0.0036651916,-0.09265957772731781,0.019422195851802826,-1.5116891860961914,1002.27856,
2021.05.22 15:01:10,23.0,24.0,37.739998,-1.3199999,-37.32,0.074220255,0.79248077,8.825027,0.11178834,0.0012217305,0.040927973,-0.08955587446689606,-0.008410003036260605,-1.5184286832809448,1002.27856,
2021.05.22 15:01:10,23.0,24.0,37.86,-1.02,-37.14,-0.56982,0.7517793,9.725247,-0.1881465,0.11484267,-0.065973446,-0.07701683044433594,0.05852491408586502,-1.5145409107208252,1002.2864,
2021.05.22 15:01:10,23.0,24.0,37.92,-1.14,-36.899998,-0.107739076,0.6607997,10.158598,0.034208454,-0.059864793,0.019547688,-0.06495316326618195,0.010605305433273315,-1.536608338356018,1002.2864,
2021.05.22 15:01:10,23.0,24.0,38.16,-1.4399999,-36.48,-0.22266077,0.9624691,9.952697,0.06536258,-0.15393804,-0.035430185,-0.09638061374425888,0.02236817218363285,-1.5130465030670166,1002.2864,
