Time,X-cord,Y-cord,Mag_x,Mag_y,Mag_z,Acc_x,Acc_y,Acc_z,Gyro_x,Gyro_y,Gyro_z,Orn_x,Orn_y,Orn_z,Pressure,
2021.02.11 12:30:10,50.0,14.0,-7.310196,14.550926,-15.67103,0.10607644,0.570625,9.638022,0.2050974,0.023873454,-0.03160853,-0.05913299694657326,-0.011005593463778496,0.4325997233390808,1017.31866,
2021.02.11 12:30:10,50.0,14.0,-7.2542343,14.328054,-14.198721,-0.37840286,0.7425068,9.251344,-0.029555585,-0.02002529,0.048484337,-0.08002105355262756,0.040879689157009125,0.47049376368522644,1017.31885,
2021.02.11 12:30:11,50.0,14.0,-7.2244644,13.861588,-14.359884,-0.053174186,0.7443986,9.72718,-0.014494387,-0.033977278,0.036991403,-0.07637768983840942,0.005466502625495195,0.4553487300872803,1017.31885,
2021.02.11 12:30:11,50.0,14.0,-7.5496674,14.628293,-14.277056,-0.07438004,0.7388057,9.611043,0.009242339,-0.032377977,0.022389784,-0.0767173320055008,0.007738863583654165,0.4545444846153259,1017.31885,
2021.02.11 12:30:11,50.0,14.0,-7.415291,14.328897,-15.113684,-0.084897816,0.66457856,9.975705,-0.057407077,0.02553752,0.012144102,-0.06651900708675385,0.00851025152951479,0.45813363790512085,1017.31885,
2021.02.11 12:30:11,50.0,14.0,-8.21344,15.138248,-13.941393,-0.17532103,0.7244187,9.7139435,0.04159223,-0.014079214,0.01559956,-0.07442527264356613,0.018046429380774498,0.4834344983100891,1017.31885,
2021.02.11 12:30:11,50.0,14.0,-7.6359406,14.469981,-14.554422,-0.058473486,0.69368345,9.704269,0.027392825,-0.0088664815,0.0057445667,-0.07135962694883347,0.006025469396263361,0.4631154537200928,1017.31885,
2021.02.11 12:30:11,50.0,14.0,-7.5317383,14.4200115,-14.2513485,-0.06218018,0.72292954,9.759473,0.039008513,-0.021601712,-0.0041007996,-0.07393811643123627,0.0063711777329444885,0.45883920788764954,1017.31885,
2021.02.11 12:30:11,50.0,14.0,-7.5856476,13.933434,-14.850821,-0.076803505,0.75654966,9.591062,-0.021638477,0.0079398835,-0.005407135,-0.07871519029140472,0.008007649332284927,0.47304657101631165,1017.31885,
2021.02.11 12:30:11,50.0,14.0,-7.2398987,14.640103,-14.344465,-0.031175189,0.7206519,9.735448,-0.025788365,0.012808956,-0.014577417,-0.07388836145401001,0.0032022236846387386,0.4355264902114868,1017.31885,
2021.02.11 12:30:11,50.0,14.0,-8.027748,13.0972395,-14.286589,-0.171881,0.7538657,9.74362,-0.0058359425,0.013117542,-0.013987571,-0.0772043988108635,0.01763853430747986,0.5293855667114258,1017.31885,
2021.02.11 12:30:11,50.0,14.0,-6.677498,14.205409,-15.078283,-0.03408173,0.71178275,9.77092,-0.003380288,-4.5760907E-4,0.0034188372,-0.07271816581487656,0.0034880638122558594,0.41532546281814575,1017.31885,
2021.02.11 12:30:11,50.0,14.0,-9.178925,14.492121,-15.362852,-0.061272442,0.70683545,9.822577,0.0022311213,-0.009183441,0.0030236193,-0.07183506339788437,0.006237838417291641,0.5377025008201599,1017.31885,
2021.02.11 12:30:11,50.0,14.0,-7.0440674,14.684743,-15.203566,-0.08224537,0.7245188,9.686951,0.035849884,-0.003378654,-0.0023547076,-0.07465159893035889,0.008490122854709625,0.4267970621585846,1017.31885,
2021.02.11 12:30:11,50.0,14.0,-6.658943,13.890258,-14.400465,-0.048753392,0.72964627,9.74343,0.011879897,-0.0045785224,-0.008159939,-0.0747455283999443,0.005003678146749735,0.42368730902671814,1017.31885,
2021.02.11 12:30:12,50.0,14.0,-8.408142,14.57324,-15.0308895,-0.02809193,0.6622774,9.7589,0.024374722,-0.004647414,-0.015403392,-0.06775976717472076,0.0028785879258066416,0.4976784288883209,1017.31866,
2021.02.11 12:30:12,50.0,14.0,-6.831909,14.007394,-14.169107,-0.019369392,0.6668778,9.614646,-0.013623102,0.004726684,-0.030697292,-0.06924957782030106,0.0020145687740296125,0.43014073371887207,1017.31824,
2021.02.11 12:30:12,50.0,14.0,-6.690399,13.293728,-14.858992,-0.1495406,0.7854274,9.643701,0.030765057,-0.0062021045,-0.0044321828,-0.08125551789999008,0.01550531480461359,0.44668999314308167,1017.3186,
2021.02.11 12:30:12,50.0,14.0,-7.9435196,14.029276,-15.577837,0.077797614,0.56099886,9.686597,0.014369655,0.0018233762,0.026708484,-0.05784847214818001,-0.008031296543776989,0.48293906450271606,1017.3186,
2021.02.11 12:30:12,50.0,14.0,-5.9676514,14.0014515,-14.813608,-0.06372194,0.59089583,9.593453,-0.0073544676,-5.4938986E-4,-0.0054720077,-0.061514586210250854,0.006642133928835392,0.3870135247707367,1017.3186,
2021.02.11 12:30:12,50.0,14.0,-6.486786,12.565736,-14.172529,-0.16182429,0.6114294,9.433976,-0.03562542,-0.020195054,-0.022579584,-0.06471141427755356,0.017151666805148125,0.46392160654067993,1017.31866,
2021.02.11 12:30:12,50.0,14.0,-7.95401,14.71439,-14.3039875,-0.1469643,0.69467574,9.936309,-0.114957795,0.010019645,0.016004452,-0.06979167461395264,0.014789554290473461,0.4803958535194397,1017.319,
2021.02.11 12:30:12,50.0,14.0,-7.0683517,15.035342,-14.138895,0.024315318,0.5994813,9.907815,-0.013248583,-0.049344447,0.03810039,-0.06043204665184021,-0.002454150468111038,0.41735386848449707,1017.31915,
2021.02.11 12:30:12,50.0,14.0,-7.8849716,14.640087,-14.443182,-0.047703233,0.68837386,9.597843,-0.04524016,0.022965314,0.040584166,-0.07159823924303055,0.004970162641257048,0.4707947373390198,1017.3192,
2021.02.11 12:30:12,50.0,14.0,-6.614502,15.715197,-14.909769,-0.0069701658,0.58169174,9.821105,-0.007297723,0.001652115,0.027764298,-0.059159621596336365,7.097128545865417E-4,0.3803759515285492,1017.3192,
2021.02.11 12:30:12,50.0,14.0,-7.258087,14.249011,-14.4794445,-0.06557279,0.67159015,9.8917055,-0.014848439,0.002508866,0.026478788,-0.0677887573838234,0.006628971081227064,0.45077189803123474,1017.3196,
2021.02.11 12:30:12,50.0,14.0,-6.330002,13.771084,-14.16213,0.02726386,0.6179316,9.901666,0.042983953,0.0021225791,-0.0030085994,-0.06232576444745064,-0.0027534549590200186,0.406164288520813,1017.31964,
2021.02.11 12:30:12,50.0,14.0,-7.7532654,15.92544,-14.994619,0.023488676,0.5750752,9.833538,0.06670106,-7.177134E-4,-0.02518416,-0.05841430649161339,-0.002388624707236886,0.43118980526924133,1017.3198,
2021.02.11 12:30:13,50.0,14.0,-6.8347626,15.3697605,-15.0462055,-0.053977292,0.6771552,9.725169,0.05749552,-0.002116418,-0.017634898,-0.06951587647199631,0.005550210829824209,0.39973512291908264,1017.3199,
2021.02.11 12:30:13,50.0,14.0,-6.564041,14.664704,-15.925978,-0.0393282,0.7053049,9.631865,0.048467487,-5.2449387E-4,-0.0056901965,-0.07309514284133911,0.004083111882209778,0.3975536525249481,1017.3199,
2021.02.11 12:30:13,50.0,14.0,-6.592064,13.656559,-14.46546,-0.061553095,0.7296669,9.716823,0.03089711,0.009953479,-0.01225893,-0.07495098561048508,0.0063346088863909245,0.4267706871032715,1017.3199,
2021.02.11 12:30:13,50.0,14.0,-8.650246,13.400539,-13.549185,-0.058570404,0.7504204,9.670259,0.025345111,-2.538351E-4,-5.514554E-4,-0.07744423300027847,0.006056681741029024,0.5449711680412292,1017.3199,
2021.02.11 12:30:13,50.0,14.0,-7.8601913,13.881933,-13.94306,-0.090788566,0.79991204,9.797842,0.008925611,0.0014933592,0.024642773,-0.08145750313997269,0.009265914559364319,0.49037420749664307,1017.3199,
2021.02.11 12:30:13,50.0,14.0,-8.205154,13.494668,-13.502344,0.03189928,0.7476619,9.739249,0.027695835,-0.0016650896,0.0061405865,-0.07661724090576172,-0.0032753210980445147,0.5129085779190063,1017.3198,
2021.02.11 12:30:13,50.0,14.0,-8.680878,13.523207,-15.045614,-0.022306696,0.77711517,9.72797,0.01507617,-0.0025366764,0.0026669307,-0.07971512526273727,0.0022930430714040995,0.5358628630638123,1017.3198,
2021.02.11 12:30:13,50.0,14.0,-7.8455353,13.111324,-14.4502735,-0.026289618,0.76665497,9.706508,0.021057725,-0.005303963,0.0012472514,-0.07881968468427658,0.0027084462344646454,0.5066691040992737,1017.3196,
2021.02.11 12:30:13,50.0,14.0,-7.395607,14.717117,-14.553541,-0.026172794,0.7840263,9.769765,0.017314337,-0.0028946036,0.0035452014,-0.0800783783197403,0.002678951947018504,0.4390127956867218,1017.3194,
2021.02.11 12:30:13,50.0,14.0,-6.70874,13.39805,-14.722864,-0.027356172,0.8127629,9.700495,0.01744099,0.0019503946,0.004014074,-0.08359014987945557,0.0028200726956129074,0.43362241983413696,1017.3194,
2021.02.11 12:30:13,50.0,14.0,-6.806839,14.279717,-14.962923,-0.0028512618,0.79703385,9.7355385,0.013628241,-0.0043603294,-0.0017130886,-0.08168631792068481,2.928714675363153E-4,0.4151555597782135,1017.31915,
2021.02.11 12:30:13,50.0,14.0,-7.035187,14.761667,-14.857687,-0.008851075,0.81683546,9.721095,0.009678027,8.2258444E-4,-0.0013636162,-0.08383014798164368,9.105015778914094E-4,0.4160411059856415,1017.319,
2021.02.11 12:30:13,50.0,14.0,-6.9193726,14.644265,-15.484232,-0.067881376,0.83547455,9.746735,0.0037999568,-0.008411374,-0.003220148,-0.08550732582807541,0.006964412052184343,0.4159318208694458,1017.3186,
2021.02.11 12:30:13,50.0,14.0,-6.876816,14.351433,-14.823126,-0.03370698,0.8223517,9.630403,-0.030379958,0.015510096,0.0056301705,-0.08518404513597488,0.003500045044347644,0.4189627766609192,1017.3186,
2021.02.11 12:30:14,50.0,14.0,-5.9823914,12.928007,-14.38397,-0.063078225,0.849531,9.778146,-0.01627241,0.0033659027,0.01662472,-0.08666117489337921,0.006450849585235119,0.40627631545066833,1017.3186,
2021.02.11 12:30:14,50.0,14.0,-6.787216,14.556169,-14.201445,0.062366296,0.78047943,9.657502,-0.0012927596,-0.003599641,0.014167329,-0.08063893765211105,-0.006457718089222908,0.40410980582237244,1017.3186,
2021.02.11 12:30:14,50.0,14.0,-7.5951996,13.698523,-15.245356,0.017614026,0.7877644,9.7260475,-0.011015518,0.020621305,-0.007383317,-0.080818772315979,-0.0018110137898474932,0.47032859921455383,1017.3186,
2021.02.11 12:30:14,50.0,14.0,-8.045296,14.423211,-14.419027,-0.11470678,0.8690602,9.788749,-0.009957571,0.0012389865,-0.024513924,-0.08854332566261292,0.011717690154910088,0.483757883310318,1017.3186,
2021.02.11 12:30:14,50.0,14.0,-7.412033,14.081859,-13.70764,-0.07313701,0.839257,9.786975,-0.0032571661,0.023878666,-0.012635818,-0.08554079383611679,0.007472753059118986,0.45921000838279724,1017.3186,
2021.02.11 12:30:14,50.0,14.0,-7.8495407,13.189558,-14.872759,0.019630246,0.7481654,9.648173,0.030150136,0.022558214,-0.006378896,-0.07738973945379257,-0.0020346047822386026,0.5003501176834106,1017.3186,
2021.02.11 12:30:14,50.0,14.0,-8.017586,15.0471735,-14.358385,-0.05439371,0.8085825,9.7308655,0.0010649911,-0.0034776563,-0.038279198,-0.08290286362171173,0.005589753855019808,0.4640105664730072,1017.3186,
2021.02.11 12:30:14,50.0,14.0,-8.063103,13.516262,-14.685751,-0.09340745,0.8281982,9.664128,-0.020818027,-0.0034034709,-0.027392,-0.08548532426357269,0.009665076620876789,0.508664071559906,1017.3186,
2021.02.11 12:30:14,50.0,14.0,-7.254425,13.982702,-15.505114,-0.124073535,0.8579162,9.812214,0.0043080514,-0.017110296,-0.025475098,-0.08720478415489197,0.012644131667912006,0.45385411381721497,1017.3188,
2021.02.11 12:30:14,50.0,14.0,-8.548988,13.391413,-14.3865185,-0.19001795,0.8676693,9.734823,0.013401665,-0.017146675,-0.032583334,-0.08887870609760284,0.019516926258802414,0.5438288450241089,1017.3194,
2021.02.11 12:30:14,50.0,14.0,-8.254425,14.720537,-13.725302,-0.13795727,0.83044505,9.719766,-0.0030498402,-0.022199469,-0.008463814,-0.0852232575416565,0.014192525297403336,0.4903613030910492,1017.3194,
2021.02.11 12:30:14,50.0,14.0,-7.122772,13.212022,-13.934259,-5.426037E-4,0.75707036,9.816699,-0.011631772,-0.027830636,0.028283719,-0.07696831226348877,5.5273540056077763E-5,0.4637254476547241,1017.3194,
2021.02.11 12:30:14,50.0,14.0,-6.8841476,14.126002,-15.171667,-0.048418466,0.7757013,9.701996,0.010790225,-0.011319585,0.01115592,-0.07978204637765884,0.004990526009351015,0.427219957113266,1017.3194,
2021.02.11 12:30:15,50.0,14.0,-7.4455566,14.052096,-13.848349,-0.045224786,0.75005454,9.674317,-9.4497576E-5,-0.007371944,0.015650315,-0.07737485319375992,0.0046746921725571156,0.46212443709373474,1017.3194,
2021.02.11 12:30:15,50.0,14.0,-7.4270935,12.736025,-14.322889,0.05255499,0.7728382,9.811745,0.007621887,-0.009908331,0.011288466,-0.07860323041677475,-0.005356283858418465,0.4886733293533325,1017.3194,
2021.02.11 12:30:15,50.0,14.0,-8.171219,12.729263,-14.261507,0.08464768,0.7046109,9.703568,0.0011305942,-0.0072265104,-0.008243313,-0.0724836140871048,-0.00872313417494297,0.5299808979034424,1017.3194,
2021.02.11 12:30:15,50.0,14.0,-7.9855804,13.4157295,-14.429712,0.03548041,0.7189927,9.737721,-0.004939074,-0.0077492897,-0.006417609,-0.07370159775018692,-0.003643588861450553,0.5022458434104919,1017.3194,
2021.02.11 12:30:15,50.0,14.0,-8.367638,14.078865,-14.769819,0.032838434,0.74527353,9.70572,-0.0023704628,-0.01319399,-0.008353241,-0.07663622498512268,-0.0033833973575383425,0.5015184879302979,1017.3191,
2021.02.11 12:30:15,50.0,14.0,-8.196182,13.30339,-14.407282,0.012613465,0.72984034,9.78568,-0.009513404,-0.006405645,-0.018017,-0.07444459944963455,-0.0012889710487797856,0.5183023810386658,1017.31903,
2021.02.11 12:30:15,50.0,14.0,-6.872139,13.422762,-15.144323,-0.03660118,0.7505708,9.681657,0.001523026,-0.010364887,-0.018605089,-0.07736972719430923,0.003780448343604803,0.4444321393966675,1017.31885,
2021.02.11 12:30:15,50.0,14.0,-8.194557,14.06447,-15.181879,0.029125944,0.72544336,9.823384,-0.009017078,-0.015533393,-0.0048776427,-0.0737144872546196,-0.002964951563626528,0.49362796545028687,1017.31885,
2021.02.11 12:30:15,50.0,14.0,-7.6783752,15.684355,-13.823496,-0.030576967,0.8071079,9.699332,0.002386914,-0.012576745,-0.006609654,-0.08302105218172073,0.0031524712685495615,0.4314132332801819,1017.3188,
2021.02.11 12:30:15,50.0,14.0,-7.7799835,13.287806,-15.917807,0.0048831427,0.7395525,9.7756605,0.0012353763,-8.580545E-4,0.005659699,-0.07550858706235886,-4.995204508304596E-4,0.49344292283058167,1017.3188,
2021.02.11 12:30:15,50.0,14.0,-8.905937,13.809065,-15.818003,0.0049490295,0.79996365,9.692673,0.0025171496,-6.7755755E-4,0.010729123,-0.08234617859125137,-5.105949239805341E-4,0.5335392951965332,1017.31866,
2021.02.11 12:30:15,50.0,14.0,-7.2053604,14.448792,-15.342745,0.12708421,0.6912503,9.74853,-0.0016150754,0.0061742375,0.022867985,-0.07078367471694946,-0.013035504147410393,0.4243457019329071,1017.31866,
2021.02.11 12:30:15,50.0,14.0,-7.99424,14.697723,-13.284338,0.08231631,0.76880765,9.73002,-0.0077975825,0.0037912568,-0.0011963195,-0.07884736359119415,-0.008459833450615406,0.4651605486869812,1017.31866,
2021.02.11 12:30:15,50.0,14.0,-7.0934067,14.737728,-15.182756,0.096168004,0.7131915,9.768845,-0.0034654555,0.040172156,-0.03414821,-0.07287392765283585,-0.0098440395668149,0.41384977102279663,1017.31866,
2021.02.11 12:30:16,50.0,14.0,-7.3161545,14.688876,-14.297071,-0.08925506,0.7936053,9.857136,0.05852342,-0.0029257732,-0.005542435,-0.08033417910337448,0.009054618887603283,0.44076552987098694,1017.31866,
2021.02.11 12:30:16,50.0,14.0,-7.5954514,13.479101,-13.847704,0.0024903168,0.84239715,9.5633,-0.004090388,-0.008150947,0.029770538,-0.08785967528820038,-2.604034962132573E-4,0.47832566499710083,1017.31866,
2021.02.11 12:30:16,50.0,14.0,-8.079514,14.922463,-14.772902,-0.05485038,0.8320703,9.640569,0.02560433,-7.763251E-4,-0.022839328,-0.08609450608491898,0.005689476616680622,0.468429833650589,1017.31866,
2021.02.11 12:30:16,50.0,14.0,-6.054886,14.910625,-15.084162,-0.018538507,0.7764683,9.745067,0.004286716,-0.0071883253,-0.005450786,-0.07950996607542038,0.0019023455679416656,0.36208632588386536,1017.31866,
2021.02.11 12:30:16,50.0,14.0,-8.3413925,14.126007,-14.491678,8.711877E-4,0.78974694,9.72907,-4.3804757E-4,-0.011819805,0.013101449,-0.08099634945392609,-8.954481018008664E-5,0.5003914833068848,1017.3188,
2021.02.11 12:30:16,50.0,14.0,-7.5188446,14.110085,-14.338175,0.033764247,0.7961653,9.750669,-0.0017536338,-9.090869E-4,0.022034744,-0.08147115260362625,-0.003462748369202018,0.4558986723423004,1017.31885,
2021.02.11 12:30:16,50.0,14.0,-8.726189,13.543706,-14.831198,0.067744635,0.7445416,9.771394,0.020720264,-0.010145664,0.008333843,-0.07604727894067764,-0.006932844407856464,0.5324240922927856,1017.319,
2021.02.11 12:30:16,50.0,14.0,-8.116089,13.979058,-14.277906,-0.03886802,0.8241232,9.664248,-0.008486891,0.004911444,0.028341707,-0.0850689709186554,0.004021814092993736,0.49505436420440674,1017.31903,
2021.02.11 12:30:16,50.0,14.0,-9.454826,14.089514,-15.360792,0.07425207,0.7818086,9.703397,-0.0077183195,0.003925165,0.025888108,-0.08039459586143494,-0.00765202334150672,0.5484145879745483,1017.3191,
2021.02.11 12:30:16,50.0,14.0,-7.9537888,12.950703,-14.424494,0.07454664,0.7811473,9.678443,0.008296606,0.0019487499,0.017018098,-0.08053307235240936,-0.007702185772359371,0.5083765983581543,1017.3191,
2021.02.11 12:30:16,50.0,14.0,-7.504883,14.092698,-14.97114,0.07763501,0.79727936,9.737352,-0.0038697761,0.0056388,0.0136101935,-0.0816936269402504,-0.007972738705575466,0.45042234659194946,1017.3194,
2021.02.11 12:30:16,50.0,14.0,-9.543419,13.686354,-14.702154,0.09253919,0.7818833,9.690019,-0.001945233,0.0012678482,0.0040691216,-0.08051146566867828,-0.009549658745527267,0.5650104880332947,1017.3194,
2021.02.11 12:30:16,50.0,14.0,-8.117882,13.972471,-14.062902,0.060655486,0.784544,9.795293,-0.009078398,0.0051490273,-0.010783438,-0.07992184162139893,-0.006192230153828859,0.4900363087654114,1017.3194,
2021.02.11 12:30:17,50.0,14.0,-7.293495,13.884678,-14.15085,0.041215975,0.78010005,9.7201,-4.8628263E-4,-0.0048284633,-0.015473053,-0.08008401840925217,-0.004240257199853659,0.4499906897544861,1017.3194,
2021.02.11 12:30:17,50.0,14.0,-7.212555,13.907383,-15.709265,0.058212508,0.7704038,9.727405,8.504838E-6,-0.0044624424,-0.019331977,-0.07903293520212173,-0.0059843105264008045,0.44032758474349976,1017.3194,
2021.02.11 12:30:17,50.0,14.0,-7.7214966,14.399893,-15.254747,0.03453565,0.7993284,9.737683,0.0019375545,-0.0071572936,-0.01590861,-0.08190195262432098,-0.0035465832334011793,0.4567747116088867,1017.3194,
2021.02.11 12:30:17,50.0,14.0,-6.4732285,14.052368,-14.538378,0.04364705,0.7581442,9.762241,0.008562766,-0.0054747076,-0.016828297,-0.07750453054904938,-0.00447097746655345,0.4004419445991516,1017.3194,
2021.02.11 12:30:17,50.0,14.0,-8.06868,13.284145,-14.596262,0.009801802,0.77750045,9.6887865,0.017302535,-0.0059922044,-0.012609681,-0.08007582277059555,-0.001011664280667901,0.5096652507781982,1017.3194,
2021.02.11 12:30:17,50.0,14.0,-6.8981476,13.887566,-15.096823,0.05595943,0.7420459,9.777034,-4.550116E-4,0.0034074858,-0.005307663,-0.07575035840272903,-0.005723496433347464,0.4264359474182129,1017.3194,
2021.02.11 12:30:17,50.0,14.0,-8.308563,14.337893,-14.83993,7.95352E-4,0.7339368,9.70675,0.014379716,0.0093801245,-0.005673703,-0.07546737790107727,-8.193803660105914E-5,0.4942643642425537,1017.3194,
2021.02.11 12:30:17,50.0,14.0,-7.9058304,13.523624,-14.405485,-0.024885431,0.80068225,9.691427,0.013730869,0.012958944,-0.0040514246,-0.08243010193109512,0.002567772287875414,0.4964653253555298,1017.3197,
2021.02.11 12:30:17,50.0,14.0,-7.85334,13.604727,-14.689035,0.0707944,0.74461055,9.795525,7.974729E-5,0.02182395,0.011415696,-0.07586750388145447,-0.007227093446999788,0.48548898100852966,1017.32056,
2021.02.11 12:30:17,50.0,14.0,-7.7808228,14.613905,-14.351503,-0.09540221,0.85524756,9.674064,0.010842752,-0.007576102,0.018565318,-0.08817272633314133,0.009861328639090061,0.46440213918685913,1017.32056,
2021.02.11 12:30:17,50.0,14.0,-7.908493,13.527167,-14.684038,-0.06633943,0.83127123,9.595195,-0.031284306,0.013377958,0.032110617,-0.08641629666090012,0.006913708057254553,0.4977874159812927,1017.3221,
2021.02.11 12:30:17,50.0,14.0,-8.262833,13.067253,-14.803324,0.12287312,0.7759089,9.888425,-0.009284247,-0.054595675,0.008492466,-0.07829990983009338,-0.01242531556636095,0.5174413919448853,1017.32355,
2021.02.11 12:30:17,50.0,14.0,-7.389763,13.753281,-14.430483,0.11589646,0.83525443,9.947124,0.08153148,-0.07609764,-0.011272704,-0.08376726508140564,-0.011650726199150085,0.4507696032524109,1017.3243,
2021.02.11 12:30:17,50.0,14.0,-9.313873,12.994617,-14.901873,0.34296927,0.92849094,9.186803,0.1745004,-0.14705476,-0.013163384,-0.10065622627735138,-0.0373154878616333,0.5442425608634949,1017.3243,
