Time,X-cord,Y-cord,Mag_x,Mag_y,Mag_z,Acc_x,Acc_y,Acc_z,Gyro_x,Gyro_y,Gyro_z,Orn_x,Orn_y,Orn_z,Pressure,
2021.02.11 12:31:39,48.0,18.0,5.320259,-20.684395,-14.312117,0.04741026,0.40753385,10.476266,0.1333148,-0.065059535,-0.041371927,-0.03888067230582237,-0.004525461234152317,-2.8799970149993896,1017.55493,
2021.02.11 12:31:39,48.0,18.0,4.2165604,-20.882065,-15.068525,-0.07660967,0.71366286,9.528669,0.07190745,0.0031579807,-0.03370391,-0.07475440204143524,0.008039738982915878,-2.9365878105163574,1017.575,
2021.02.11 12:31:40,48.0,18.0,4.379883,-22.13234,-13.802103,0.31095067,0.47217974,9.733738,0.035668276,-0.067849636,0.036605082,-0.048446930944919586,-0.03193479776382446,-2.9205801486968994,1017.57697,
2021.02.11 12:31:40,48.0,18.0,4.4134064,-20.181816,-13.501135,0.07475047,0.6009986,9.681168,0.07636187,-0.042359952,-0.023284566,-0.061997734010219574,-0.007721071131527424,-2.9117636680603027,1017.577,
2021.02.11 12:31:40,48.0,18.0,5.000038,-20.042828,-15.364473,-0.05049188,0.7266757,9.578936,0.06696207,-0.036968797,-0.0426641,-0.07571576535701752,0.00527108833193779,-2.8859574794769287,1017.57733,
2021.02.11 12:31:40,48.0,18.0,4.169426,-20.005215,-14.262182,0.24836986,0.5283638,9.680187,-0.0148075,0.008805772,0.014621562,-0.054509975016117096,-0.025651918724179268,-2.909754514694214,1017.57764,
2021.02.11 12:31:40,48.0,18.0,5.576271,-22.496204,-13.976004,0.22915727,0.5704407,9.736134,-0.031628374,-0.0016654829,-0.01108735,-0.05850699916481972,-0.023532439023256302,-2.8753628730773926,1017.57764,
2021.02.11 12:31:40,48.0,18.0,3.9904404,-22.128525,-13.309462,0.030898497,0.74018115,9.686784,-0.040659986,0.0035946327,0.024070196,-0.07626286149024963,-0.0031897472217679024,-2.9523110389709473,1017.5778,
2021.02.11 12:31:40,48.0,18.0,4.6482086,-20.34272,-13.719168,0.22828026,0.5275366,9.759515,-0.045982584,-0.008739216,0.017451327,-0.05398627370595932,-0.023386269807815552,-2.89310622215271,1017.57825,
2021.02.11 12:31:40,48.0,18.0,2.2720718,-21.631306,-12.0096,0.2846862,0.491508,9.848668,-0.007581933,-0.014413178,-0.02390927,-0.049843885004520416,-0.02889801375567913,-3.017616033554077,1017.57825,
2021.02.11 12:31:40,48.0,18.0,3.5307693,-21.683304,-13.609526,0.15176077,0.57939774,9.733058,-0.011425898,-0.004782395,-0.0092491675,-0.059451475739479065,-0.015591038390994072,-2.9639010429382324,1017.57825,
2021.02.11 12:31:40,48.0,18.0,3.5406418,-20.545208,-13.65571,0.12992756,0.55458146,9.83724,-0.024650136,0.009091325,-0.010841731,-0.05631120130419731,-0.01320695597678423,-2.9553565979003906,1017.57825,
2021.02.11 12:31:40,48.0,18.0,4.7534103,-20.521732,-14.16572,0.16336063,0.5806183,9.781521,-0.014365453,0.0026819874,-0.016814515,-0.0592808835208416,-0.01669939048588276,-2.892954111099243,1017.57837,
2021.02.11 12:31:40,48.0,18.0,5.223633,-20.440506,-13.888201,0.15834758,0.5159311,9.8027725,-0.001694089,0.0090932995,-0.029741049,-0.05257577821612358,-0.016151942312717438,-2.871652126312256,1017.5788,
2021.02.11 12:31:40,48.0,18.0,3.7638779,-21.375446,-13.923597,0.09445874,0.5002952,9.689784,-0.010612872,0.024371386,-0.0448088,-0.051582951098680496,-0.009747972711920738,-2.9547886848449707,1017.57904,
2021.02.11 12:31:40,48.0,18.0,3.6059952,-20.582092,-13.884867,-0.06083188,0.580089,9.726532,-0.022686329,0.020337582,-0.007865933,-0.0595681369304657,0.006254138890653849,-2.9649782180786133,1017.5793,
2021.02.11 12:31:41,48.0,18.0,4.394684,-21.455524,-13.162855,0.04880159,0.5542292,9.835359,0.010796692,0.008290271,0.011152129,-0.05629046633839607,-0.004961810540407896,-2.929203748703003,1017.5793,
2021.02.11 12:31:41,48.0,18.0,4.395523,-21.490566,-13.51338,0.007884196,0.54963905,9.615235,0.025989022,0.0025443153,0.0078498125,-0.057101186364889145,-8.199689327739179E-4,-2.931692123413086,1017.5793,
2021.02.11 12:31:41,48.0,18.0,4.195709,-21.4982,-13.602827,0.11844944,0.5598758,9.830498,0.0016787592,0.0032037112,0.027883537,-0.056887365877628326,-0.012048598378896713,-2.933962821960449,1017.5793,
2021.02.11 12:31:41,48.0,18.0,3.5225067,-22.21516,-13.62805,0.06252331,0.6152388,9.741773,0.010031913,-0.006975142,0.026447158,-0.063069649040699,-0.006417975295335054,-2.97381329536438,1017.5793,
2021.02.11 12:31:41,48.0,18.0,3.6028976,-20.72733,-14.472876,0.117880024,0.54670745,9.747879,0.025330314,-0.0022921525,0.03062345,-0.056021977216005325,-0.01209229975938797,-2.9538733959198,1017.5793,
2021.02.11 12:31:41,48.0,18.0,3.1226578,-22.422844,-13.845724,0.13617249,0.57809293,9.689208,0.030460572,-0.010781547,0.022729602,-0.05958707258105278,-0.014053111895918846,-2.9889519214630127,1017.57904,
2021.02.11 12:31:41,48.0,18.0,3.04879,-21.945782,-13.396978,0.15346915,0.5568037,9.675614,-0.010039611,-0.0031482663,0.0012692478,-0.057476505637168884,-0.01586010679602623,-2.988567590713501,1017.57904,
2021.02.11 12:31:41,48.0,18.0,3.898758,-22.450573,-13.536936,0.076439805,0.6459873,9.742269,-0.017593376,-0.013456145,0.008637857,-0.06620873510837555,-0.007846040651202202,-2.9574968814849854,1017.57904,
2021.02.11 12:31:41,48.0,18.0,3.6925507,-21.56364,-13.321466,0.14331883,0.62142235,9.776393,-0.043899607,0.0064544845,-0.001365942,-0.06347135454416275,-0.01465863361954689,-2.955770492553711,1017.57904,
2021.02.11 12:31:41,48.0,18.0,4.24263,-21.1124,-14.18535,0.15277761,0.5988354,9.808467,-0.03127046,-0.0054621934,-0.009307817,-0.06096983700990677,-0.015574835240840912,-2.924278497695923,1017.57904,
2021.02.11 12:31:41,48.0,18.0,4.315193,-21.475197,-13.801992,0.06930826,0.607042,9.717896,-0.015845407,-0.0077224695,-0.014561359,-0.06238375976681709,-0.007131902035325766,-2.9302852153778076,1017.57904,
2021.02.11 12:31:41,48.0,18.0,4.58152,-19.671677,-14.560873,0.11572649,0.5946453,9.838361,-0.01835567,-0.008051464,-0.004683332,-0.06036389619112015,-0.011762239970266819,-2.8934919834136963,1017.57904,
2021.02.11 12:31:41,48.0,18.0,4.181259,-21.179691,-13.691893,0.089900546,0.57629323,9.836529,-0.0054782936,6.106848E-5,-0.006513831,-0.05851771682500839,-0.009139204397797585,-2.9330108165740967,1017.57904,
2021.02.11 12:31:42,48.0,18.0,4.4588776,-22.309334,-13.585299,0.10458838,0.55937386,9.636425,0.030219061,0.004560658,0.0032813074,-0.05797938257455826,-0.010853015817701817,-2.9304282665252686,1017.57904,
2021.02.11 12:31:42,48.0,18.0,3.7521286,-20.491753,-13.506338,0.076675855,0.60572475,9.768591,0.010575377,0.011823742,1.2057321E-4,-0.06192619353532791,-0.007849062792956829,-2.947417736053467,1017.57904,
2021.02.11 12:31:42,48.0,18.0,3.715477,-20.051159,-13.698278,0.15134038,0.61276156,9.744199,0.0127924485,-0.0020627761,0.013021368,-0.0627945065498352,-0.015530083328485489,-2.9393527507781982,1017.57904,
2021.02.11 12:31:42,48.0,18.0,2.7753525,-21.433525,-13.995058,0.16218396,0.6013096,9.730071,0.010544065,0.0068831816,0.016082227,-0.061712052673101425,-0.016666779294610023,-2.9961185455322266,1017.57855,
2021.02.11 12:31:42,48.0,18.0,3.4713974,-20.332027,-13.387716,0.15705787,0.6283402,9.727276,0.012951994,-0.0018208957,0.0046337433,-0.0644977018237114,-0.016144726425409317,-2.954066038131714,1017.5784,
2021.02.11 12:31:42,48.0,18.0,3.9715118,-22.441975,-14.42716,0.14096935,0.65872216,9.767953,-6.477743E-4,0.003797961,-0.0022728452,-0.06732813268899918,-0.0144308190792799,-2.948941230773926,1017.57837,
2021.02.11 12:31:42,48.0,18.0,3.827507,-22.386135,-14.018038,0.0867885,0.6509573,9.747571,0.015581212,-0.0010621975,-0.007650406,-0.06667984277009964,-0.008903366513550282,-2.9590089321136475,1017.5783,
2021.02.11 12:31:42,48.0,18.0,4.2023544,-21.95303,-14.562197,0.16346537,0.63245684,9.705913,-0.0045161936,7.097574E-4,-0.0120325675,-0.0650608241558075,-0.016840241849422455,-2.9325718879699707,1017.57806,
2021.02.11 12:31:42,48.0,18.0,3.8258057,-22.303848,-13.3226795,0.05014758,0.6445641,9.759636,0.009588857,0.0038545523,-0.024318527,-0.06594722718000412,-0.0051382179372012615,-2.9614145755767822,1017.57794,
2021.02.11 12:31:42,48.0,18.0,4.04274,-21.142479,-14.178873,0.095330656,0.6682449,9.725951,0.009276731,-0.0056606433,-0.008833311,-0.06859631836414337,-0.009801365435123444,-2.9367170333862305,1017.57794,
2021.02.11 12:31:42,48.0,18.0,3.8866425,-21.212868,-13.817308,0.18355674,0.6107798,9.665082,7.538878E-4,0.004084042,7.86304E-4,-0.0630992129445076,-0.018989456817507744,-2.9400582313537598,1017.57776,
2021.02.11 12:31:42,48.0,18.0,4.679802,-21.949257,-13.242075,0.0766365,0.67437595,9.753714,-0.0153908925,0.0035932525,-0.012624559,-0.06902845203876495,-0.007856999523937702,-2.9174768924713135,1017.57776,
2021.02.11 12:31:42,48.0,18.0,4.597931,-21.82072,-13.532404,0.14993462,0.61679053,9.717736,-0.023364369,0.0039523803,-0.01680769,-0.06337805837392807,-0.015427741222083569,-2.9158177375793457,1017.57745,
2021.02.11 12:31:42,48.0,18.0,4.329468,-21.399712,-13.885168,0.13761848,0.6347485,9.8172035,-0.00966505,-0.0025145393,-0.024832897,-0.06456055492162704,-0.014017175883054733,-2.9240293502807617,1017.57745,
2021.02.11 12:31:43,48.0,18.0,3.874916,-22.325226,-14.350199,0.085808955,0.63248396,9.743112,-0.006899788,0.0031851816,-0.025046483,-0.06482254713773727,-0.008806913159787655,-2.956342935562134,1017.5774,
2021.02.11 12:31:43,48.0,18.0,2.4569702,-20.732841,-12.783743,0.08424487,0.5980566,9.720151,-0.008205475,-0.002057273,-0.024842728,-0.061447735875844955,-0.008666817098855972,-3.013336658477783,1017.5773,
2021.02.11 12:31:43,48.0,18.0,4.153496,-20.70403,-14.391375,0.04547948,0.6111362,9.6919565,-0.0071949144,0.0032296623,-0.030271381,-0.06297194957733154,-0.0046924627386033535,-2.93112850189209,1017.57715,
2021.02.11 12:31:43,48.0,18.0,5.288246,-21.142368,-14.010752,0.10792967,0.5613988,9.788769,-0.017477166,5.380426E-4,-0.011952421,-0.05728508532047272,-0.01102542132139206,-2.8797638416290283,1017.57715,
2021.02.11 12:31:43,48.0,18.0,4.435875,-20.780643,-14.382254,0.039773416,0.61273664,9.726909,-0.008538759,0.001618916,-0.017836865,-0.06291032582521439,-0.004088986199349165,-2.9187703132629395,1017.5763,
2021.02.11 12:31:43,48.0,18.0,3.8428116,-21.830132,-13.972166,0.10178695,0.5962105,9.773463,-0.010510284,-0.0025866288,-0.0059269643,-0.060924187302589417,-0.010414248332381248,-2.953404664993286,1017.5744,
2021.02.11 12:31:43,48.0,18.0,3.9018784,-20.787815,-13.526224,0.09166927,0.606023,9.758735,-0.003794608,-0.0037441158,-4.0292973E-4,-0.062018197029829025,-0.009393285028636456,-2.941957712173462,1017.57336,
2021.02.11 12:31:43,48.0,18.0,4.0483475,-20.954609,-13.824469,0.0944953,0.57756996,9.773007,0.0028898483,-0.0016185312,-0.012810572,-0.05902707949280739,-0.009668707847595215,-2.936516761779785,1017.5731,
2021.02.11 12:31:43,48.0,18.0,5.383972,-20.558716,-13.649469,0.095678926,0.6053894,9.6816025,-0.013933534,0.0055118026,-0.002199801,-0.06244553253054619,-0.009882229380309582,-2.8680684566497803,1017.57275,
2021.02.11 12:31:43,48.0,18.0,4.6277695,-20.498573,-13.572386,0.085849844,0.58749765,9.780289,0.0068135206,-3.4042224E-4,-0.0063737994,-0.05999516323208809,-0.008777618408203125,-2.904574155807495,1017.5726,
2021.02.11 12:31:43,48.0,18.0,4.4509735,-20.542114,-13.605967,0.080486506,0.57975394,9.683188,-0.011487938,0.004979073,-0.0031959878,-0.059798769652843475,-0.008311792276799679,-2.913877010345459,1017.5725,
2021.02.11 12:31:43,48.0,18.0,2.8406525,-20.687557,-13.090128,0.0759164,0.5990854,9.767185,-0.002836559,-0.007707073,-0.0013226098,-0.06125795468688011,-0.007772441487759352,-2.9944279193878174,1017.5722,
2021.02.11 12:31:43,48.0,18.0,4.886238,-20.692345,-13.954012,0.10783041,0.5438059,9.752961,-0.0088563645,0.0052389065,0.0017542015,-0.05569695681333542,-0.0110557209700346,-2.893371105194092,1017.5721,
2021.02.11 12:31:43,48.0,18.0,3.8420715,-20.193707,-14.551443,0.06443887,0.61246604,9.72908,0.0028443746,-0.0046272594,0.0025203582,-0.06286776065826416,-0.00662322947755456,-2.939697504043579,1017.57196,
2021.02.11 12:31:44,48.0,18.0,4.277794,-21.02464,-13.77696,0.088716626,0.5409546,9.770177,-0.0031506259,-0.003314809,0.005607386,-0.055309195071458817,-0.009080099873244762,-2.927332878112793,1017.5703,
2021.02.11 12:31:44,48.0,18.0,4.3290176,-21.489082,-13.850885,0.0910107,0.61377364,9.743153,-0.0013376402,-1.3805568E-4,0.0045022415,-0.06290951371192932,-0.009340719319880009,-2.9282445907592773,1017.5703,
2021.02.11 12:31:44,48.0,18.0,4.085228,-21.9099,-12.899797,0.080833465,0.5746239,9.740191,0.0019219335,-0.0044889515,0.009790738,-0.05892480909824371,-0.00829876959323883,-2.9455957412719727,1017.5703,
2021.02.11 12:31:44,48.0,18.0,4.2595596,-21.625252,-13.000437,0.098220505,0.5582762,9.768781,0.0030194113,-0.007212303,0.0020184303,-0.057084038853645325,-0.010054192505776882,-2.934077501296997,1017.5703,
2021.02.11 12:31:44,48.0,18.0,4.265999,-21.02185,-14.030012,0.08987993,0.59880054,9.703809,-0.010215014,0.004777609,0.007744641,-0.06162700057029724,-0.009262070059776306,-2.9264988899230957,1017.5694,
2021.02.11 12:31:44,48.0,18.0,3.8183746,-20.80383,-13.965345,0.080300145,0.5799857,9.695868,0.0047958507,-0.0012154573,0.0010989467,-0.05974458530545235,-0.008281704038381577,-2.9467575550079346,1017.56934,
2021.02.11 12:31:44,48.0,18.0,3.9739075,-20.50763,-12.978113,0.11997745,0.5686894,9.789023,-0.006219365,-0.0087213,-0.0026208654,-0.05802503228187561,-0.012255711480975151,-2.935049533843994,1017.569,
2021.02.11 12:31:44,48.0,18.0,4.201828,-20.87059,-13.892546,0.101921566,0.5768018,9.728042,-0.0057717287,0.0014020542,-0.0043719355,-0.05922010913491249,-0.010476706549525261,-2.9277141094207764,1017.569,
2021.02.11 12:31:44,48.0,18.0,3.051468,-20.528133,-13.7891865,0.090403914,0.5620001,9.806565,0.0104447855,-0.0037118734,-0.008501878,-0.05724351108074188,-0.00921845156699419,-2.9816863536834717,1017.569,
2021.02.11 12:31:44,48.0,18.0,4.3937683,-19.855728,-14.461992,0.06729721,0.56705713,9.706496,-0.006046665,0.0033365765,0.003869244,-0.058352649211883545,-0.00693310284987092,-2.9091060161590576,1017.569,
2021.02.11 12:31:44,48.0,18.0,3.923355,-21.667812,-14.445063,0.05974203,0.6074836,9.736432,-0.0062051457,0.003171767,0.008941382,-0.062310896813869476,-0.0061358492821455,-2.950404167175293,1017.569,
2021.02.11 12:31:44,48.0,18.0,3.3365555,-20.737064,-13.63571,0.10813594,0.52419305,9.718712,-0.049236402,-0.003249398,0.0053363405,-0.05388093739748001,-0.011126111261546612,-2.9687118530273438,1017.569,
2021.02.11 12:31:44,48.0,18.0,4.514702,-20.673294,-13.249891,0.07873245,0.52931863,9.831558,-0.08349768,-0.0054921024,0.005391863,-0.053785085678100586,-0.008007964119315147,-2.913806915283203,1017.569,
2021.02.11 12:31:45,48.0,18.0,4.414978,-20.148033,-14.41852,0.19363244,0.48052302,9.70614,-0.017800367,-6.116554E-4,-0.0031978101,-0.04945690929889679,-0.019946832209825516,-2.9040000438690186,1017.569,
2021.02.11 12:31:45,48.0,18.0,4.0710373,-19.941296,-13.871317,0.12328907,0.48344263,9.7745695,-0.006066828,-0.0035731446,-0.009288694,-0.04941502958536148,-0.012612579390406609,-2.9243433475494385,1017.569,
2021.02.11 12:31:45,48.0,18.0,4.4428024,-20.64775,-13.339373,0.08725792,0.5192479,9.6783285,-0.031855002,7.433594E-4,0.0037793983,-0.053597014397382736,-0.009015560150146484,-2.916260242462158,1017.569,
2021.02.11 12:31:45,48.0,18.0,4.658043,-22.23491,-14.182482,0.17611615,0.4618255,9.814816,-0.00804029,-0.01102553,-0.014527233,-0.04701167345046997,-0.017941981554031372,-2.9174764156341553,1017.569,
2021.02.11 12:31:45,48.0,18.0,3.9077072,-20.465252,-14.335611,0.12737137,0.44877633,9.72762,-0.00841442,-5.021016E-4,-0.007124775,-0.04609760269522667,-0.013093037530779839,-2.937499523162842,1017.569,
2021.02.11 12:31:45,48.0,18.0,4.250023,-19.700733,-14.150362,0.06846852,0.48753944,9.77509,-0.006382996,0.0058847265,-0.011225099,-0.049833182245492935,-0.007004272658377886,-2.916262149810791,1017.569,
2021.02.11 12:31:45,48.0,18.0,3.2907486,-21.730114,-13.586439,0.13999493,0.41269597,9.7448845,-6.0275116E-4,-0.0029983288,-0.0041178563,-0.042320359498262405,-0.014365004375576973,-2.9781665802001953,1017.56934,
2021.02.11 12:31:45,48.0,18.0,3.3720245,-20.756512,-13.981493,0.060687423,0.4942713,9.735096,-0.00863806,0.0042420304,-0.0031005626,-0.05072755739092827,-0.006233799271285534,-2.970515251159668,1017.5694,
2021.02.11 12:31:45,48.0,18.0,4.3966446,-21.282944,-13.737455,0.14533532,0.39331055,9.735577,-0.005226857,0.0060508032,0.004137233,-0.040372855961322784,-0.014927160926163197,-2.9230096340179443,1017.5703,
2021.02.11 12:31:45,48.0,18.0,4.494095,-20.026653,-13.620104,0.072648145,0.48242712,9.801702,-0.01750199,-0.007657288,0.006713612,-0.04917767271399498,-0.007411653641611338,-2.9082679748535156,1017.5703,
2021.02.11 12:31:45,48.0,18.0,4.391693,-20.172329,-13.619337,0.15524851,0.4141852,9.745068,0.0018704718,-2.8553515E-4,-0.0036737989,-0.04247109219431877,-0.015929633751511574,-2.910440444946289,1017.5705,
2021.02.11 12:31:45,48.0,18.0,4.666191,-19.998901,-14.91646,0.098629214,0.45265588,9.720327,0.006505524,-0.001467528,-0.015766006,-0.046531956642866135,-0.010146347805857658,-2.8968148231506348,1017.5707,
2021.02.11 12:31:45,48.0,18.0,3.9270172,-18.998589,-14.287012,0.094948925,0.44054338,9.798631,-0.012421919,8.5346866E-4,-0.009845805,-0.04492732509970665,-0.009689715690910816,-2.923452377319336,1017.57166,
2021.02.11 12:31:46,48.0,18.0,4.9232635,-20.104298,-14.183229,0.1284767,0.39961496,9.761797,0.005071733,-0.002185353,-0.008220391,-0.04091023653745651,-0.013160412199795246,-2.88545560836792,1017.57324,
2021.02.11 12:31:46,48.0,18.0,2.9479752,-21.367203,-15.164087,0.12503386,0.4237043,9.752452,-6.47006E-4,0.005552168,-0.016516984,-0.04341505467891693,-0.01282005850225687,-2.9908814430236816,1017.5733,
2021.02.11 12:31:46,48.0,18.0,4.435005,-21.18787,-13.672602,0.044528004,0.4589311,9.713736,-5.1369925E-4,0.0030362138,-0.004550726,-0.047209981828927994,-0.004583992529660463,-2.9258217811584473,1017.5743,
2021.02.11 12:31:46,48.0,18.0,5.107216,-21.100166,-14.523783,0.099219896,0.4146825,9.798828,6.0877454E-4,0.0020795048,0.0022496344,-0.04229220002889633,-0.010125343687832355,-2.89034104347229,1017.5746,
2021.02.11 12:31:46,48.0,18.0,4.5918045,-20.065392,-14.548037,0.085160315,0.46418068,9.727323,-8.997411E-4,-0.012295672,0.0063616186,-0.04768126457929611,-0.008754529990255833,-2.902400016784668,1017.5754,
2021.02.11 12:31:46,48.0,18.0,3.7218552,-20.914486,-13.388208,0.085905224,0.45392367,9.667053,0.009164419,-0.0045884186,0.0086086765,-0.046919435262680054,-0.008886157535016537,-2.9542925357818604,1017.57544,
2021.02.11 12:31:46,48.0,18.0,4.738472,-20.833992,-14.141394,0.12913296,0.46787825,9.868016,-0.008293491,0.004140901,-0.0021950754,-0.04737407714128494,-0.013085261918604374,-2.9018948078155518,1017.5761,
2021.02.11 12:31:46,48.0,18.0,3.8991013,-20.794434,-14.404486,0.2475561,0.39933097,9.565869,-0.019110879,0.0018590145,-0.011357624,-0.041707221418619156,-0.025873327627778053,-2.9330532550811768,1017.5771,
2021.02.11 12:31:46,48.0,18.0,3.4693985,-19.800354,-14.012373,0.102833025,0.45463657,9.942818,0.026938567,0.005546248,-0.019123716,-0.04569085314869881,-0.010342074558138847,-2.954977035522461,1017.5775,
2021.02.11 12:31:46,48.0,18.0,5.1656036,-20.120953,-14.697966,-0.020717504,0.540816,9.599115,-0.007184746,-4.1281185E-4,0.0322945,-0.05628056824207306,0.0021582688204944134,-2.881115436553955,1017.5775,
2021.02.11 12:31:46,48.0,18.0,4.5141296,-20.954128,-13.032282,0.21461873,0.38611445,9.914906,0.05669143,-0.027146801,-0.001637501,-0.03891405090689659,-0.021642690524458885,-2.9111127853393555,1017.5775,
2021.02.11 12:31:46,48.0,18.0,4.0511703,-19.50513,-13.765734,0.15294008,0.51718616,9.694315,0.06361697,-0.028239321,-0.010249053,-0.053292278200387955,-0.015774955973029137,-2.917762279510498,1017.57776,
2021.02.11 12:31:46,48.0,18.0,4.9649277,-20.995438,-13.694723,0.20290971,0.6244221,9.8844795,0.07749205,-0.037579384,0.008304298,-0.06307487934827805,-0.02052523009479046,-2.886306047439575,1017.5784,
2021.02.11 12:31:47,48.0,18.0,3.0632172,-20.763702,-13.484777,0.32482848,0.6194175,9.84129,0.060486246,-0.05746588,0.035814285,-0.06282364577054977,-0.03299471735954285,-2.9670355319976807,1017.5784,
2021.02.11 12:31:47,48.0,18.0,3.7740784,-21.615738,-13.114317,0.1549349,0.75597686,9.355554,0.14551643,-0.10239398,-0.012544871,-0.0806189477443695,-0.01655922643840313,-2.9492788314819336,1017.57855,
2021.02.11 12:31:47,48.0,18.0,4.1982574,-21.182053,-14.177336,0.42095974,0.72014856,9.733204,-0.037264053,-0.046632767,0.018584695,-0.07378555089235306,-0.043222930282354355,-2.9067790508270264,1017.5792,
