Time,X-cord,Y-cord,Mag_x,Mag_y,Mag_z,Acc_x,Acc_y,Acc_z,Gyro_x,Gyro_y,Gyro_z,Orn_x,Orn_y,Orn_z,Pressure,
2021.02.11 12:29:20,48.0,14.0,11.208397,-30.198353,-19.894926,0.16772825,0.41476074,10.389891,0.021060068,-0.0059962836,-0.0030758479,-0.039893265813589096,-0.01614200510084629,-2.7677688598632812,1017.2032,
2021.02.11 12:29:20,48.0,14.0,12.312134,-29.009186,-19.61252,0.01661996,0.4854493,9.45411,0.13152015,-0.02993891,-0.02488954,-0.05130283161997795,-0.0017579593695700169,-2.725847005844116,1017.2331,
2021.02.11 12:29:20,48.0,14.0,10.427605,-29.86158,-20.623354,0.038789403,0.46122256,9.804454,0.030290954,-0.06740959,-0.024746459,-0.04700712859630585,-0.003956283908337355,-2.7923920154571533,1017.2331,
2021.02.11 12:29:20,48.0,14.0,11.544502,-28.81572,-20.7032,-0.28888246,0.7012865,9.913543,0.012331298,-0.0611499,-0.038183123,-0.0705927312374115,0.029131941497325897,-2.760064125061035,1017.2331,
2021.02.11 12:29:20,48.0,14.0,11.382019,-31.074684,-19.928728,-0.45589945,0.706431,10.072223,0.035441514,-0.02722744,-0.018821055,-0.06995050609111786,0.04523216933012009,-2.8013274669647217,1017.2331,
2021.02.11 12:29:20,48.0,14.0,11.041801,-31.388737,-18.95402,0.2608844,0.52582234,9.367667,0.102529526,-0.013109015,0.101260565,-0.056051090359687805,-0.027842257171869278,-2.7769181728363037,1017.2331,
2021.02.11 12:29:20,48.0,14.0,10.70195,-31.259075,-20.356924,0.55667615,0.20481096,9.740034,0.039560128,-0.024245579,-0.014896333,-0.0209904033690691,-0.05709129944443703,-2.774838447570801,1017.2331,
2021.02.11 12:29:20,48.0,14.0,11.108131,-30.237282,-19.520662,9.101828E-4,0.3786379,9.525742,-0.013557815,-0.008849494,-0.09229595,-0.03972800076007843,-9.554980351822451E-5,-2.7807183265686035,1017.2331,
2021.02.11 12:29:20,48.0,14.0,12.017441,-29.446045,-19.384531,-0.5639403,1.0175176,10.016513,-0.0012665377,-3.0182602E-4,0.07815375,-0.10107775777578354,0.056241683661937714,-2.761120319366455,1017.2331,
2021.02.11 12:29:20,48.0,14.0,10.643517,-29.7071,-19.787966,0.22568935,0.5141627,9.729903,0.021021634,-0.011286166,0.069502346,-0.052780285477638245,-0.02319127693772316,-2.7718045711517334,1017.2331,
2021.02.11 12:29:20,48.0,14.0,11.75341,-29.340038,-20.43276,0.56066453,0.23592372,9.557656,-0.027404133,0.0068038413,-0.09924899,-0.02463691681623459,-0.058594148606061935,-2.7202022075653076,1017.2334,
2021.02.11 12:29:20,48.0,14.0,11.929573,-30.051266,-20.612913,-0.18372853,0.59792715,9.752089,-0.037421286,0.009861698,-0.0706591,-0.06122523546218872,0.018837686628103256,-2.7595531940460205,1017.234,
2021.02.11 12:29:20,48.0,14.0,11.608459,-30.109451,-19.349413,0.16166444,0.45396224,9.792224,-0.03510985,-0.0116103,-3.9280835E-4,-0.04631998762488365,-0.01650797203183174,-2.7537190914154053,1017.2341,
2021.02.11 12:29:20,48.0,14.0,11.105034,-30.231117,-20.156855,0.022435188,0.46081528,9.84084,-0.008711215,-0.0043044053,-0.02466436,-0.046792518347501755,-0.0022798001300543547,-2.777444362640381,1017.2341,
2021.02.11 12:29:21,48.0,14.0,10.93705,-31.233658,-19.556269,-0.13181446,0.5630431,9.795216,0.019458957,-0.012736628,-0.05130449,-0.057413067668676376,0.013456213288009167,-2.80033540725708,1017.2346,
2021.02.11 12:29:21,48.0,14.0,11.95623,-30.360157,-19.030691,-0.0065408163,0.5253803,9.611793,0.03968899,-0.013335986,-0.0128211565,-0.054605621844530106,6.804990116506815E-4,-2.7542452812194824,1017.2347,
2021.02.11 12:29:21,48.0,14.0,11.132202,-30.469826,-19.419989,-0.017161803,0.5538585,9.8769865,-0.013803293,-2.5509504E-4,-0.013829395,-0.05601691082119942,0.0017375529278069735,-2.7798867225646973,1017.23486,
2021.02.11 12:29:21,48.0,14.0,11.43174,-29.149204,-19.904257,-0.020872096,0.54667526,9.715647,0.022707213,-0.0087621,-0.015056007,-0.056208111345767975,0.0021482936572283506,-2.755077838897705,1017.2352,
2021.02.11 12:29:21,48.0,14.0,11.853226,-29.189796,-19.739035,0.0037773885,0.57838243,9.691822,0.010142038,0.0026516698,-0.014317786,-0.05960667133331299,-3.8975008646957576E-4,-2.7404212951660156,1017.2352,
2021.02.11 12:29:21,48.0,14.0,11.388351,-28.479744,-19.818392,0.042352244,0.49958578,9.805977,-0.0026873061,0.0042139413,-0.011623248,-0.050902582705020905,-0.004318996798247099,-2.7455053329467773,1017.2355,
2021.02.11 12:29:21,48.0,14.0,11.254082,-30.326382,-20.006357,-0.0716917,0.58943707,9.658134,0.006184304,-0.005383241,-0.021975728,-0.06095283478498459,0.007422798313200474,-2.776411533355713,1017.2352,
2021.02.11 12:29:21,48.0,14.0,11.960602,-30.119473,-19.731623,0.001776531,0.57299846,9.734498,-0.012398071,-7.0156984E-4,-6.60158E-4,-0.05879481881856918,-1.8249847926199436E-4,-2.7491867542266846,1017.2348,
2021.02.11 12:29:21,48.0,14.0,11.798546,-29.441925,-18.407763,0.021678621,0.5296617,9.849686,-0.015277221,-0.0011800774,0.006150421,-0.05372260510921478,-0.002200941788032651,-2.7467856407165527,1017.2347,
2021.02.11 12:29:21,48.0,14.0,12.336815,-30.062946,-18.507132,-0.010814727,0.573935,9.6733465,0.0034223872,-0.008336224,0.012690505,-0.059262074530124664,0.0011179918656125665,-2.7389020919799805,1017.2347,
2021.02.11 12:29:21,48.0,14.0,12.022385,-30.43132,-19.441458,-0.030457323,0.57428473,9.828586,0.029676639,-0.018399367,0.027915295,-0.0583634115755558,0.003098841058090329,-2.7533059120178223,1017.2347,
2021.02.11 12:29:21,48.0,14.0,12.148712,-30.421059,-17.699266,0.05772094,0.61116105,9.653874,0.030382365,-0.0064953566,0.025285238,-0.06322184205055237,-0.005978972651064396,-2.7448160648345947,1017.2347,
2021.02.11 12:29:21,48.0,14.0,11.369415,-30.77053,-19.694937,0.07649484,0.6053035,9.711593,0.010944044,-0.009205047,0.018591845,-0.06224549189209938,-0.007876490242779255,-2.769073486328125,1017.2347,
2021.02.11 12:29:22,48.0,14.0,11.323494,-30.774586,-19.538843,0.09213501,0.6511514,9.768371,0.0020963731,-0.009314904,0.006285059,-0.06655774265527725,-0.009431693702936172,-2.768681526184082,1017.23456,
2021.02.11 12:29:22,48.0,14.0,12.068245,-31.127132,-19.758253,0.058058497,0.64367247,9.722354,-0.010660638,-0.004869018,0.0033359355,-0.06610776484012604,-0.005971578881144524,-2.7529284954071045,1017.2341,
2021.02.11 12:29:22,48.0,14.0,11.705803,-30.75056,-19.860987,0.11554053,0.6082633,9.778263,-0.002093662,-0.013643441,-0.007859146,-0.06212128326296806,-0.0118155088275671,-2.756621837615967,1017.2341,
2021.02.11 12:29:22,48.0,14.0,10.859978,-29.35667,-20.440893,0.048017655,0.6748056,9.808484,0.02166804,-0.0050733616,-0.0050830026,-0.06868909299373627,-0.004895483143627644,-2.767139196395874,1017.234,
2021.02.11 12:29:22,48.0,14.0,11.198715,-29.322681,-19.573717,0.07096473,0.6034906,9.701465,0.017138189,-0.0010887415,-0.0038782787,-0.06212442368268967,-0.007314716931432486,-2.757429361343384,1017.234,
2021.02.11 12:29:22,48.0,14.0,10.806732,-30.150421,-20.576296,0.053974133,0.6346299,9.708435,-0.0026547466,-2.0907841E-4,-0.0037824053,-0.06527504324913025,-0.005559451878070831,-2.778545379638672,1017.234,
2021.02.11 12:29:22,48.0,14.0,9.902306,-31.049911,-19.015715,0.013513773,0.6764931,9.725913,0.011183926,-0.0024010031,0.003215571,-0.06944382935762405,-0.0013894595904275775,-2.8185317516326904,1017.234,
2021.02.11 12:29:22,48.0,14.0,12.365501,-29.707523,-19.579649,0.102343984,0.63102794,9.749955,-0.0027559777,0.0042736623,0.0182386,-0.06462741643190384,-0.010496481321752071,-2.724757671356201,1017.234,
2021.02.11 12:29:22,48.0,14.0,10.4728775,-30.7454,-20.362192,0.06873038,0.63740337,9.755291,0.010688908,-6.43917E-4,0.010526225,-0.0652448982000351,-0.007045329548418522,-2.7946064472198486,1017.234,
2021.02.11 12:29:22,48.0,14.0,11.204918,-29.645851,-20.630358,0.033224817,0.7230317,9.694537,-0.0015549334,0.0040047313,0.017061109,-0.07444308698177338,-0.0034271555487066507,-2.7591607570648193,1017.234,
2021.02.11 12:29:22,48.0,14.0,10.699997,-29.248577,-19.046267,0.13801174,0.6094209,9.792732,0.012647707,-0.00817711,-0.0042586555,-0.0621456541121006,-0.014092348515987396,-2.7684969902038574,1017.234,
2021.02.11 12:29:22,48.0,14.0,11.889931,-30.563148,-19.185213,0.07716069,0.69001794,9.691502,-0.010110328,-0.0049283225,-0.0014397273,-0.07107605785131454,-0.007961518131196499,-2.7495930194854736,1017.234,
2021.02.11 12:29:22,48.0,14.0,11.032196,-29.198948,-19.182768,0.07693868,0.65856695,9.789613,0.0058787493,-0.0038995226,-0.005841292,-0.06716873496770859,-0.007859054021537304,-2.7597858905792236,1017.2338,
2021.02.11 12:29:23,48.0,14.0,11.031616,-30.31802,-19.59344,0.12063217,0.6155725,9.671966,0.0070535718,-0.004509559,-0.0012351527,-0.06355436891317368,-0.012471706606447697,-2.7710282802581787,1017.23395,
2021.02.11 12:29:23,48.0,14.0,12.226097,-30.336212,-19.881338,0.050364602,0.66091317,9.776561,-0.014088537,-0.0058276597,-0.007203331,-0.06749821454286575,-0.005151520948857069,-2.7387590408325195,1017.23395,
2021.02.11 12:29:23,48.0,14.0,11.882347,-30.359776,-19.16479,0.061761647,0.6410741,9.710851,-0.015869834,-0.0018605608,0.0042904085,-0.06591928750276566,-0.006359979975968599,-2.7495784759521484,1017.23395,
2021.02.11 12:29:23,48.0,14.0,10.27433,-29.383797,-20.327375,0.11849389,0.6149495,9.701457,-0.0310409,-0.0077022417,-0.01221505,-0.06329792737960815,-0.012213422916829586,-2.7826926708221436,1017.23395,
2021.02.11 12:29:23,48.0,14.0,10.82386,-29.261894,-19.631449,0.025870085,0.63728094,9.788224,-0.014020595,-0.013833487,0.0010151786,-0.06501491367816925,-0.0026429742574691772,-2.7702224254608154,1017.23395,
2021.02.11 12:29:23,48.0,14.0,10.842903,-29.31221,-19.184916,0.09015557,0.604537,9.761863,-0.0131925,-6.534989E-4,3.7167617E-4,-0.06184682622551918,-0.00923522561788559,-2.767582893371582,1017.234,
2021.02.11 12:29:23,48.0,14.0,11.759262,-29.453606,-19.663809,0.118824996,0.59504133,9.727273,-0.015912138,-0.003837643,-0.0038766596,-0.061091795563697815,-0.01221504621207714,-2.739403486251831,1017.2341,
2021.02.11 12:29:23,48.0,14.0,11.7908325,-30.004242,-19.425714,-0.009901212,0.63155407,9.840997,-0.012469164,0.015490091,-0.021913098,-0.06408790498971939,0.0010061183711513877,-2.75234055519104,1017.2342,
2021.02.11 12:29:23,48.0,14.0,10.629272,-29.003487,-19.817614,0.06992116,0.6000028,9.680394,0.019717284,-0.0052187135,0.002330204,-0.061900440603494644,-0.007222840562462807,-2.7710304260253906,1017.2342,
2021.02.11 12:29:23,48.0,14.0,10.470879,-29.50486,-19.797052,0.15990888,0.55139744,9.749568,0.011237353,0.001009556,-0.011477305,-0.05648832395672798,-0.016400165855884552,-2.7777936458587646,1017.2343,
2021.02.11 12:29:23,48.0,14.0,11.724686,-30.366806,-19.161936,0.047152743,0.6508881,9.756017,0.019651797,-0.0012452456,-0.00701547,-0.06661708652973175,-0.0048331585712730885,-2.7549805641174316,1017.2343,
2021.02.11 12:29:23,48.0,14.0,13.245071,-30.422798,-19.942183,0.10670376,0.58376056,9.70893,0.0045710155,3.0574366E-4,-0.010324148,-0.06005023419857025,-0.01098982710391283,-2.7093048095703125,1017.2343,
2021.02.11 12:29:23,48.0,14.0,11.339569,-29.78624,-19.409525,0.0370664,0.67173105,9.71758,-0.004561981,-0.012027452,-0.0014078544,-0.06901505589485168,-0.003814346855506301,-2.759216785430908,1017.2343,
2021.02.11 12:29:23,48.0,14.0,11.288536,-29.600975,-19.734255,0.10691484,0.612259,9.808118,0.0056233704,-0.004901391,-0.0023616161,-0.06233910843729973,-0.010900216177105904,-2.755793809890747,1017.2343,
2021.02.11 12:29:24,48.0,14.0,11.374313,-29.41238,-20.066114,0.08986292,0.6257201,9.732608,0.016116286,-0.011198473,-0.004991156,-0.0642000064253807,-0.009232917800545692,-2.750974655151367,1017.2343,
2021.02.11 12:29:24,48.0,14.0,11.881325,-29.64767,-19.73659,0.04214632,0.64621645,9.709567,0.0023070774,0.002338815,0.0037083672,-0.06645597517490387,-0.004340673331171274,-2.741220712661743,1017.2342,
2021.02.11 12:29:24,48.0,14.0,11.490234,-30.466599,-18.813807,0.105569005,0.61200315,9.742363,0.008121457,-0.0019111608,0.0027176542,-0.06273264437913895,-0.010835654102265835,-2.7611043453216553,1017.2342,
2021.02.11 12:29:24,48.0,14.0,11.329414,-28.907768,-19.20976,0.021800378,0.7041233,9.694185,-0.010733396,-0.0057365973,0.016528925,-0.07250606268644333,-0.002248805947601795,-2.748716115951538,1017.23395,
2021.02.11 12:29:24,48.0,14.0,10.454338,-29.846104,-19.976252,0.15197317,0.600432,9.727501,-0.0058224658,-0.0076896665,0.008629428,-0.061639491468667984,-0.015621772967278957,-2.781236171722412,1017.2338,
2021.02.11 12:29:24,48.0,14.0,11.580795,-28.34901,-19.402086,0.12250098,0.60531586,9.765784,-0.00475357,-0.014876137,-2.0119292E-4,-0.06189928203821182,-0.012543237768113613,-2.7302534580230713,1017.2338,
2021.02.11 12:29:24,48.0,14.0,11.816345,-29.206352,-19.967127,0.0768021,0.6542665,9.731862,-0.010320075,-0.006472462,0.017870203,-0.06712622940540314,-0.007891655899584293,-2.7350001335144043,1017.23364,
2021.02.11 12:29:24,48.0,14.0,12.226074,-30.05478,-19.51761,0.07500068,0.65431327,9.710781,0.007982913,-0.007919841,-0.003615653,-0.06727638840675354,-0.007723291404545307,-2.734212875366211,1017.23364,
2021.02.11 12:29:24,48.0,14.0,11.483765,-29.67075,-19.945951,0.13919508,0.60746676,9.768795,-0.0061196974,-0.0028568448,0.0015783794,-0.06209815293550491,-0.014247986488044262,-2.7486259937286377,1017.23395,
2021.02.11 12:29:24,48.0,14.0,11.407867,-29.801094,-19.784838,0.106916286,0.6280555,9.745538,7.2501577E-4,-0.0063038548,0.0012219748,-0.06435257941484451,-0.010970354080200195,-2.7540180683135986,1017.23395,
2021.02.11 12:29:24,48.0,14.0,11.182022,-30.54573,-19.373446,0.12447033,0.59609467,9.714261,-9.834166E-4,0.0037777135,-0.0019586266,-0.061280980706214905,-0.01281245332211256,-2.769792318344116,1017.2342,
2021.02.11 12:29:24,48.0,14.0,9.920387,-31.196476,-19.454233,0.11141788,0.6376324,9.736743,-0.003389129,-0.0050263507,-0.0020607014,-0.06538959592580795,-0.011442534625530243,-2.814218521118164,1017.2342,
2021.02.11 12:29:24,48.0,14.0,10.797142,-29.12378,-20.09849,0.08367189,0.6173081,9.785314,0.004678557,-0.006455945,0.0051053506,-0.06299936771392822,-0.0085505535826087,-2.7658698558807373,1017.23425,
2021.02.11 12:29:24,48.0,14.0,10.3617935,-29.959885,-19.046808,0.13665435,0.6080566,9.696969,-0.0061338292,-0.0030698976,0.0029624645,-0.06261764466762543,-0.014091546647250652,-2.787111759185791,1017.2343,
2021.02.11 12:29:25,48.0,14.0,11.628616,-29.683876,-18.451345,0.09564995,0.596494,9.757407,-0.0040993425,-0.007813952,-0.003510224,-0.06105352193117142,-0.009802490472793579,-2.7488996982574463,1017.2346,
2021.02.11 12:29:25,48.0,14.0,11.564384,-29.46759,-18.968786,0.14638959,0.58924747,9.733268,-4.082066E-4,-0.0056482,0.0061080526,-0.06045890972018242,-0.015038993209600449,-2.7448225021362305,1017.2349,
2021.02.11 12:29:25,48.0,14.0,11.033905,-29.83369,-18.69211,0.15010335,0.60901093,9.71918,-0.008985863,-0.004478527,0.0049446947,-0.06257147341966629,-0.015442806296050549,-2.7648777961730957,1017.2351,
2021.02.11 12:29:25,48.0,14.0,11.365402,-29.726234,-19.593191,0.13846089,0.586029,9.793666,0.0076041375,-0.0015430441,-0.002586009,-0.059760332107543945,-0.01413685828447342,-2.7539663314819336,1017.23517,
2021.02.11 12:29:25,48.0,14.0,11.150726,-31.089527,-19.516054,0.110349804,0.6308243,9.730493,0.0035277165,-0.0065165223,0.0033033374,-0.06473489105701447,-0.011340132914483547,-2.7767252922058105,1017.23517,
2021.02.11 12:29:25,48.0,14.0,11.224464,-28.945274,-19.115458,0.16536961,0.5883036,9.74853,0.001137357,1.867073E-4,5.0117983E-4,-0.06026617810130119,-0.01696191541850567,-2.747314214706421,1017.23517,
2021.02.11 12:29:25,48.0,14.0,10.21212,-30.086208,-19.998537,0.14503029,0.63063544,9.721165,-3.5373052E-4,-0.0010923641,-0.004906729,-0.06477445363998413,-0.014917917549610138,-2.791012763977051,1017.23517,
2021.02.11 12:29:25,48.0,14.0,11.492455,-30.456333,-19.170347,0.12366071,0.62153864,9.70866,0.011660045,-0.008963944,0.0030393824,-0.0639265775680542,-0.012736466713249683,-2.7591934204101562,1017.2355,
2021.02.11 12:29:25,48.0,14.0,10.585205,-30.512966,-19.984568,0.14644094,0.60752237,9.74479,-0.0026857029,-0.0030475066,0.0011668187,-0.06225571036338806,-0.015026482753455639,-2.7850263118743896,1017.2355,
2021.02.11 12:29:25,48.0,14.0,11.520035,-29.664654,-20.013586,0.123559475,0.6362702,9.744011,0.006772197,-0.0020730277,0.0021588635,-0.0652007982134819,-0.012679875828325748,-2.7474586963653564,1017.2355,
2021.02.11 12:29:25,48.0,14.0,12.633186,-29.123241,-20.150324,0.1108088,0.6178702,9.7520485,-4.024934E-4,0.007862248,0.010634092,-0.06326934695243835,-0.011362127959728241,-2.708280563354492,1017.23553,
2021.02.11 12:29:25,48.0,14.0,13.052895,-28.799232,-19.336573,0.11911475,0.6402588,9.715905,-0.0050295605,0.014042389,0.010246316,-0.06579793989658356,-0.012259155511856079,-2.6911067962646484,1017.2358,
2021.02.11 12:29:25,48.0,14.0,10.657555,-30.177765,-19.244493,0.13449039,0.623887,9.777989,0.0088100815,0.01082977,-0.0055613285,-0.06371285766363144,-0.01375353429466486,-2.7802927494049072,1017.23584,
2021.02.11 12:29:26,48.0,14.0,11.500412,-30.496368,-20.189676,0.13262904,0.61288005,9.692844,-0.012408463,0.017484818,0.0018844525,-0.06314019113779068,-0.01368233747780323,-2.757931709289551,1017.23596,
2021.02.11 12:29:26,48.0,14.0,10.428093,-29.947308,-19.927095,0.0845901,0.6769447,9.786655,0.0016597498,0.021800078,0.0029718769,-0.06905759871006012,-0.008643196895718575,-2.7856006622314453,1017.23663,
2021.02.11 12:29:26,48.0,14.0,10.902473,-29.617687,-20.090902,0.10427614,0.58297485,9.793073,0.029318077,0.013442576,-0.0013443921,-0.05945577472448349,-0.01064754743129015,-2.7682645320892334,1017.23663,
2021.02.11 12:29:26,48.0,14.0,11.971024,-30.289062,-20.119043,0.088535905,0.6300451,9.670884,0.0032628728,0.01724502,7.6732715E-4,-0.06505399942398071,-0.009154636412858963,-2.7437734603881836,1017.2367,
2021.02.11 12:29:26,48.0,14.0,11.339287,-30.388565,-19.07459,0.111555785,0.60998434,9.808732,0.020031422,0.016037345,-0.020116748,-0.06210389733314514,-0.011372619308531284,-2.764230728149414,1017.23676,
2021.02.11 12:29:26,48.0,14.0,11.822777,-29.73515,-19.728796,0.027536593,0.66574675,9.690457,0.0056842226,0.01361663,-0.0032887224,-0.06859321892261505,-0.002841611858457327,-2.7443745136260986,1017.23694,
2021.02.11 12:29:26,48.0,14.0,11.792976,-29.378437,-19.225954,0.042001236,0.62951964,9.734296,0.0051839715,0.008163689,0.0050476277,-0.06457975506782532,-0.004314742051064968,-2.7414751052856445,1017.237,
2021.02.11 12:29:26,48.0,14.0,10.222054,-28.783775,-19.896807,0.08384726,0.63603884,9.658677,-0.025039682,0.009832838,0.0037537217,-0.06575413048267365,-0.008680811151862144,-2.7792506217956543,1017.2371,
2021.02.11 12:29:26,48.0,14.0,10.905151,-29.621174,-19.811178,0.09577819,0.6140109,9.754307,-0.034061216,0.009645489,-0.01178707,-0.06286170333623886,-0.009818751364946365,-2.7681310176849365,1017.23737,
2021.02.11 12:29:26,48.0,14.0,10.66169,-28.28439,-19.410376,0.005912865,0.6225626,9.828865,0.0031343019,-0.00836188,-0.0026757212,-0.06325571984052658,-6.015815888531506E-4,-2.7651517391204834,1017.238,
2021.02.11 12:29:26,48.0,14.0,10.860283,-29.572376,-19.393442,0.09778056,0.5659582,9.607109,-0.03725209,0.024428388,-0.0094572995,-0.058839309960603714,-0.010177587158977985,-2.7701635360717773,1017.2386,
2021.02.11 12:29:26,48.0,14.0,11.597092,-29.590126,-19.592012,0.107504725,0.5382331,9.8180895,0.001045547,7.084466E-4,-0.008488413,-0.054762452840805054,-0.010949220508337021,-2.748476028442383,1017.23883,
2021.02.11 12:29:26,48.0,14.0,12.059959,-29.837627,-18.909418,0.031172613,0.62588906,9.704225,0.029943896,-0.026615677,-0.011516838,-0.06440701335668564,-0.0032122614793479443,-2.7402520179748535,1017.2391,
2021.02.11 12:29:26,48.0,14.0,11.551575,-30.679245,-19.58346,-0.029594006,0.6264491,9.811778,0.032382797,-0.024612872,-0.021865953,-0.06375981122255325,0.0030161624308675528,-2.768573522567749,1017.2391,
2021.02.11 12:29:27,48.0,14.0,11.241852,-30.507229,-18.402433,0.1893003,0.6458482,9.859956,0.08437358,-0.05303814,-0.0017129147,-0.06539668142795563,-0.019196541979908943,-2.764286994934082,1017.23914,
2021.02.11 12:29:27,48.0,14.0,11.275726,-31.272282,-19.323816,0.1421221,0.7180359,9.850215,0.17043985,-0.08607423,-0.015905462,-0.07275919616222382,-0.014427323825657368,-2.7717015743255615,1017.23926,
2021.02.11 12:29:27,48.0,14.0,11.696754,-30.751125,-19.784632,0.028264707,0.8900513,9.376311,0.008567059,-0.06091751,0.046017073,-0.09464150667190552,-0.0030144713819026947,-2.753389358520508,1017.23926,
2021.02.11 12:29:27,48.0,14.0,11.281647,-29.23782,-20.163649,0.38047934,0.7693723,9.323558,-0.20652124,0.069258675,0.017323356,-0.08226446807384491,-0.04078575223684311,-2.7275400161743164,1017.2394,
