Time,X-cord,Y-cord,Mag_x,Mag_y,Mag_z,Acc_x,Acc_y,Acc_z,Gyro_x,Gyro_y,Gyro_z,Orn_x,Orn_y,Orn_z,Pressure,
2021.02.11 12:27:20,48.0,24.0,23.910866,7.8346834,-12.458418,-0.10212436,0.89621,9.441255,0.09642527,0.012957368,-0.013105437,-0.09463579952716827,0.01081639900803566,-1.2088679075241089,1017.0478,
2021.02.11 12:27:20,48.0,24.0,24.115204,6.032318,-12.245848,0.23198418,0.8060766,9.844589,-0.016288508,0.022515096,0.047859397,-0.08167534321546555,-0.02356027625501156,-1.292720913887024,1017.0478,
2021.02.11 12:27:20,48.0,24.0,24.008347,6.775159,-12.5767765,0.3558831,0.72418404,9.746968,-5.1402394E-4,-0.0039240336,0.04303733,-0.0741129219532013,-0.03649597242474556,-1.2686080932617188,1017.0478,
2021.02.11 12:27:21,48.0,24.0,22.982872,7.423877,-14.065985,0.09235146,0.8171509,9.6404295,0.0031004332,-4.900051E-4,-0.02629059,-0.0845569297671318,-0.009579307399690151,-1.2159013748168945,1017.04755,
2021.02.11 12:27:21,48.0,24.0,26.516006,6.655726,-11.663694,0.02403711,0.79231167,9.597749,-0.07436592,0.0059164595,-0.0025964924,-0.08236481249332428,-0.0025044477079063654,-1.292393445968628,1017.04736,
2021.02.11 12:27:21,48.0,24.0,24.986282,7.8951626,-11.826059,0.008490889,0.9057757,9.959442,-0.028009713,-0.010942278,0.029254619,-0.09069689363241196,-8.525464800186455E-4,-1.22760808467865,1017.047,
2021.02.11 12:27:21,48.0,24.0,23.150848,6.993437,-12.114016,0.15340656,0.8333629,9.836759,0.038078308,-0.011491576,0.02304214,-0.08450721204280853,-0.015593971125781536,-1.2420659065246582,1017.0467,
2021.02.11 12:27:21,48.0,24.0,24.22625,6.639245,-13.453657,0.11588187,0.81969637,9.576195,-0.011833481,0.00454573,0.022093346,-0.08538293093442917,-0.012100444175302982,-1.2635737657546997,1017.0467,
2021.02.11 12:27:21,48.0,24.0,24.057854,6.1724954,-11.58639,0.13821152,0.76942515,9.73651,-0.02506574,0.018731551,0.002960932,-0.07885293662548065,-0.014194226823747158,-1.2879588603973389,1017.0467,
2021.02.11 12:27:21,48.0,24.0,24.295975,6.518598,-12.975424,0.15966527,0.8072291,9.796994,-0.027761325,0.012788925,-0.012219902,-0.08219902217388153,-0.016295932233333588,-1.2726867198944092,1017.0467,
2021.02.11 12:27:21,48.0,24.0,24.4766,7.297634,-12.770105,0.1240199,0.800589,9.698879,0.023598641,0.001671509,-0.020517198,-0.08235107362270355,-0.012786338105797768,-1.2459479570388794,1017.0467,
2021.02.11 12:27:21,48.0,24.0,24.271332,6.8378687,-12.596338,0.12526079,0.86693853,9.722827,0.004074065,0.00804088,-0.018141778,-0.08892275393009186,-0.012882452458143234,-1.257995843887329,1017.0467,
2021.02.11 12:27:21,48.0,24.0,24.230629,8.255924,-11.3813,0.24146402,0.72026175,9.655229,-0.0071987426,0.008468354,-0.04205282,-0.07443699985742569,-0.02500341460108757,-1.2176249027252197,1017.0467,
2021.02.11 12:27:21,48.0,24.0,24.928375,7.8437634,-12.149206,0.13028081,0.83053285,9.756648,-0.00404983,-0.009977698,-0.043854717,-0.08491255342960358,-0.013352236710488796,-1.2328212261199951,1017.0468,
2021.02.11 12:27:21,48.0,24.0,24.901321,7.800539,-12.56439,0.13860534,0.82747823,9.774909,0.03242147,-0.019981243,-0.03002861,-0.08444349467754364,-0.01417875662446022,-1.233210802078247,1017.0468,
2021.02.11 12:27:21,48.0,24.0,25.965782,7.891268,-11.598177,0.17780887,0.81220704,9.759038,0.0112192305,-0.021471016,-0.031630922,-0.08302105218172073,-0.0182179007679224,-1.246907114982605,1017.0468,
2021.02.11 12:27:21,48.0,24.0,24.312042,7.6536045,-11.948954,0.096180715,0.79083854,9.610037,0.029601455,-0.017490925,-0.030976847,-0.08210387080907822,-0.010008026845753193,-1.232768177986145,1017.0468,
2021.02.11 12:27:22,48.0,24.0,25.720566,7.02226,-12.298582,0.105968244,0.9013564,9.690545,0.0052848905,-0.022241484,-0.015460167,-0.09274163097143173,-0.010934785008430481,-1.2670059204101562,1017.0468,
2021.02.11 12:27:22,48.0,24.0,24.734657,7.6471987,-13.075689,0.23270898,0.7751289,9.83146,-0.01684788,-0.012787693,0.012223152,-0.07865700125694275,-0.0236654095351696,-1.2397648096084595,1017.0468,
2021.02.11 12:27:22,48.0,24.0,23.9385,6.0913167,-11.916792,0.26442376,0.7580824,9.540869,0.02811935,-0.027309988,0.009146282,-0.07925944775342941,-0.02770775929093361,-1.2912936210632324,1017.0468,
2021.02.11 12:27:22,48.0,24.0,24.540413,6.063019,-11.59907,0.24880332,0.753531,9.79461,3.577615E-4,-0.011061307,-0.016546803,-0.07675731927156448,-0.02539660409092903,-1.3002185821533203,1017.0468,
2021.02.11 12:27:22,48.0,24.0,23.755371,6.5658426,-12.37285,0.10269364,0.8435138,9.764693,0.023905111,-0.011631755,0.017734274,-0.0861653983592987,-0.010516444221138954,-1.2633060216903687,1017.0468,
2021.02.11 12:27:22,48.0,24.0,23.019066,6.7471466,-13.065969,0.21114655,0.7643239,9.673967,0.008792247,-1.3250852E-4,0.020699449,-0.07882583886384964,-0.021822797134518623,-1.2510157823562622,1017.0468,
2021.02.11 12:27:22,48.0,24.0,23.30323,6.8775644,-11.975618,0.22867437,0.7825975,9.714902,0.0068895463,-0.004846277,0.024104616,-0.08036065101623535,-0.023534167557954788,-1.252374529838562,1017.0464,
2021.02.11 12:27:22,48.0,24.0,24.183006,7.0488014,-12.102945,0.20807415,0.83149916,9.629401,0.0041102003,0.0014470773,0.014485186,-0.08611637353897095,-0.02160485088825226,-1.253759503364563,1017.0464,
2021.02.11 12:27:22,48.0,24.0,22.054062,6.0711393,-11.515581,0.19612254,0.83043414,9.826303,-0.02203779,0.014862096,0.017650107,-0.08429430425167084,-0.019956286996603012,-1.267112135887146,1017.0462,
2021.02.11 12:27:22,48.0,24.0,23.76368,7.9503326,-12.300997,0.07036918,0.8617938,9.714289,0.004893599,0.008869927,0.009357331,-0.08848009258508682,-0.007243757136166096,-1.210321068763733,1017.04614,
2021.02.11 12:27:22,48.0,24.0,24.000374,7.2951927,-13.851778,0.14385174,0.8359005,9.668681,7.628659E-4,0.022519618,0.026239157,-0.08623051643371582,-0.014877015724778175,-1.2356370687484741,1017.046,
2021.02.11 12:27:22,48.0,24.0,23.815018,6.953639,-12.199629,0.22860466,0.79860145,9.72656,-0.008964758,0.018586949,0.03423412,-0.08189895749092102,-0.023498810827732086,-1.254636526107788,1017.046,
2021.02.11 12:27:22,48.0,24.0,24.357658,6.644399,-12.61577,0.121412,0.92556554,9.774741,-0.008057377,0.017037928,0.015577367,-0.0944007933139801,-0.012420354411005974,-1.2636345624923706,1017.04565,
2021.02.11 12:27:23,48.0,24.0,26.040146,7.9641876,-12.504011,0.31588614,0.73992723,9.75619,0.0060441494,0.016297746,0.025518576,-0.07565741240978241,-0.032366715371608734,-1.2486388683319092,1017.04565,
2021.02.11 12:27:23,48.0,24.0,26.144363,6.2057924,-12.44911,0.12099171,0.90913135,9.6274185,0.017250944,0.006278532,-0.015851729,-0.09414489567279816,-0.012566748075187206,-1.2994111776351929,1017.046,
2021.02.11 12:27:23,48.0,24.0,25.65252,7.615524,-12.012075,0.04441841,0.8939543,9.821242,0.021247894,-0.017816821,0.008531274,-0.09077146649360657,-0.0045226565562188625,-1.2457709312438965,1017.046,
2021.02.11 12:27:23,48.0,24.0,23.786385,5.830393,-13.25202,0.22928035,0.8315139,9.606521,-0.007599326,-0.006594771,3.361632E-4,-0.08631756901741028,-0.023862628266215324,-1.291830062866211,1017.046,
2021.02.11 12:27:23,48.0,24.0,24.94033,7.200249,-10.921736,0.18722253,0.8668623,9.713862,-0.0074452646,-0.009734921,-0.010095482,-0.08898750692605972,-0.019271360710263252,-1.2591930627822876,1017.046,
2021.02.11 12:27:23,48.0,24.0,24.185112,7.954359,-11.869707,0.12641872,0.85783595,9.811924,0.024074353,-0.0031830366,-0.014829572,-0.08719895780086517,-0.01288348063826561,-1.2190827131271362,1017.046,
2021.02.11 12:27:23,48.0,24.0,24.8693,6.983858,-12.0970745,0.16050826,0.8679824,9.816537,-0.013602381,-0.0018204856,-0.0027083722,-0.08817934989929199,-0.016349345445632935,-1.2623350620269775,1017.046,
2021.02.11 12:27:23,48.0,24.0,23.886024,7.4443893,-11.913092,0.1298779,0.8893626,9.671619,0.017306283,-0.004441641,-0.009261254,-0.0916898101568222,-0.013427956961095333,-1.2319337129592896,1017.046,
2021.02.11 12:27:23,48.0,24.0,24.00418,6.2916107,-11.9184475,0.1578361,0.86369354,9.71975,0.0035605347,0.0022906994,0.00323261,-0.08861523866653442,-0.016237270087003708,-1.27825129032135,1017.04565,
2021.02.11 12:27:23,48.0,24.0,23.010994,6.915061,-12.984205,0.1944371,0.8737404,9.701467,-0.0013538145,-0.0018649632,0.005119369,-0.08980243653059006,-0.020039349794387817,-1.2392321825027466,1017.04565,
2021.02.11 12:27:23,48.0,24.0,24.992172,6.7565746,-11.56064,0.17460628,0.8838679,9.760297,-0.0056257267,0.003725822,-9.2484476E-4,-0.09029678255319595,-0.01788753643631935,-1.2730680704116821,1017.04565,
2021.02.11 12:27:23,48.0,24.0,23.838837,7.3632603,-11.881926,0.18802626,0.82855296,9.667161,-0.00870203,4.2594166E-4,-0.005812506,-0.08548295497894287,-0.01944754645228386,-1.238266944885254,1017.0456,
2021.02.11 12:27:23,48.0,24.0,25.148933,7.6327934,-12.982302,0.21270339,0.86699575,9.709239,-0.021804184,8.554738E-4,-0.009460467,-0.08903849124908447,-0.021903814747929573,-1.2408584356307983,1017.0454,
2021.02.11 12:27:24,48.0,24.0,24.424019,7.5176926,-12.413778,0.2234358,0.8053444,9.720727,0.013200508,-0.015970653,-0.0044347765,-0.08263766765594482,-0.02298145554959774,-1.2404780387878418,1017.04517,
2021.02.11 12:27:24,48.0,24.0,24.071877,7.0398884,-12.48588,0.14988165,0.8862791,9.7185335,-0.0057659075,-0.00621868,-0.015886193,-0.0909324362874031,-0.015421026386320591,-1.2481712102890015,1017.04517,
2021.02.11 12:27:24,48.0,24.0,25.213646,6.3580656,-12.687071,0.19693261,0.81236905,9.690351,0.0058543924,-0.0026160693,-0.009449736,-0.08362002670764923,-0.020319750532507896,-1.2897238731384277,1017.04517,
2021.02.11 12:27:24,48.0,24.0,25.601479,7.5219183,-12.620184,0.12035254,0.90061396,9.76559,-0.0056340024,-0.0071431245,-0.005756576,-0.09195613116025925,-0.012323521077632904,-1.2478256225585938,1017.04517,
2021.02.11 12:27:24,48.0,24.0,23.257835,6.6976233,-11.080595,0.22212242,0.83516914,9.699262,-2.22228E-4,-0.0028217856,0.006921381,-0.08587219566106796,-0.022896958515048027,-1.2589478492736816,1017.04517,
2021.02.11 12:27:24,48.0,24.0,23.839691,6.326912,-12.560934,0.18683757,0.887423,9.741966,0.0074167224,-0.002251421,0.009588918,-0.09082547575235367,-0.01917627826333046,-1.272661805152893,1017.04517,
2021.02.11 12:27:24,48.0,24.0,23.820778,7.3116174,-12.30094,0.1932181,0.841661,9.700473,0.0057127364,0.002019438,0.004664306,-0.08653111755847931,-0.019915785640478134,-1.238393783569336,1017.0451,
2021.02.11 12:27:24,48.0,24.0,24.444633,6.6638575,-11.770945,0.18009448,0.9004712,9.72113,3.097281E-4,-0.0012566057,0.013324976,-0.09235095977783203,-0.018523966893553734,-1.2688997983932495,1017.04486,
2021.02.11 12:27:24,48.0,24.0,24.170776,6.766383,-11.656157,0.18574916,0.87336135,9.653798,0.01069701,-0.003042115,-0.0022737307,-0.09020595252513885,-0.0192386694252491,-1.263257622718811,1017.04474,
2021.02.11 12:27:24,48.0,24.0,24.989983,6.3759794,-12.904001,0.23766564,0.85743546,9.755233,-0.005166348,-9.7560836E-4,-0.0035786894,-0.08764375001192093,-0.024358069524168968,-1.2852123975753784,1017.04474,
2021.02.11 12:27:24,48.0,24.0,24.322449,6.816983,-11.635553,0.14309706,0.90877956,9.712442,-8.663221E-4,-3.5276506E-4,-0.014115553,-0.09328688681125641,-0.014732308685779572,-1.2610738277435303,1017.0447,
2021.02.11 12:27:24,48.0,24.0,23.941628,6.936155,-12.473932,0.21348102,0.8641408,9.722729,0.012160843,-0.006243836,-0.005829556,-0.0886242464184761,-0.02195337601006031,-1.2529056072235107,1017.0447,
2021.02.11 12:27:24,48.0,24.0,25.363052,7.3650045,-12.79458,0.20190263,0.8613944,9.708906,5.5137975E-4,-0.0011905537,-0.0077832057,-0.08847136050462723,-0.020792612805962563,-1.2533141374588013,1017.04456,
2021.02.11 12:27:24,48.0,24.0,24.972214,5.8406315,-11.765898,0.12790845,0.92453223,9.692918,9.535237E-4,5.7456375E-4,0.0057456545,-0.09508632868528366,-0.013195306994020939,-1.302781581878662,1017.04443,
2021.02.11 12:27:25,48.0,24.0,26.57537,7.083019,-12.540724,0.24051745,0.8578584,9.682045,-0.003111215,0.0013018843,0.0025307126,-0.08834512531757355,-0.02483648806810379,-1.277984619140625,1017.0443,
2021.02.11 12:27:25,48.0,24.0,25.983467,7.257022,-11.742426,0.14116386,0.9216299,9.723941,-0.00871336,8.964882E-4,-1.01749785E-4,-0.0944872796535492,-0.014516125433146954,-1.2635778188705444,1017.04425,
2021.02.11 12:27:25,48.0,24.0,25.295921,7.696739,-11.584841,0.21539652,0.870281,9.745868,-0.005693203,-0.0059918584,0.012644054,-0.08903957903385162,-0.022097721695899963,-1.2444305419921875,1017.04425,
2021.02.11 12:27:25,48.0,24.0,24.537323,6.9796405,-11.769838,0.23112194,0.8682216,9.701003,-0.0027643803,-0.009092372,0.012764715,-0.08923512697219849,-0.02382003329694271,-1.2607659101486206,1017.04425,
2021.02.11 12:27:25,48.0,24.0,23.938751,7.0269876,-12.288591,0.21904688,0.8627228,9.766269,-0.0043895347,0.0014943759,0.007416704,-0.08808624744415283,-0.022425159811973572,-1.2503892183303833,1017.04425,
2021.02.11 12:27:25,48.0,24.0,23.449707,8.459027,-12.381769,0.18751551,0.8684058,9.661648,0.010316269,-0.0073086293,4.5110006E-4,-0.08962409198284149,-0.019405797123908997,-1.1896299123764038,1017.04425,
2021.02.11 12:27:25,48.0,24.0,23.650238,7.48555,-12.228682,0.2612312,0.83346885,9.707942,-0.014558864,-0.0010041903,-9.064772E-4,-0.08561347424983978,-0.02690252661705017,-1.231919288635254,1017.04425,
2021.02.11 12:27:25,48.0,24.0,23.522705,7.0069227,-12.156298,0.1921845,0.89840984,9.733871,7.2979135E-4,-0.0056247315,0.0019817343,-0.09201868623495102,-0.019741326570510864,-1.2440515756607056,1017.04425,
2021.02.11 12:27:25,48.0,24.0,23.810364,7.569641,-11.515604,0.21430282,0.8525931,9.766304,0.0068856757,0.0011555073,1.7337035E-4,-0.08705784380435944,-0.021939564496278763,-1.2312902212142944,1017.04425,
2021.02.11 12:27:25,48.0,24.0,24.688042,6.78095,-11.6302395,0.2147361,0.85527796,9.69632,0.006573693,5.612418E-4,5.7150656E-4,-0.08795729279518127,-0.022142525762319565,-1.2703050374984741,1017.04425,
2021.02.11 12:27:25,48.0,24.0,24.121544,5.6975317,-11.504244,0.1963885,0.8815437,9.772023,-0.004710282,7.507102E-5,0.0011696797,-0.08994937688112259,-0.020094310864806175,-1.303633213043213,1017.04425,
2021.02.11 12:27:25,48.0,24.0,24.966782,6.338249,-12.793322,0.21392779,0.8673148,9.674096,0.012903035,-2.1044299E-4,0.0042119543,-0.0893925279378891,-0.02210986241698265,-1.285440444946289,1017.04425,
2021.02.11 12:27:25,48.0,24.0,22.995285,6.9219284,-13.562342,0.21463168,0.87954473,9.720768,0.0033430057,0.003390124,0.004608643,-0.09021341800689697,-0.022076116874814034,-1.2372453212738037,1017.04425,
2021.02.11 12:27:26,48.0,24.0,23.869522,6.6810794,-11.732023,0.20016508,0.8895386,9.707431,0.0036260698,-0.007677019,0.0044492274,-0.09136029332876205,-0.020616857334971428,-1.26243257522583,1017.04425,
2021.02.11 12:27:26,48.0,24.0,23.807571,6.758794,-12.090658,0.2249064,0.8985813,9.717413,0.0038837625,-0.0033966014,0.008585108,-0.09218447655439377,-0.023140545934438705,-1.2578505277633667,1017.04425,
2021.02.11 12:27:26,48.0,24.0,23.695465,6.695332,-11.923651,0.27187192,0.89653915,9.694835,0.005693006,-0.00668915,0.0044000014,-0.09217765927314758,-0.028035620227456093,-1.2604761123657227,1017.04425,
2021.02.11 12:27:26,48.0,24.0,24.989075,7.107316,-13.408091,0.26212403,0.88946086,9.755245,0.0056971516,-0.009406729,-0.0071159927,-0.09089367091655731,-0.026863597333431244,-1.256632924079895,1017.04425,
2021.02.11 12:27:26,48.0,24.0,24.612694,7.6465387,-11.198076,0.18500967,0.9159322,9.660648,0.005376596,-8.4229826E-4,-0.01199922,-0.09451084583997726,-0.019148513674736023,-1.2363985776901245,1017.0443,
2021.02.11 12:27:26,48.0,24.0,23.754463,6.567012,-12.496607,0.26832768,0.8875832,9.70453,0.0011921653,8.3922106E-4,-0.008100009,-0.09117230772972107,-0.027642693370580673,-1.2645522356033325,1017.0446,
2021.02.11 12:27:26,48.0,24.0,26.291855,6.4932795,-11.899607,0.25894797,0.9406596,9.708424,-0.0056192223,-0.0047543473,-0.014576087,-0.0965554490685463,-0.026666181161999702,-1.2945035696029663,1017.04504,
2021.02.11 12:27:26,48.0,24.0,24.969635,7.1209445,-12.02762,0.2147733,0.9121547,9.77037,0.011846732,-0.0052474923,-0.013789924,-0.09306709468364716,-0.02197856456041336,-1.2580872774124146,1017.04517,
2021.02.11 12:27:26,48.0,24.0,25.037315,7.6899366,-13.268995,0.21240206,0.92007464,9.64129,-0.013033603,-0.0010746813,-0.0053344117,-0.09511958807706833,-0.022026898339390755,-1.2341387271881104,1017.04517,
2021.02.11 12:27:26,48.0,24.0,24.179184,7.228799,-13.657869,0.23136403,0.89612347,9.741366,0.0019909912,-0.0013437745,-0.009478569,-0.09170765429735184,-0.02374621108174324,-1.240593433380127,1017.04535,
2021.02.11 12:27:26,48.0,24.0,23.57396,8.236757,-11.150549,0.25491858,0.8593808,9.66536,-0.0038327181,0.0031617673,0.010499643,-0.08864960819482803,-0.026368336752057076,-1.205105185508728,1017.0454,
2021.02.11 12:27:26,48.0,24.0,26.21923,5.8412633,-12.275103,0.21897644,0.8976004,9.737691,-0.009384209,0.009158913,0.005683386,-0.09189509600400925,-0.022483723238110542,-1.3163700103759766,1017.0456,
2021.02.11 12:27:26,48.0,24.0,24.18563,8.166513,-12.177336,0.18931246,0.9212796,9.701211,-0.004588126,0.009621254,0.004410149,-0.09466356784105301,-0.019511835649609566,-1.2091859579086304,1017.0456,
2021.02.11 12:27:26,48.0,24.0,23.55175,7.73378,-11.8364315,0.2836138,0.86156535,9.709729,-0.0052938405,0.003548095,0.016411731,-0.08846285194158554,-0.02920093573629856,-1.2219598293304443,1017.04565,
2021.02.11 12:27:27,48.0,24.0,24.090614,7.662836,-12.228567,0.22549243,0.9071229,9.762816,-0.012795799,0.0013939363,0.0032201149,-0.09262552857398987,-0.02309296280145645,-1.2275193929672241,1017.04584,
2021.02.11 12:27:27,48.0,24.0,23.432976,6.9496346,-12.385576,0.2734723,0.8706481,9.67569,-0.016985856,-0.0019153908,-0.0037632368,-0.08970573544502258,-0.028256336227059364,-1.2472679615020752,1017.0463,
2021.02.11 12:27:27,48.0,24.0,24.917404,6.924729,-12.761976,0.22969656,0.83476824,9.748517,-0.0044001425,-0.0028975748,-0.014448445,-0.08539831638336182,-0.023557845503091812,-1.2657742500305176,1017.0463,
2021.02.11 12:27:27,48.0,24.0,24.168343,7.397738,-11.228659,0.27557373,0.82485867,9.817365,-0.042400613,0.008693378,-2.0657945E-4,-0.08379065245389938,-0.028062662109732628,-1.2455030679702759,1017.0466,
2021.02.11 12:27:27,48.0,24.0,24.44564,7.626322,-12.211344,0.15705664,0.8021035,9.719581,0.00796434,-0.0043482324,-0.017691016,-0.0823272243142128,-0.016157381236553192,-1.235996961593628,1017.0467,
2021.02.11 12:27:27,48.0,24.0,23.767914,8.48659,-11.400381,0.1537096,0.8560112,9.689054,0.008263106,9.518203E-4,-0.01287657,-0.08810845762491226,-0.015862923115491867,-1.1958739757537842,1017.0469,
2021.02.11 12:27:27,48.0,24.0,24.971481,7.118499,-11.835478,0.25031948,0.7881103,9.764403,0.010324017,-0.0026166234,-0.004305101,-0.080511674284935,-0.02563030831515789,-1.2643201351165771,1017.0469,
2021.02.11 12:27:27,48.0,24.0,24.715149,6.8239903,-11.867403,0.2158552,0.84108406,9.721543,-0.007143302,0.022151615,-0.0062295687,-0.08628147840499878,-0.022200152277946472,-1.269012212753296,1017.0469,
2021.02.11 12:27:27,48.0,24.0,23.943108,7.0237646,-12.692488,0.15572834,0.8558094,9.766942,0.021032212,-0.0054725828,7.2206557E-4,-0.0873887911438942,-0.015943080186843872,-1.248158574104309,1017.0469,
2021.02.11 12:27:27,48.0,24.0,23.553467,7.54348,-12.521555,0.23891069,0.8020962,9.676291,0.00703404,-0.024310376,-0.004072697,-0.08267876505851746,-0.024685300886631012,-1.228378415107727,1017.0469,
2021.02.11 12:27:27,48.0,24.0,24.272804,7.896487,-11.264521,0.14945133,0.90979505,9.777334,0.012258475,-0.03971136,-0.014871109,-0.09277348220348358,-0.015284298919141293,-1.2226201295852661,1017.0469,
2021.02.11 12:27:27,48.0,24.0,23.789932,6.1378565,-12.850561,0.39910457,0.87145275,9.775058,0.037270203,-0.03745733,0.009634934,-0.08884195238351822,-0.040806204080581665,-1.2839359045028687,1017.0469,
2021.02.11 12:27:27,48.0,24.0,24.043251,7.736555,-12.3911,0.28907862,0.99439365,9.661985,0.087042585,-0.0476206,-0.01918877,-0.10251151025295258,-0.02991025149822235,-1.2214478254318237,1017.0467,
2021.02.11 12:27:28,48.0,24.0,24.266937,6.441455,-12.772074,0.25393075,0.9910004,9.559621,0.055587303,-0.03781727,-0.022945778,-0.1032601147890091,-0.026556603610515594,-1.2690216302871704,1017.0466,
2021.02.11 12:27:28,48.0,24.0,23.962975,6.2612,-12.092993,0.3806932,0.9528609,9.791276,0.01414992,-0.031772878,-0.014559776,-0.09693906456232071,-0.03886128216981888,-1.2798339128494263,1017.0466,
2021.02.11 12:27:28,48.0,24.0,24.068443,6.7297115,-12.963732,0.3180504,0.98027164,9.774898,0.08049194,-0.046778515,-0.031630784,-0.09989790618419647,-0.03252599015831947,-1.25822114944458,1017.0466,
2021.02.11 12:27:28,48.0,24.0,22.9225,6.723853,-12.733244,0.27711162,1.0510195,9.5006695,-0.07360907,0.004782221,0.007385393,-0.11013137549161911,-0.029159322381019592,-1.2395200729370117,1017.0466,
