Time,X-cord,Y-cord,Mag_x,Mag_y,Mag_z,Acc_x,Acc_y,Acc_z,Gyro_x,Gyro_y,Gyro_z,Orn_x,Orn_y,Orn_z,Pressure,
2021.02.06 17:52:55,63.0,24.0,32.04,-1.8,-24.84,-0.65842557,0.8236305,9.711179,-0.07805881,-0.05807007,-0.018919107,-0.08441724628210068,0.0676971822977066,-1.5549887418746948,1007.522,
2021.02.06 17:52:55,63.0,24.0,31.98,-1.4399999,-25.019999,-0.05027977,0.23942748,9.838076,0.2047718,0.038446635,-0.03419074,-0.024331700056791306,0.005110687576234341,-1.5967509746551514,1007.53076,
2021.02.06 17:52:55,63.0,24.0,32.76,-1.5,-25.56,-0.30886146,0.5865973,10.00328,-0.08233486,-0.06723305,-0.010366994,-0.058545589447021484,0.030866213142871857,-1.5690256357192993,1007.53076,
2021.02.06 17:52:55,63.0,24.0,33.48,-2.04,-26.82,-0.53871185,0.71588814,10.458193,-0.07683708,-0.022639887,-0.045186315,-0.06825555115938187,0.05146550014615059,-1.5736355781555176,1007.5276,
2021.02.06 17:52:55,63.0,24.0,34.26,-2.7,-27.48,-0.076616794,0.3974496,9.998491,-0.04262862,-0.076396026,0.014067615,-0.03972887620329857,0.007662685588002205,-1.617636799812317,1007.52686,
2021.02.06 17:52:55,63.0,24.0,34.5,-3.0,-28.199999,-0.35435268,0.72546524,9.945818,0.08320962,-0.098387174,0.02384146,-0.07276678085327148,0.03561324626207352,-1.596298336982727,1007.52686,
2021.02.06 17:52:55,63.0,24.0,34.38,-3.3,-28.08,-0.0071828244,0.45730647,9.876384,0.03861646,-0.03546806,0.008569829,-0.046269968152046204,7.272725342772901E-4,-1.6288375854492188,1007.5303,
2021.02.06 17:52:55,63.0,24.0,33.96,-3.24,-27.539999,-0.009577099,0.45012367,9.876384,0.079544425,-0.023861619,0.019565403,-0.04554421827197075,9.69696615356952E-4,-1.6291178464889526,1007.5303,
2021.02.06 17:52:55,63.0,24.0,33.899998,-3.06,-27.539999,-0.28731298,0.58420306,9.917087,-0.03224391,0.02134241,-0.036023334,-0.05881611630320549,0.02896340936422348,-1.612443208694458,1007.5325,
2021.02.06 17:52:55,63.0,24.0,34.02,-3.36,-27.48,-0.24182175,0.55786604,10.348056,-0.052402467,0.0054599135,-0.017697377,-0.0538434237241745,0.023364556953310966,-1.6256985664367676,1007.5315,
2021.02.06 17:52:55,63.0,24.0,34.079998,-3.12,-27.84,-0.17957062,0.4668836,9.783007,-0.0059767053,0.006681644,-0.009756129,-0.047679733484983444,0.018353300169110298,-1.6231855154037476,1007.5315,
2021.02.06 17:52:55,63.0,24.0,33.96,-3.24,-27.66,-0.2681588,0.47885495,10.034406,-0.0029223792,0.0048490483,-0.002425746,-0.04766813665628433,0.026717575266957283,-1.627213954925537,1007.5266,
2021.02.06 17:52:55,63.0,24.0,34.079998,-3.24,-27.119999,-0.31365,0.52913475,9.972155,-0.04262862,0.018288083,-0.014643051,-0.052985358983278275,0.03144221752882004,-1.6232354640960693,1007.5266,
2021.02.06 17:52:55,63.0,24.0,34.079998,-3.24,-27.18,-0.13647367,0.51716334,9.960183,-0.019415742,-0.0073682563,-0.003036611,-0.05187162756919861,0.013701066374778748,-1.6242198944091797,1007.53174,
2021.02.06 17:52:55,63.0,24.0,33.48,-2.9399998,-27.06,-0.23942748,0.5506832,10.082292,-0.0377417,0.001794722,-0.009145264,-0.054549284279346466,0.02374286577105522,-1.6139439344406128,1007.5366,
2021.02.06 17:52:56,63.0,24.0,33.3,-2.6399999,-27.359999,-0.25379312,0.45491222,10.027223,-0.010863627,-0.007979122,-0.006090937,-0.04532213509082794,0.02530500665307045,-1.6124913692474365,1007.5366,
2021.02.06 17:52:56,63.0,24.0,33.12,-2.6399999,-27.779999,-0.23463893,0.4668836,9.862018,0.0031862732,-0.0146986395,-0.004869207,-0.047292906790971756,0.023787695914506912,-1.610432744026184,1007.53687,
2021.02.06 17:52:56,63.0,24.0,32.88,-2.3999999,-27.72,-0.20351335,0.4956149,10.0368,-0.03835256,-0.008589987,-0.018308243,-0.049329567700624466,0.02027393877506256,-1.6016621589660645,1007.53687,
2021.02.06 17:52:56,63.0,24.0,33.6,-2.3999999,-27.779999,-0.22745611,0.5123748,10.0368,-0.033465642,-0.006146526,-0.011588724,-0.050992272794246674,0.0226583331823349,-1.5993818044662476,1007.531,
2021.02.06 17:52:56,63.0,24.0,33.719997,-2.52,-27.72,-0.25379312,0.51955765,9.957788,0.002575408,0.0030164525,-0.011588724,-0.052111849188804626,0.02548138052225113,-1.601947546005249,1007.531,
2021.02.06 17:52:56,63.0,24.0,33.84,-2.1599998,-28.14,-0.25139886,0.51955765,10.2091875,-0.03896343,0.016455488,-0.020751704,-0.050831932574510574,0.02461979165673256,-1.5914808511734009,1007.531,
2021.02.06 17:52:56,63.0,24.0,33.96,-1.92,-28.08,-0.29928434,0.4668836,9.972155,0.026399152,-0.006146526,-0.011588724,-0.04676353931427002,0.030002998188138008,-1.587658405303955,1007.531,
2021.02.06 17:52:56,63.0,24.0,33.3,-2.04,-28.019999,-0.21309046,0.50758624,9.96976,0.04472511,-0.0146986395,-0.002425746,-0.0508570671081543,0.021370425820350647,-1.5884466171264648,1007.531,
2021.02.06 17:52:56,63.0,24.0,33.18,-1.9799999,-27.9,-0.30646718,0.52913475,10.000886,0.03189694,-0.005535661,0.0049046366,-0.05283474177122116,0.03063441626727581,-1.584749460220337,1007.52734,
2021.02.06 17:52:56,63.0,24.0,32.82,-2.1599998,-27.359999,-0.19393626,0.59378016,10.111023,0.020290501,0.008514239,-0.002425746,-0.05864788591861725,0.019178323447704315,-1.586775541305542,1007.52783,
2021.02.06 17:52:56,63.0,24.0,32.76,-2.28,-27.24,-0.2849187,0.49800915,9.938635,0.06854885,-0.0043139304,0.0055155023,-0.050046004354953766,0.028659939765930176,-1.5979453325271606,1007.52783,
2021.02.06 17:52:56,63.0,24.0,33.0,-2.1599998,-27.0,-0.18435916,0.5818088,9.847652,0.06549453,-0.0012596041,0.0061263675,-0.05900205671787262,0.018718941137194633,-1.5870455503463745,1007.5283,
2021.02.06 17:52:56,63.0,24.0,33.12,-1.92,-26.939999,-0.18435916,0.5698374,9.948212,0.03556213,0.001794722,0.0079589635,-0.05720806121826172,0.018529769033193588,-1.5812723636627197,1007.5283,
2021.02.06 17:52:56,63.0,24.0,33.18,-2.1599998,-27.359999,-0.22985038,0.61293435,10.012857,0.0074623297,0.007903375,0.0024611761,-0.06112237647175789,0.02295149303972721,-1.5842736959457397,1007.52856,
2021.02.06 17:52:56,63.0,24.0,33.3,-2.76,-27.3,-0.24900457,0.5865973,9.929058,0.010516656,0.0048490483,6.2858034E-4,-0.05899175629019737,0.025073111057281494,-1.6044269800186157,1007.51733,
2021.02.06 17:52:56,63.0,24.0,33.3,-2.9399998,-27.599998,-0.19393626,0.6105401,10.00328,0.008684061,-6.487389E-4,0.0061263675,-0.06094694882631302,0.019384840503335,-1.6078517436981201,1007.51733,
2021.02.06 17:52:56,63.0,24.0,33.54,-3.3,-27.599998,-0.12450229,0.6201172,9.955395,-0.022470068,-0.0030921998,-5.9315015E-4,-0.06220433488488197,0.012505359947681427,-1.6175185441970825,1007.52246,
2021.02.06 17:52:57,63.0,24.0,33.78,-3.36,-27.779999,-0.28731298,0.64166564,10.008069,-0.0053658406,0.004238183,-0.01219959,-0.06400089710950851,0.028700251132249832,-1.616720199584961,1007.51855,
2021.02.06 17:52:57,63.0,24.0,33.78,-3.06,-27.84,-0.15562786,0.6368771,10.10384,0.006851465,0.008514239,-0.012810456,-0.06294245272874832,0.015401626005768776,-1.6088699102401733,1007.51855,
2021.02.06 17:52:57,63.0,24.0,34.079998,-2.9399998,-28.019999,-0.3232271,0.6488485,9.838076,0.012960117,0.006681644,-0.010366994,-0.06582199782133102,0.03284289687871933,-1.6015039682388306,1007.51245,
2021.02.06 17:52:57,63.0,24.0,33.96,-2.58,-28.32,-0.13886794,0.6081458,10.132571,-0.0035332446,0.018288083,-0.01342132,-0.0599413737654686,0.013704245910048485,-1.596145510673523,1007.51245,
2021.02.06 17:52:57,63.0,24.0,34.26,-2.46,-28.199999,-0.30646718,0.58420306,9.950606,0.016014442,0.010957701,-0.005480072,-0.058615248650312424,0.03078911080956459,-1.5930474996566772,1007.5115,
2021.02.06 17:52:57,63.0,24.0,34.38,-2.46,-28.14,-0.21787901,0.60335726,10.008069,7.428122E-4,0.007292509,-0.010366994,-0.06019996851682663,0.021766897290945053,-1.5920588970184326,1007.5115,
2021.02.06 17:52:57,63.0,24.0,33.96,-2.28,-27.96,-0.16041641,0.5913859,9.93624,-0.0010897835,-6.487389E-4,6.2858034E-4,-0.05944021791219711,0.016143176704645157,-1.5881850719451904,1007.51074,
2021.02.06 17:52:57,63.0,24.0,33.54,-2.6399999,-27.84,-0.2466103,0.600963,10.010463,0.017236173,-0.0030921998,6.2858034E-4,-0.05994338169693947,0.02463027462363243,-1.5987530946731567,1007.51074,
2021.02.06 17:52:57,63.0,24.0,33.0,-3.0,-27.539999,-0.2561874,0.65363705,10.07032,1.3194689E-4,0.007292509,6.2858034E-4,-0.06479544937610626,0.025434361770749092,-1.606605052947998,1007.51074,
2021.02.06 17:52:57,63.0,24.0,32.76,-2.7,-27.9,-0.18196489,0.6296943,9.972155,0.005629734,-0.006146526,0.0030720413,-0.06305105984210968,0.0182452742010355,-1.598678469657898,1007.51514,
2021.02.06 17:52:57,63.0,24.0,33.239998,-2.8799999,-28.26,-0.21069619,0.6488485,9.957788,0.022123097,-0.010422583,0.0012394455,-0.06505338847637177,0.02115577645599842,-1.6011686325073242,1007.51514,
2021.02.06 17:52:57,63.0,24.0,33.36,-2.6399999,-28.08,-0.19393626,0.6296943,9.967366,0.0031862732,-3.7873644E-5,-0.0036474764,-0.0630798414349556,0.01945466548204422,-1.5959093570709229,1007.51733,
2021.02.06 17:52:57,63.0,24.0,33.18,-2.1,-27.599998,-0.20590763,0.6560313,9.96976,0.008073196,5.729916E-4,0.004293772,-0.06569342315196991,0.020650282502174377,-1.5781282186508179,1007.522,
2021.02.06 17:52:57,63.0,24.0,32.94,-2.1,-27.18,-0.17957062,0.6392714,10.149331,0.011738386,-0.0012596041,0.0079589635,-0.06289363652467728,0.017691006883978844,-1.5816164016723633,1007.522,
2021.02.06 17:52:57,63.0,24.0,32.28,-2.1,-26.519999,-0.18914771,0.69673395,9.850046,-0.0023115142,-0.0049247956,-0.002425746,-0.07060348987579346,0.019200362265110016,-1.5764800310134888,1007.5276,
2021.02.06 17:52:57,63.0,24.0,32.28,-2.1599998,-25.92,-0.17238778,0.6153286,9.950606,0.0019645425,0.007903375,-0.011588724,-0.061750415712594986,0.017322616651654243,-1.5871984958648682,1007.5276,
2021.02.06 17:52:57,63.0,24.0,32.219997,-1.62,-25.859999,-0.21787901,0.6656084,10.041589,0.0037971383,0.014012027,-0.012810456,-0.06617281585931778,0.021694259718060493,-1.5663939714431763,1007.5293,
2021.02.06 17:52:58,63.0,24.0,32.04,-1.62,-25.8,-0.28731298,0.6296943,10.032011,0.01906877,0.0030164525,-0.012810456,-0.06266063451766968,0.028631795197725296,-1.569021224975586,1007.5288,
2021.02.06 17:52:58,63.0,24.0,31.859999,-1.5,-25.68,-0.2466103,0.69912827,9.926663,0.002575408,-6.487389E-4,-0.01097786,-0.07029161602258682,0.02483811229467392,-1.5591884851455688,1007.5288,
2021.02.06 17:52:58,63.0,24.0,32.04,-1.4399999,-25.92,-0.27294734,0.69912827,9.991309,-0.0053658406,0.003627318,-0.009145264,-0.06983380019664764,0.02731168270111084,-1.556988000869751,1007.53345,
2021.02.06 17:52:58,63.0,24.0,31.74,-1.92,-25.68,-0.16041641,0.71828246,9.964972,0.010516656,0.0060707787,-0.006701803,-0.07194700092077255,0.01609663851559162,-1.5718352794647217,1007.53345,
2021.02.06 17:52:58,63.0,24.0,31.56,-2.22,-25.74,-0.18914771,0.6488485,9.960183,0.0031862732,-0.005535661,0.0030720413,-0.06504061818122864,0.018988102674484253,-1.5870088338851929,1007.5364,
2021.02.06 17:52:58,63.0,24.0,31.92,-2.22,-25.98,-0.32083282,0.6895511,9.962578,0.015403578,-0.006146526,0.0012394455,-0.06906823068857193,0.032192669808864594,-1.5821185111999512,1007.53345,
2021.02.06 17:52:58,63.0,24.0,31.38,-2.46,-26.099998,-0.30886146,0.7398309,10.075109,-0.026746124,0.003627318,-0.0018148806,-0.07326570153236389,0.030646298080682755,-1.586282730102539,1007.53345,
2021.02.06 17:52:58,63.0,24.0,31.56,-2.1,-26.46,-0.20590763,0.71828246,9.929058,-0.016361414,-0.011033448,0.01101329,-0.07220017910003662,0.020734909921884537,-1.575278878211975,1007.52905,
2021.02.06 17:52:58,63.0,24.0,31.5,-1.56,-25.92,-0.14365649,0.6895511,9.869201,-0.014528819,-0.0146986395,0.015289347,-0.06974826753139496,0.014555012807250023,-1.5617358684539795,1007.52905,
2021.02.06 17:52:58,63.0,24.0,31.08,-1.74,-25.859999,-0.2849187,0.67757976,10.180456,0.010516656,-6.487389E-4,0.0079589635,-0.06643296778202057,0.027979524806141853,-1.5695579051971436,1007.5305,
2021.02.06 17:52:58,63.0,24.0,31.56,-1.26,-25.859999,-0.2753416,0.69912827,9.957788,-0.009641897,0.011568567,-0.0036474764,-0.07006748020648956,0.027643835172057152,-1.5508874654769897,1007.5281,
2021.02.06 17:52:58,63.0,24.0,31.32,-1.56,-25.68,-0.19393626,0.6368771,9.931452,0.014792713,5.729916E-4,-0.0042583416,-0.06402742862701416,0.01952500268816948,-1.5667359828948975,1007.5281,
2021.02.06 17:52:58,63.0,24.0,31.619999,-1.74,-25.619999,-0.22266756,0.64166564,10.075109,-0.0053658406,-0.0067573916,0.0018503108,-0.06358682364225388,0.022097162902355194,-1.5728734731674194,1007.52515,
2021.02.06 17:52:58,63.0,24.0,31.619999,-1.26,-25.019999,-0.15083931,0.6392714,9.917087,-0.018804876,-3.7873644E-5,0.0012394455,-0.06436512619256973,0.015208871103823185,-1.5585463047027588,1007.52515,
2021.02.06 17:52:58,63.0,24.0,31.199999,-1.4399999,-25.199999,-0.2466103,0.62251145,9.914692,-0.012696223,0.0054599135,0.0024611761,-0.06268511712551117,0.024868091568350792,-1.5645939111709595,1007.5183,
2021.02.06 17:52:58,63.0,24.0,31.38,-1.38,-25.38,-0.13886794,0.66321415,10.166091,-0.022470068,-3.7873644E-5,0.008569829,-0.06513950228691101,0.013659066520631313,-1.5610402822494507,1007.5149,
2021.02.06 17:52:59,63.0,24.0,31.26,-1.4399999,-26.16,-0.25139886,0.5985687,9.967366,-0.010863627,-0.0024813346,0.0018503108,-0.05996178463101387,0.025216849520802498,-1.5650107860565186,1007.5149,
2021.02.06 17:52:59,63.0,24.0,31.619999,-1.92,-26.939999,-0.17717634,0.62251145,10.089474,-0.0017006488,0.0054599135,-0.0036474764,-0.06161151081323624,0.017558708786964417,-1.577978253364563,1007.521,
2021.02.06 17:52:59,63.0,24.0,32.04,-2.1,-26.64,-0.18435916,0.6488485,9.964972,-0.016972281,5.729916E-4,-5.9315015E-4,-0.06501004844903946,0.018498610705137253,-1.5811539888381958,1007.52563,
2021.02.06 17:52:59,63.0,24.0,31.92,-2.1599998,-26.46,-0.2944958,0.5913859,10.079897,0.010516656,0.012179431,-0.006090937,-0.05857772007584572,0.02920784428715706,-1.5885663032531738,1007.52563,
2021.02.06 17:52:59,63.0,24.0,31.98,-2.22,-25.98,-0.15083931,0.65124273,9.888355,0.005629734,-0.0037030652,-0.003036611,-0.06575696170330048,0.015253053978085518,-1.5858747959136963,1007.51807,
2021.02.06 17:52:59,63.0,24.0,31.8,-1.8,-25.439999,-0.23463893,0.5913859,9.9889145,-0.009641897,0.013401162,-0.009756129,-0.05911892652511597,0.023485613986849785,-1.578811764717102,1007.51807,
2021.02.06 17:52:59,63.0,24.0,31.439999,-1.4399999,-25.26,-0.17717634,0.63208854,10.00328,-0.0023115142,0.001794722,-0.0042583416,-0.063094362616539,0.017709974199533463,-1.5646511316299438,1007.5115,
2021.02.06 17:52:59,63.0,24.0,31.26,-1.26,-24.96,-0.21069619,0.6344828,9.962578,-0.009031031,-6.487389E-4,-0.010366994,-0.06358654052019119,0.021145610138773918,-1.5587468147277832,1007.5115,
2021.02.06 17:52:59,63.0,24.0,30.599998,-0.96,-24.779999,-0.22985038,0.66321415,9.962578,-0.013917954,0.0024055874,-0.014032186,-0.06645482778549194,0.023067282512784004,-1.5463480949401855,1007.5117,
2021.02.06 17:52:59,63.0,24.0,30.42,-0.9,-24.539999,-0.22745611,0.57462597,10.079897,-0.0029223792,-0.0012596041,-0.007312668,-0.0569310337305069,0.022561492398381233,-1.5528308153152466,1007.5117,
2021.02.06 17:52:59,63.0,24.0,30.06,-0.84,-24.66,-0.26337022,0.5794145,9.957788,-4.7891834E-4,0.010957701,-0.008534398,-0.05810125917196274,0.026442499831318855,-1.549061894416809,1007.5117,
2021.02.06 17:52:59,63.0,24.0,30.24,-0.96,-24.9,-0.21069619,0.5913859,10.079897,-0.0065875705,0.0024055874,0.0018503108,-0.05858989059925079,0.020899571478366852,-1.552746057510376,1007.5144,
2021.02.06 17:52:59,63.0,24.0,30.9,-0.96,-25.26,-0.27294734,0.56744313,9.833286,-0.0035332446,0.003627318,0.0030720413,-0.05762029066681862,0.02775036357343197,-1.552741289138794,1007.5144,
2021.02.06 17:52:59,63.0,24.0,31.14,-1.5,-25.5,-0.2681588,0.56744313,10.211582,-0.009031031,0.009735971,0.004293772,-0.05549239739775658,0.02625422552227974,-1.5720605850219727,1007.52,
2021.02.06 17:52:59,63.0,24.0,31.38,-1.5,-24.9,-0.14126222,0.5889916,9.881172,-0.009641897,0.003627318,0.011624155,-0.059530943632125854,0.014295125380158424,-1.570453405380249,1007.521,
2021.02.06 17:52:59,63.0,24.0,31.38,-1.3199999,-24.9,-0.15083931,0.5818088,9.981731,0.006851465,0.009735971,0.0030720413,-0.05821485444903374,0.015110388398170471,-1.5656870603561401,1007.521,
2021.02.06 17:52:59,63.0,24.0,31.32,-1.5,-24.84,-0.15802214,0.6440599,10.082292,0.005629734,0.001794722,6.2858034E-4,-0.06378581374883652,0.015671951696276665,-1.5669968128204346,1007.52344,
2021.02.06 17:53:00,63.0,24.0,31.019999,-1.3199999,-24.42,-0.21787901,0.53871185,10.017646,0.014792713,0.007292509,-0.012810456,-0.053711868822574615,0.021746093407273293,-1.5698509216308594,1007.52344,
2021.02.06 17:53:00,63.0,24.0,30.779999,-1.38,-24.72,-0.25858167,0.60335726,9.957788,0.019679634,-0.0043139304,-0.017086511,-0.060497161000967026,0.025961946696043015,-1.565322756767273,1007.5171,
2021.02.06 17:53:00,63.0,24.0,30.539999,-1.8,-25.019999,-0.21787901,0.61293435,9.907509,-0.007198436,0.0030164525,-0.016475648,-0.06177198886871338,0.021987758576869965,-1.577831506729126,1007.52515,
2021.02.06 17:53:00,63.0,24.0,30.42,-2.1,-25.439999,-0.18675344,0.61293435,10.041589,0.02273396,-0.0067573916,-0.008534398,-0.060953423380851746,0.018595851957798004,-1.5879017114639282,1007.52515,
2021.02.06 17:53:00,63.0,24.0,30.72,-2.1,-25.68,-0.2681588,0.6464542,9.962578,-0.015139685,0.0030164525,-0.017697377,-0.06477401405572891,0.02691010944545269,-1.583470106124878,1007.52563,
2021.02.06 17:53:00,63.0,24.0,30.48,-2.22,-25.8,-0.29689008,0.66321415,10.015251,-0.004754975,0.012790296,-0.011588724,-0.06609493494033813,0.029635118320584297,-1.586021065711975,1007.52563,
2021.02.06 17:53:00,63.0,24.0,30.42,-1.74,-25.68,-0.15562786,0.65842557,9.893144,-0.012696223,-0.0037030652,-0.009145264,-0.06644751876592636,0.01572958193719387,-1.5707790851593018,1007.52905,
2021.02.06 17:53:00,63.0,24.0,30.42,-1.5,-25.26,-0.33759275,0.6344828,10.008069,-0.010252762,-3.7873644E-5,-0.017086511,-0.0632764995098114,0.033719271421432495,-1.5652384757995605,1007.53613,
2021.02.06 17:53:00,63.0,24.0,30.24,-1.62,-25.38,-0.2681588,0.6081458,9.993703,-0.0065875705,0.0030164525,-0.014032186,-0.0607561320066452,0.026826340705156326,-1.5717192888259888,1007.53613,
2021.02.06 17:53:00,63.0,24.0,30.66,-1.92,-25.14,-0.13168511,0.6273,9.897932,-0.0010897835,-0.009200852,0.0079589635,-0.06328663975000381,0.013303520157933235,-1.5807071924209595,1007.5298,
2021.02.06 17:53:00,63.0,24.0,30.72,-2.04,-25.199999,-0.32562137,0.5794145,9.974549,0.0044080038,-0.0043139304,0.0049046366,-0.05799325928092003,0.03263362869620323,-1.588151216506958,1007.5298,
2021.02.06 17:53:00,63.0,24.0,31.08,-1.9799999,-25.199999,-0.20111908,0.6464542,10.029617,-0.009641897,-0.007979122,0.011624155,-0.06435258686542511,0.02004983089864254,-1.5811200141906738,1007.52637,
2021.02.06 17:53:00,63.0,24.0,31.38,-1.62,-25.439999,-0.22027329,0.5794145,9.981731,-0.0059767053,-0.0049247956,0.010402424,-0.057968344539403915,0.02206406183540821,-1.5741599798202515,1007.52686,
2021.02.06 17:53:00,63.0,24.0,31.8,-1.26,-25.68,-0.26337022,0.6105401,9.972155,-0.0035332446,-6.487389E-4,0.009180694,-0.06112690269947052,0.026404425501823425,-1.5591657161712646,1007.52686,
2021.02.06 17:53:00,63.0,24.0,32.1,-1.4399999,-25.38,-0.16759923,0.6201172,9.955395,-0.011474493,0.0011838569,0.008569829,-0.0622004009783268,0.01683342643082142,-1.565308928489685,1007.52246,
2021.02.06 17:53:00,63.0,24.0,31.92,-1.4399999,-25.56,-0.22027329,0.5889916,10.005674,-0.012085358,0.0024055874,0.0067372327,-0.05878369137644768,0.022011280059814453,-1.5674456357955933,1007.522,
2021.02.06 17:53:00,63.0,24.0,31.92,-1.26,-25.5,-0.23224466,0.5865973,10.034406,-0.010252762,-0.0018704693,0.0018503108,-0.05837654694914818,0.02314070425927639,-1.5620933771133423,1007.522,
2021.02.06 17:53:01,63.0,24.0,31.38,-1.3199999,-25.26,-0.13168511,0.6081458,9.996098,-0.01575055,-0.010422583,-0.006090937,-0.06075816601514816,0.013172890059649944,-1.5630266666412354,1007.52026,
2021.02.06 17:53:01,63.0,24.0,31.679998,-1.1999999,-25.68,-0.2466103,0.5889916,9.941029,0.010516656,-0.011644313,-0.01097786,-0.05916120484471321,0.024802235886454582,-1.558988332748413,1007.52026,
2021.02.06 17:53:01,63.0,24.0,31.8,-1.0799999,-25.68,-0.22506183,0.62251145,10.26665,0.010516656,-0.009811718,-0.01097786,-0.060545675456523895,0.021918131038546562,-1.5542224645614624,1007.51953,
2021.02.06 17:53:01,63.0,24.0,31.8,-1.26,-25.56,-0.2370332,0.64166564,9.751882,-0.030411316,-0.0018704693,-0.018308243,-0.06568510085344315,0.024301622062921524,-1.5556979179382324,1007.51953,
2021.02.06 17:53:01,63.0,24.0,32.1,-1.1999999,-25.74,-0.22506183,0.6201172,10.010463,0.0031862732,-0.0018704693,-0.021362567,-0.061852261424064636,0.022478872910141945,-1.5569125413894653,1007.5259,
2021.02.06 17:53:01,63.0,24.0,31.679998,-1.38,-25.56,-0.21548474,0.5147691,9.962578,-0.0078093014,0.003627318,-0.017086511,-0.051612310111522675,0.021626044064760208,-1.5715837478637695,1007.5249,
2021.02.06 17:53:01,63.0,24.0,31.32,-1.74,-25.56,-0.21069619,0.5243462,9.981731,0.032507803,0.0054599135,-0.007312668,-0.05247068032622337,0.021105045452713966,-1.5825819969177246,1007.5249,
2021.02.06 17:53:01,63.0,24.0,31.5,-1.92,-25.5,-0.25858167,0.62251145,9.931452,-0.028578721,0.0103468355,-0.009756129,-0.0625777617096901,0.0260307639837265,-1.579581618309021,1007.5237,
2021.02.06 17:53:01,63.0,24.0,31.679998,-1.86,-25.74,-0.23942748,0.5458947,10.055954,-0.037130833,0.025618467,-0.004869207,-0.054217152297496796,0.023805025964975357,-1.5843806266784668,1007.5237,
2021.02.06 17:53:01,63.0,24.0,32.04,-2.22,-25.92,-0.23942748,0.53392327,9.766247,0.026399152,0.008514239,0.012235019,-0.054599516093730927,0.024510903283953667,-1.5949910879135132,1007.52856,
2021.02.06 17:53:01,63.0,24.0,31.98,-2.1,-25.92,-0.29689008,0.6344828,10.211582,-0.012085358,0.028061928,0.013456751,-0.06202772632241249,0.02906567044556141,-1.584645390510559,1007.5281,
2021.02.06 17:53:01,63.0,24.0,31.8,-2.28,-25.619999,-0.11253092,0.54828894,9.862018,-0.0053658406,0.03539231,0.018954538,-0.05553523823618889,0.011410041712224483,-1.5972728729248047,1007.5281,
2021.02.06 17:53:01,63.0,24.0,31.38,-2.04,-25.439999,-0.27055305,0.48124924,10.029617,0.0031862732,0.03539231,0.012235019,-0.04792862758040428,0.02696887217462063,-1.5961707830429077,1007.52686,
2021.02.06 17:53:01,63.0,24.0,31.08,-1.56,-25.26,0.021548472,0.7805336,10.743111,-0.10738033,-0.024472483,0.02628492,-0.07252676039934158,-0.0020057917572557926,-1.562123417854309,1007.52686,
