Time,X-cord,Y-cord,Mag_x,Mag_y,Mag_z,Acc_x,Acc_y,Acc_z,Gyro_x,Gyro_y,Gyro_z,Orn_x,Orn_y,Orn_z,Pressure,
2021.02.06 17:41:21,38.0,24.0,19.439999,-14.759999,-24.0,-0.32083282,0.70870537,9.718362,0.12597018,0.11236133,-0.11115976,-0.07275600731372833,0.03300107270479202,-2.177347183227539,1007.5398,
2021.02.06 17:41:21,38.0,24.0,20.34,-14.94,-24.9,-0.505192,0.6177229,10.441432,-0.026135258,-0.023250753,-0.048851505,-0.05902298912405968,0.04834569990634918,-2.1818687915802,1007.53784,
2021.02.06 17:41:21,38.0,24.0,21.18,-15.24,-25.859999,-0.40223816,0.7589851,9.72315,-0.048126407,-0.01592037,-0.03357987,-0.077835313975811,0.041345544159412384,-2.149137258529663,1007.53784,
2021.02.06 17:41:21,38.0,24.0,21.84,-15.719999,-26.4,-0.4860378,0.69673395,10.194822,0.04350338,-0.011033448,0.0049046366,-0.06815866380929947,0.047638893127441406,-2.162539482116699,1007.5383,
2021.02.06 17:41:21,38.0,24.0,22.68,-16.199999,-27.0,-0.16041641,0.81165916,9.648928,0.017236173,-0.0751743,0.045221746,-0.08390998840332031,0.016623778268694878,-2.1279797554016113,1007.5383,
2021.02.06 17:41:21,38.0,24.0,22.68,-16.38,-27.119999,-0.36632404,0.65842557,9.974549,0.0037971383,-6.487389E-4,0.012235019,-0.06587065011262894,0.03670937567949295,-2.1606976985931396,1007.53516,
2021.02.06 17:41:21,38.0,24.0,22.68,-16.44,-27.0,-0.17717634,0.6656084,10.024829,-0.048737273,0.012179431,-0.020140838,-0.06628834456205368,0.017671911045908928,-2.1522083282470703,1007.5322,
2021.02.06 17:41:21,38.0,24.0,22.92,-16.619999,-27.119999,-0.2466103,0.679974,9.744699,0.011738386,0.019509813,1.7715092E-5,-0.06964371353387833,0.025301722809672356,-2.1536433696746826,1007.5322,
2021.02.06 17:41:21,38.0,24.0,22.26,-16.56,-27.0,-0.31125572,0.65363705,9.883567,-0.016972281,0.04211183,-0.025638627,-0.0660049244761467,0.03148183971643448,-2.172635555267334,1007.5332,
2021.02.06 17:41:21,38.0,24.0,22.38,-16.56,-27.0,-0.27294734,0.6201172,9.964972,-0.057900254,0.056772593,-0.049462367,-0.062126316130161285,0.02738383412361145,-2.1712629795074463,1007.5332,
2021.02.06 17:41:21,38.0,24.0,22.32,-16.26,-27.119999,-0.42378664,0.6392714,10.05356,-0.06217631,0.03172712,-0.062290538,-0.06344489008188248,0.042127951979637146,-2.169983148574829,1007.5359,
2021.02.06 17:41:21,38.0,24.0,22.38,-16.44,-26.88,-0.339987,0.54350036,9.794978,-0.01575055,-0.014087774,-0.047018908,-0.05539751797914505,0.03469640761613846,-2.1777710914611816,1007.5376,
2021.02.06 17:41:21,38.0,24.0,23.279999,-16.56,-26.82,-0.36632404,0.5913859,10.125388,-0.010863627,-0.0018704693,-0.024416896,-0.05830191448330879,0.03616299480199814,-2.1605875492095947,1007.5376,
2021.02.06 17:41:21,38.0,24.0,23.16,-16.38,-26.699999,-0.40463245,0.65363705,10.015251,0.0031862732,-0.0018704693,-0.01097786,-0.06511877477169037,0.04037966579198837,-2.153747797012329,1007.53906,
2021.02.06 17:41:21,38.0,24.0,23.4,-16.32,-26.46,-0.36871833,0.5985687,9.98652,0.032507803,-0.010422583,6.2858034E-4,-0.05982537940144539,0.03690484166145325,-2.1500887870788574,1007.53906,
2021.02.06 17:41:21,38.0,24.0,23.519999,-16.32,-26.64,-0.41181526,0.77574503,9.996098,0.066105396,-0.0030921998,0.0079589635,-0.07738417387008667,0.04117432236671448,-2.1337623596191406,1007.53784,
2021.02.06 17:41:22,38.0,24.0,22.619999,-15.9,-26.939999,-0.32562137,0.6895511,10.067925,0.047779433,0.0060707787,-0.003036611,-0.06834746897220612,0.03233117610216141,-2.1421356201171875,1007.5337,
2021.02.06 17:41:22,38.0,24.0,22.8,-16.08,-27.119999,-0.29210153,0.679974,9.821315,0.10031385,-0.01836383,0.020176267,-0.06909375637769699,0.029732827097177505,-2.141842842102051,1007.5337,
2021.02.06 17:41:22,38.0,24.0,22.5,-16.44,-27.24,-0.41181526,0.68715686,9.96976,0.088096544,0.0060707787,0.022008864,-0.0687568336725235,0.04128296673297882,-2.1662099361419678,1007.5327,
2021.02.06 17:41:22,38.0,24.0,22.08,-16.32,-27.42,-0.38547826,0.76137936,9.943423,-0.03102218,0.014622892,-0.017697377,-0.07636488974094391,0.03874775394797325,-2.162614583969116,1007.5327,
2021.02.06 17:41:22,38.0,24.0,22.619999,-16.32,-27.18,-0.2370332,0.7039168,9.888355,-0.0065875705,0.009125105,0.008569829,-0.07104621082544327,0.02396635338664055,-2.1483259201049805,1007.5383,
2021.02.06 17:41:22,38.0,24.0,22.8,-16.199999,-27.539999,-0.3519584,0.67757976,9.957788,-0.017583145,0.004238183,0.0018503108,-0.0678982138633728,0.03533032909035683,-2.1491761207580566,1007.5349,
2021.02.06 17:41:22,38.0,24.0,23.34,-16.32,-27.72,-0.42139238,0.67279124,9.972155,-0.03896343,0.0060707787,-0.014032186,-0.06730502098798752,0.04223177954554558,-2.145817756652832,1007.5349,
2021.02.06 17:41:22,38.0,24.0,23.22,-16.44,-27.06,-0.33519846,0.5889916,10.065532,-0.039574295,0.0054599135,-0.0042583416,-0.058416735380887985,0.033289313316345215,-2.1562142372131348,1007.5349,
2021.02.06 17:41:22,38.0,24.0,22.68,-16.68,-27.24,-0.37829542,0.6560313,9.957788,-0.026746124,-0.013476909,0.008569829,-0.06573887169361115,0.03797164186835289,-2.170849561691284,1007.5315,
2021.02.06 17:41:22,38.0,24.0,22.14,-16.68,-26.88,-0.25858167,0.6105401,10.022434,-0.012696223,-0.015309504,0.01101329,-0.06082197278738022,0.025794563814997673,-2.180694103240967,1007.5315,
2021.02.06 17:41:22,38.0,24.0,21.48,-16.08,-26.82,-0.31365,0.6392714,9.962578,-0.01575055,-0.017752966,0.0049046366,-0.06404776126146317,0.03147242218255997,-2.1766326427459717,1007.532,
2021.02.06 17:41:22,38.0,24.0,21.9,-16.08,-27.24,-0.35674694,0.5411061,9.996098,-0.016972281,-0.011644313,-0.01097786,-0.054044611752033234,0.035673484206199646,-2.1784234046936035,1007.532,
2021.02.06 17:41:22,38.0,24.0,22.26,-16.199999,-27.66,-0.20111908,0.6081458,9.98652,-0.010252762,-0.010422583,-0.017697377,-0.06080925464630127,0.020136334002017975,-2.1586875915527344,1007.5322,
2021.02.06 17:41:22,38.0,24.0,22.26,-16.44,-27.599998,-0.44054657,0.51716334,10.115811,-0.029189585,0.0048490483,-0.02624949,-0.05103150010108948,0.04352279379963875,-2.189012050628662,1007.5342,
2021.02.06 17:41:22,38.0,24.0,22.26,-16.619999,-27.9,-0.38068968,0.58420306,9.838076,0.021512229,-0.0030921998,-0.005480072,-0.05926794186234474,0.038676247000694275,-2.1838419437408447,1007.5342,
2021.02.06 17:41:22,38.0,24.0,21.96,-16.44,-27.9,-0.31843856,0.5698374,10.05356,0.0019645425,0.0060707787,-0.022584299,-0.05659126117825508,0.031663622707128525,-2.183148145675659,1007.5393,
2021.02.06 17:41:22,38.0,24.0,21.9,-15.9,-27.539999,-0.3328042,0.5770202,10.099051,-0.009031031,-0.0049247956,-0.007312668,-0.057043131440877914,0.03294208645820618,-2.167863130569458,1007.5393,
2021.02.06 17:41:23,38.0,24.0,22.08,-15.839999,-27.72,-0.30646718,0.5961744,9.838076,0.029453479,-0.013476909,-0.0012040153,-0.060495391488075256,0.03114105947315693,-2.1573903560638428,1007.5408,
2021.02.06 17:41:23,38.0,24.0,22.08,-15.96,-27.599998,-0.29689008,0.5889916,10.032011,0.011127521,-0.013476909,0.0018503108,-0.058618295937776566,0.029585639014840126,-2.1623356342315674,1007.5408,
2021.02.06 17:41:23,38.0,24.0,21.96,-15.66,-27.599998,-0.32562137,0.67279124,9.797373,0.022123097,-0.016531235,0.0030720413,-0.06852522492408752,0.03322334960103035,-2.1476502418518066,1007.53955,
2021.02.06 17:41:23,38.0,24.0,21.9,-15.9,-27.96,-0.24182175,0.5865973,10.022434,0.012349252,-0.011033448,0.0067372327,-0.05844476446509361,0.024123365059494972,-2.1608564853668213,1007.5425,
2021.02.06 17:41:23,38.0,24.0,22.199999,-16.32,-28.199999,-0.32083282,0.64166564,9.929058,0.0044080038,-0.011644313,1.7715092E-5,-0.06450171768665314,0.03230127692222595,-2.1665024757385254,1007.5425,
2021.02.06 17:41:23,38.0,24.0,22.26,-16.14,-28.32,-0.21548474,0.63208854,10.084685,-0.012085358,0.001794722,-0.0042583416,-0.06258193403482437,0.021364271640777588,-2.1547787189483643,1007.5386,
2021.02.06 17:41:23,38.0,24.0,22.439999,-16.38,-28.68,-0.31365,0.67279124,9.926663,-0.019415742,0.0054599135,-5.9315015E-4,-0.06763903051614761,0.031586211174726486,-2.159072160720825,1007.5408,
2021.02.06 17:41:23,38.0,24.0,22.56,-16.26,-28.74,-0.28013015,0.6105401,10.067925,0.005018869,0.004238183,-0.017086511,-0.06054454669356346,0.02781684137880802,-2.15729022026062,1007.5408,
2021.02.06 17:41:23,38.0,24.0,21.96,-15.599999,-28.26,-0.22745611,0.6153286,9.950606,-0.0017006488,0.004238183,-0.016475648,-0.06174357607960701,0.022854536771774292,-2.145371675491333,1007.54785,
2021.02.06 17:41:23,38.0,24.0,21.9,-15.96,-28.08,-0.29210153,0.65842557,9.931452,0.011127521,0.004238183,-0.020751704,-0.06617160886526108,0.029403287917375565,-2.158247232437134,1007.54785,
2021.02.06 17:41:23,38.0,24.0,21.779999,-15.839999,-27.66,-0.29689008,0.6464542,10.024829,0.005018869,0.0048490483,-0.014643051,-0.06436800211668015,0.02960682101547718,-2.159444570541382,1007.54395,
2021.02.06 17:41:23,38.0,24.0,21.48,-15.839999,-27.779999,-0.30167863,0.61293435,9.929058,0.017847039,-6.487389E-4,-0.004869207,-0.061624765396118164,0.030374065041542053,-2.1690900325775146,1007.54395,
2021.02.06 17:41:23,38.0,24.0,21.66,-15.66,-27.779999,-0.29210153,0.65124273,10.111023,-0.0035332446,0.004238183,-0.003036611,-0.06429358571767807,0.028881382197141647,-2.1556105613708496,1007.53564,
2021.02.06 17:41:23,38.0,24.0,21.539999,-15.299999,-27.66,-0.25858167,0.66800267,9.862018,-0.0053658406,0.0054599135,1.7715092E-5,-0.06760841608047485,0.02621394954621792,-2.1415419578552246,1007.5364,
2021.02.06 17:41:23,38.0,24.0,21.18,-15.12,-27.119999,-0.30886146,0.58420306,10.055954,-0.00414411,0.009735971,-0.002425746,-0.05800272151827812,0.030704636126756668,-2.156315803527832,1007.5364,
2021.02.06 17:41:23,38.0,24.0,21.24,-15.179999,-26.099998,-0.2753416,0.7039168,9.955395,0.0037971383,-3.7873644E-5,-0.008534398,-0.0705626979470253,0.02765047922730446,-2.1447575092315674,1007.53613,
2021.02.06 17:41:23,38.0,24.0,20.76,-15.42,-25.8,-0.3519584,0.60335726,10.072714,7.428122E-4,0.006681644,-0.014032186,-0.059792276471853256,0.03492755442857742,-2.1786715984344482,1007.53613,
2021.02.06 17:41:24,38.0,24.0,20.64,-15.42,-25.439999,-0.2849187,0.63208854,9.866806,0.0031862732,-0.0024813346,-0.0012040153,-0.0639481246471405,0.02886846475303173,-2.1746556758880615,1007.5415,
2021.02.06 17:41:24,38.0,24.0,20.58,-15.48,-26.099998,-0.30886146,0.6440599,9.993703,0.013570982,0.0011838569,-5.9315015E-4,-0.0643269419670105,0.030895773321390152,-2.1779611110687256,1007.54834,
2021.02.06 17:41:24,38.0,24.0,20.58,-15.299999,-25.98,-0.2944958,0.64166564,9.948212,-4.7891834E-4,-0.0012596041,1.7715092E-5,-0.06438325345516205,0.029594244435429573,-2.171170711517334,1007.54834,
2021.02.06 17:41:24,38.0,24.0,20.64,-15.299999,-25.8,-0.35674694,0.70870537,10.075109,0.015403578,5.729916E-4,-0.003036611,-0.0701826885342598,0.035393957048654556,-2.16788387298584,1007.54395,
2021.02.06 17:41:24,38.0,24.0,20.64,-15.059999,-25.98,-0.2561874,0.72785956,10.060742,-0.00414411,0.0048490483,-0.009756129,-0.07219735532999039,0.0254585649818182,-2.15165114402771,1007.5332,
2021.02.06 17:41:24,38.0,24.0,21.0,-14.82,-25.5,-0.27294734,0.68715686,9.809344,0.036783863,-0.0067573916,0.0055155023,-0.06991002708673477,0.02781805954873562,-2.1394643783569336,1007.5332,
2021.02.06 17:41:24,38.0,24.0,20.939999,-14.759999,-25.74,-0.32562137,0.70870537,10.113417,0.020290501,-0.0024813346,0.0079589635,-0.06992527097463608,0.03218585252761841,-2.1406328678131104,1007.5376,
2021.02.06 17:41:24,38.0,24.0,20.939999,-14.46,-26.16,-0.29689008,0.7685622,9.972155,0.015403578,0.0054599135,-0.004869207,-0.07688483595848083,0.0297631174325943,-2.1209962368011475,1007.5376,
2021.02.06 17:41:24,38.0,24.0,20.64,-14.759999,-26.099998,-0.25858167,0.72785956,9.984126,0.05266636,-0.0018704693,-0.004869207,-0.07274863123893738,0.02589349076151848,-2.140571355819702,1007.5332,
2021.02.06 17:41:24,38.0,24.0,20.34,-15.299999,-25.859999,-0.24421602,0.7853221,9.897932,0.0037971383,-6.487389E-4,-0.0042583416,-0.0791521891951561,0.024668434634804726,-2.1601221561431885,1007.5332,
2021.02.06 17:41:24,38.0,24.0,20.279999,-15.299999,-25.5,-0.34477556,0.749408,9.953,0.017236173,0.0011838569,-0.006090937,-0.07510799914598465,0.034626517444849014,-2.171844720840454,1007.5415,
2021.02.06 17:41:24,38.0,24.0,20.22,-15.42,-25.14,-0.3304099,0.74701375,9.991309,-0.013307089,5.729916E-4,-0.010366994,-0.0745868906378746,0.03305768221616745,-2.1777145862579346,1007.52686,
2021.02.06 17:41:24,38.0,24.0,20.82,-15.36,-24.6,-0.28252444,0.7709565,9.950606,-0.0078093014,0.004238183,-0.009145264,-0.07729284465312958,0.028385059908032417,-2.1574487686157227,1007.52686,
2021.02.06 17:41:24,38.0,24.0,20.76,-15.179999,-24.779999,-0.35914123,0.7206767,10.032011,-0.01819401,-0.0030921998,-0.0042583416,-0.07166877388954163,0.035784244537353516,-2.1613893508911133,1007.5303,
2021.02.06 17:41:24,38.0,24.0,20.88,-15.299999,-25.14,-0.21069619,0.7326481,9.950606,-0.004754975,-0.0073682563,6.2858034E-4,-0.07347945868968964,0.02117104083299637,-2.152613401412964,1007.5303,
2021.02.06 17:41:24,38.0,24.0,21.06,-15.42,-24.66,-0.36632404,0.68715686,10.027223,-0.013307089,0.0030164525,0.014067615,-0.06837668269872665,0.0365167111158371,-2.1662280559539795,1007.532,
2021.02.06 17:41:24,38.0,24.0,20.64,-15.24,-25.199999,-0.30886146,0.71588814,9.972155,-0.0065875705,-0.005535661,0.009180694,-0.0716315358877182,0.030962493270635605,-2.1629433631896973,1007.52856,
2021.02.06 17:41:25,38.0,24.0,20.88,-15.0,-25.38,-0.25858167,0.69194543,9.964972,-0.013307089,-0.0067573916,0.018343672,-0.0693032443523407,0.02594323828816414,-2.148216724395752,1007.52856,
2021.02.06 17:41:25,38.0,24.0,20.76,-14.94,-25.38,-0.29689008,0.679974,10.0368,-0.016972281,-0.0012596041,0.013456751,-0.06761523336172104,0.029571527615189552,-2.1524271965026855,1007.5281,
2021.02.06 17:41:25,38.0,24.0,20.64,-14.7,-25.8,-0.339987,0.6703969,10.07032,-0.016972281,0.004238183,0.009180694,-0.06643573939800262,0.03374847397208214,-2.149552583694458,1007.5281,
2021.02.06 17:41:25,38.0,24.0,20.64,-14.82,-25.8,-0.3974496,0.6560313,9.897932,-0.007198436,0.0030164525,0.028728383,-0.06612969934940338,0.04013324901461601,-2.157757043838501,1007.53,
2021.02.06 17:41:25,38.0,24.0,20.76,-14.88,-25.5,-0.14844504,0.6656084,10.182851,-0.033465642,-0.007979122,0.04400001,-0.06526584923267365,0.014576911926269531,-2.1442244052886963,1007.53564,
2021.02.06 17:41:25,38.0,24.0,20.82,-14.88,-25.199999,-0.27055305,0.64166564,9.897932,0.018457904,-0.0018704693,0.014067615,-0.06471356004476547,0.02732749469578266,-2.1507492065429688,1007.53564,
2021.02.06 17:41:25,38.0,24.0,21.18,-15.0,-25.08,-0.24421602,0.6177229,10.0200405,0.019679634,-0.006146526,0.014678481,-0.061552587896585464,0.024367934092879295,-2.148259162902832,1007.5405,
2021.02.06 17:41:25,38.0,24.0,21.3,-15.179999,-24.9,-0.28731298,0.6847626,9.998491,0.008073196,0.004238183,-0.005480072,-0.06835169345140457,0.028727728873491287,-2.1481428146362305,1007.5405,
2021.02.06 17:41:25,38.0,24.0,21.119999,-15.42,-25.14,-0.23463893,0.65363705,9.972155,0.01906877,0.0011838569,-0.008534398,-0.0654345378279686,0.023525070399045944,-2.159785270690918,1007.54565,
2021.02.06 17:41:25,38.0,24.0,21.0,-15.719999,-25.8,-0.32562137,0.6895511,9.957788,0.009294925,-0.0024813346,-0.017086511,-0.06910023093223572,0.03268852084875107,-2.173238754272461,1007.5366,
2021.02.06 17:41:25,38.0,24.0,21.06,-16.14,-25.92,-0.28731298,0.68715686,9.974549,-0.009031031,-0.0030921998,-0.011588724,-0.0687539204955101,0.028796644881367683,-2.1837260723114014,1007.5366,
2021.02.06 17:41:25,38.0,24.0,21.06,-15.9,-26.099998,-0.28970724,0.7110996,9.926663,0.030064344,-6.487389E-4,-5.9315015E-4,-0.0714828297495842,0.02917647548019886,-2.1731863021850586,1007.5383,
2021.02.06 17:41:25,38.0,24.0,20.82,-15.66,-26.099998,-0.3040729,0.7326481,10.180456,-0.004754975,-0.005535661,-0.006701803,-0.07181035727262497,0.029859419912099838,-2.1707606315612793,1007.5383,
2021.02.06 17:41:25,38.0,24.0,20.699999,-15.48,-25.68,-0.24421602,0.71588814,9.847652,0.006851465,-0.011644313,1.7715092E-5,-0.07254644483327866,0.024794332683086395,-2.1646430492401123,1007.5327,
2021.02.06 17:41:25,38.0,24.0,20.46,-15.12,-25.92,-0.34956414,0.67757976,10.041589,0.038005594,-0.012866044,0.008569829,-0.06733455508947372,0.034797582775354385,-2.1681036949157715,1007.5305,
2021.02.06 17:41:25,38.0,24.0,20.4,-15.36,-25.74,-0.2657645,0.7350424,9.900327,0.0074623297,-0.0018704693,-0.0036474764,-0.07408169656991959,0.02683756686747074,-2.167125701904297,1007.5305,
2021.02.06 17:41:26,38.0,24.0,20.58,-15.299999,-25.74,-0.25139886,0.6440599,10.108628,0.015403578,-0.0012596041,0.0055155023,-0.06360825896263123,0.02486460469663143,-2.1695477962493896,1007.5298,
2021.02.06 17:41:26,38.0,24.0,20.64,-15.299999,-25.8,-0.18196489,0.7972935,9.972155,-0.0059767053,-3.7873644E-5,-5.9315015E-4,-0.07976904511451721,0.0182452742010355,-2.14919114112854,1007.5298,
2021.02.06 17:41:26,38.0,24.0,20.699999,-15.299999,-25.98,-0.28970724,0.6943397,10.065532,1.3194689E-4,0.0060707787,-0.01219959,-0.06884439289569855,0.028774166479706764,-2.163655996322632,1007.5322,
2021.02.06 17:41:26,38.0,24.0,20.76,-15.12,-25.8,-0.24182175,0.749408,9.912297,1.3194689E-4,5.729916E-4,-0.0042583416,-0.07543794810771942,0.0243912972509861,-2.1476595401763916,1007.5305,
2021.02.06 17:41:26,38.0,24.0,20.699999,-15.36,-25.56,-0.25379312,0.72546524,9.976943,0.017236173,0.0011838569,-0.008534398,-0.0725630447268486,0.02543248049914837,-2.161099672317505,1007.5305,
2021.02.06 17:41:26,38.0,24.0,20.939999,-15.48,-25.32,-0.28013015,0.7589851,10.000886,0.005018869,0.009125105,-0.021362567,-0.0757170021533966,0.028003212064504623,-2.1586217880249023,1007.5283,
2021.02.06 17:41:26,38.0,24.0,20.52,-15.299999,-24.6,-0.19393626,0.74222517,10.0439825,0.024566557,0.0048490483,-0.009756129,-0.07374972850084305,0.019306302070617676,-2.1607346534729004,1007.5283,
2021.02.06 17:41:26,38.0,24.0,20.52,-15.12,-24.6,-0.29928434,0.7709565,9.838076,0.023344826,5.729916E-4,-0.014643051,-0.07816872000694275,0.030411645770072937,-2.1563427448272705,1007.5305,
2021.02.06 17:41:26,38.0,24.0,20.64,-15.059999,-24.6,-0.24182175,0.76137936,10.010463,0.0013536774,0.004238183,-0.012810456,-0.07589014619588852,0.024152202531695366,-2.1502652168273926,1007.53394,
2021.02.06 17:41:26,38.0,24.0,20.279999,-14.88,-24.96,-0.3040729,0.7446195,10.0200405,-0.012085358,-3.7873644E-5,-0.01097786,-0.07414267212152481,0.03033716231584549,-2.156541109085083,1007.53394,
2021.02.06 17:41:26,38.0,24.0,20.46,-15.12,-25.38,-0.22745611,0.7589851,9.816526,0.020901365,-0.011033448,-0.007923533,-0.07714293152093887,0.023166585713624954,-2.1531565189361572,1007.532,
2021.02.06 17:41:26,38.0,24.0,20.1,-15.36,-25.38,-0.44533512,0.8667275,10.046377,0.010516656,-0.0030921998,-0.005480072,-0.0859755426645279,0.0442989282310009,-2.173696517944336,1007.532,
2021.02.06 17:41:26,38.0,24.0,20.039999,-15.179999,-25.74,-0.28731298,0.74222517,9.8548355,-0.009031031,-0.007979122,-0.004869207,-0.07514210790395737,0.029146263375878334,-2.1697609424591064,1007.5342,
2021.02.06 17:41:26,38.0,24.0,20.34,-15.179999,-25.32,-0.25139886,0.70631105,10.063137,0.026399152,-6.487389E-4,1.7715092E-5,-0.07005125284194946,0.024976961314678192,-2.165839910507202,1007.5393,
2021.02.06 17:41:26,38.0,24.0,20.64,-15.0,-25.199999,-0.2561874,0.7948992,9.948212,-0.031633046,-0.0043139304,-0.007923533,-0.07970800995826721,0.025746416300535202,-2.1441524028778076,1007.5393,
2021.02.06 17:41:26,38.0,24.0,20.82,-14.82,-25.56,-0.28013015,0.72546524,9.960183,0.010516656,0.006681644,-5.9315015E-4,-0.07267950475215912,0.02811758778989315,-2.1409358978271484,1007.5371,
2021.02.06 17:41:26,38.0,24.0,20.939999,-15.12,-25.199999,-0.21309046,0.7326481,10.029617,-0.010863627,0.006681644,-0.009756129,-0.07290254533290863,0.02124292403459549,-2.1455273628234863,1007.53296,
2021.02.06 17:41:27,38.0,24.0,20.82,-15.36,-25.26,-0.30886146,0.7206767,9.885961,-0.0010897835,0.0011838569,-0.006701803,-0.07273492217063904,0.031232275068759918,-2.161904811859131,1007.53296,
2021.02.06 17:41:27,38.0,24.0,20.52,-15.48,-25.56,-0.29689008,0.7541966,10.075109,0.0019645425,0.0030164525,-0.009756129,-0.07468575239181519,0.029459156095981598,-2.169693946838379,1007.5315,
2021.02.06 17:41:27,38.0,24.0,21.0,-15.36,-25.26,-0.2657645,0.69673395,9.948212,-0.0035332446,5.729916E-4,-0.014643051,-0.06989706307649612,0.0267084501683712,-2.1579296588897705,1007.5315,
2021.02.06 17:41:27,38.0,24.0,20.88,-14.639999,-25.56,-0.29928434,0.7446195,9.873989,0.005629734,-0.0030921998,-0.006090937,-0.07523533701896667,0.03030109964311123,-2.1319212913513184,1007.5359,
2021.02.06 17:41:27,38.0,24.0,20.699999,-14.58,-25.439999,-0.31125572,0.71588814,10.05356,-0.020026606,0.0060707787,-0.020751704,-0.07105350494384766,0.030949866399168968,-2.138493061065674,1007.5364,
2021.02.06 17:41:27,38.0,24.0,20.34,-14.5199995,-25.439999,-0.22506183,0.69194543,9.900327,0.012349252,-0.0043139304,-0.008534398,-0.06975973397493362,0.022728852927684784,-2.1413819789886475,1007.5364,
2021.02.06 17:41:27,38.0,24.0,19.619999,-14.759999,-25.68,-0.35674694,0.7350424,9.948212,-4.7891834E-4,0.012179431,-0.005480072,-0.07370567321777344,0.03584504872560501,-2.170569896697998,1007.5447,
2021.02.06 17:41:27,38.0,24.0,19.8,-14.88,-25.859999,-0.35435268,0.6895511,9.943423,-0.036519967,0.003627318,-0.0042583416,-0.06919283419847488,0.03562181442975998,-2.174456834793091,1007.5447,
2021.02.06 17:41:27,38.0,24.0,20.039999,-14.5199995,-26.34,-0.35435268,0.7015225,9.93624,-0.0377417,0.009735971,0.0024611761,-0.07044082134962082,0.035647545009851456,-2.153534412384033,1007.5442,
2021.02.06 17:41:27,38.0,24.0,20.64,-14.46,-26.099998,-0.26337022,0.69194543,10.058349,-0.026135258,0.018898949,0.0036829067,-0.06866146624088287,0.026178257539868355,-2.134075880050659,1007.5442,
2021.02.06 17:41:27,38.0,24.0,20.699999,-14.219999,-25.92,-0.30167863,0.679974,9.960183,0.0044080038,0.0103468355,0.011624155,-0.06813231855630875,0.03027920424938202,-2.1272037029266357,1007.5459,
2021.02.06 17:41:27,38.0,24.0,20.76,-14.46,-25.56,-0.13647367,0.600963,9.847652,0.0074623297,0.009125105,0.007348098,-0.060944586992263794,0.013857610523700714,-2.1331443786621094,1007.5388,
2021.02.06 17:41:27,38.0,24.0,21.06,-14.82,-25.439999,-0.11971374,0.54350036,10.896344,-0.05301333,-0.015309504,0.0036829067,-0.04983483627438545,0.010986154899001122,-2.1477251052856445,1007.5388,
2021.02.06 17:41:27,38.0,24.0,21.06,-14.7,-25.32,-0.2681588,0.8978531,9.627379,-0.10676947,-0.017142102,0.013456751,-0.0929555669426918,0.027846569195389748,-2.1121065616607666,1007.5398,
