Time,X-cord,Y-cord,Mag_x,Mag_y,Mag_z,Acc_x,Acc_y,Acc_z,Gyro_x,Gyro_y,Gyro_z,Orn_x,Orn_y,Orn_z,Pressure,
2021.02.06 17:38:02,19.0,24.0,29.58,-3.36,-30.539999,-0.37590113,0.7398309,9.80695,0.055109818,0.12824383,-0.06351227,-0.07524178177118301,0.038311321288347244,-1.6049972772598267,1007.4883,
2021.02.06 17:38:02,19.0,24.0,30.179998,-3.6599998,-30.72,-0.45970076,0.7805336,9.8548355,0.019679634,0.0060707787,-0.032358143,-0.0789526179432869,0.046613436192274094,-1.609689474105835,1007.4883,
2021.02.06 17:38:03,19.0,24.0,30.66,-4.2,-31.56,-0.49800915,0.845179,9.984126,-0.016972281,-0.023861619,0.0030720413,-0.08434657752513885,0.04983878880739212,-1.618982195854187,1007.48926,
2021.02.06 17:38:03,19.0,24.0,31.679998,-4.62,-32.1,-0.30646718,0.70870537,9.941029,-0.06400891,-0.060513534,0.0030720413,-0.07113686203956604,0.03081875666975975,-1.6442867517471313,1007.4944,
2021.02.06 17:38:03,19.0,24.0,32.219997,-5.1,-32.82,-0.21548474,0.6296943,9.80695,-0.06645236,-0.100830644,0.029339246,-0.06410553306341171,0.02196912094950676,-1.6639546155929565,1007.4944,
2021.02.06 17:38:03,19.0,24.0,32.399998,-5.04,-33.42,-0.45012367,0.71828246,10.0439825,-0.10004995,-0.073341705,-0.018919107,-0.07132082432508469,0.04478529095649719,-1.6530393362045288,1007.5005,
2021.02.06 17:38:03,19.0,24.0,32.579998,-5.46,-33.36,-0.24900457,0.7901107,10.202005,-0.073171884,-0.08311555,0.053162992,-0.07726939767599106,0.024402568116784096,-1.6589893102645874,1007.5005,
2021.02.06 17:38:03,19.0,24.0,32.28,-4.92,-33.899998,-0.2681588,0.6392714,9.957788,0.041670784,-0.052572284,0.061715104,-0.06408698111772537,0.02692304737865925,-1.6561857461929321,1007.50684,
2021.02.06 17:38:03,19.0,24.0,32.46,-4.7999997,-34.559998,-0.15562786,0.8332076,9.452597,0.107033364,0.060437787,-0.058625348,-0.08790681511163712,0.016462545841932297,-1.6240851879119873,1007.50586,
2021.02.06 17:38:03,19.0,24.0,32.16,-5.16,-34.62,-0.21787901,0.70631105,10.446221,-0.039574295,0.096478835,-0.08855775,-0.06749662756919861,0.02085418440401554,-1.6586533784866333,1007.50586,
2021.02.06 17:38:03,19.0,24.0,32.34,-4.3199997,-34.739998,-0.090982445,0.6751855,10.427067,-0.1116564,-0.0037030652,-0.099553324,-0.06466042995452881,0.008725381456315517,-1.6346409320831299,1007.5022,
2021.02.06 17:38:03,19.0,24.0,32.76,-4.7999997,-34.68,-0.2657645,0.7398309,9.608225,0.07465751,-0.061735265,-0.054960154,-0.07681885361671448,0.027653053402900696,-1.6353801488876343,1007.5022,
2021.02.06 17:38:03,19.0,24.0,32.28,-4.62,-34.32,-0.17238778,0.70870537,9.945818,0.034951266,-0.073341705,-0.040299393,-0.07112573832273483,0.0173309538513422,-1.637927770614624,1007.5066,
2021.02.06 17:38:03,19.0,24.0,32.52,-4.3199997,-34.26,-0.2777359,0.85236186,9.96976,-0.024913529,-0.038522385,-0.07145352,-0.08525441586971283,0.027850627899169922,-1.6123226881027222,1007.5039,
2021.02.06 17:38:03,19.0,24.0,32.04,-4.38,-34.5,-0.2681588,0.7398309,9.888355,-0.018804876,-0.0146986395,-0.06045794,-0.07465191930532455,0.027111999690532684,-1.6264064311981201,1007.5039,
2021.02.06 17:38:03,19.0,24.0,31.199999,-4.08,-34.8,-0.12210801,0.818842,9.945818,-0.031633046,-0.0043139304,-0.06045794,-0.08213884383440018,0.012276706285774708,-1.6091200113296509,1007.5054,
2021.02.06 17:38:03,19.0,24.0,31.38,-3.84,-34.92,-0.2083019,0.7901107,9.993703,-0.03835256,-0.0043139304,-0.030525547,-0.07887967675924301,0.020840298384428024,-1.6042473316192627,1007.5054,
2021.02.06 17:38:03,19.0,24.0,31.439999,-3.6599998,-34.92,-0.18675344,0.76616794,10.089474,-0.034076508,-0.008589987,-0.037245065,-0.07577896863222122,0.018507616594433784,-1.6020392179489136,1007.50415,
2021.02.06 17:38:03,19.0,24.0,31.74,-3.9599998,-34.739998,-0.23224466,0.7637737,9.912297,-0.016361414,0.013401162,-0.037245065,-0.07688017189502716,0.023425666615366936,-1.6103566884994507,1007.5044,
2021.02.06 17:38:04,19.0,24.0,32.219997,-4.14,-34.44,-0.23942748,0.77574503,10.077502,-0.0035332446,0.013401162,-0.031747278,-0.07680480927228928,0.023754144087433815,-1.61622953414917,1007.5044,
2021.02.06 17:38:04,19.0,24.0,32.82,-4.14,-34.62,-0.20351335,0.75659084,9.967366,-0.011474493,-0.007979122,1.7715092E-5,-0.07574579119682312,0.020415131002664566,-1.61618173122406,1007.5117,
2021.02.06 17:38:04,19.0,24.0,32.46,-4.2599998,-34.559998,-0.23224466,0.6488485,10.101445,0.009905791,0.004238183,-0.003036611,-0.06412820518016815,0.022987181320786476,-1.6335517168045044,1007.5117,
2021.02.06 17:38:04,19.0,24.0,32.04,-3.72,-34.079998,-0.2083019,0.69194543,9.881172,0.020901365,-0.0030921998,0.020176267,-0.06989704072475433,0.021077565848827362,-1.6117807626724243,1007.5193,
2021.02.06 17:38:04,19.0,24.0,31.859999,-3.3,-33.66,-0.22745611,0.723071,9.974549,0.002575408,0.0024055874,0.015900211,-0.0723462700843811,0.022799694910645485,-1.5967342853546143,1007.51465,
2021.02.06 17:38:04,19.0,24.0,31.199999,-3.3,-33.12,-0.26097596,0.7110996,9.974549,-0.012085358,0.007903375,0.009180694,-0.07114672660827637,0.026158219203352928,-1.5998108386993408,1007.51465,
2021.02.06 17:38:04,19.0,24.0,31.32,-3.0,-32.94,-0.2777359,0.76616794,9.976943,0.0037971383,0.008514239,0.017121943,-0.07661386579275131,0.027830585837364197,-1.584097981452942,1007.50977,
2021.02.06 17:38:04,19.0,24.0,31.32,-3.24,-33.239998,-0.22745611,0.67757976,9.972155,0.0013536774,0.004238183,0.012235019,-0.0678253099322319,0.022805169224739075,-1.6012886762619019,1007.50977,
2021.02.06 17:38:04,19.0,24.0,30.96,-3.1799998,-32.94,-0.2849187,0.75659084,9.96976,-0.0059767053,0.0060707787,0.007348098,-0.07571259886026382,0.02857051230967045,-1.5912363529205322,1007.5022,
2021.02.06 17:38:04,19.0,24.0,30.96,-3.54,-33.3,-0.23942748,0.67279124,10.012857,-0.014528819,0.004238183,6.2858034E-4,-0.06707276403903961,0.02390744723379612,-1.6122654676437378,1007.50415,
2021.02.06 17:38:04,19.0,24.0,30.9,-3.6599998,-33.12,-0.24421602,0.74701375,9.955395,-0.01575055,0.003627318,-0.0042583416,-0.07487328350543976,0.02452610433101654,-1.6078928709030151,1007.50415,
2021.02.06 17:38:04,19.0,24.0,30.9,-3.48,-33.12,-0.25139886,0.71588814,9.98652,0.0037971383,-0.010422583,-0.004869207,-0.07154044508934021,0.025168506428599358,-1.6056783199310303,1007.50903,
2021.02.06 17:38:04,19.0,24.0,31.439999,-3.54,-33.239998,-0.29928434,0.66321415,10.039194,-0.0029223792,0.0024055874,-0.020140838,-0.06593743711709976,0.02980276383459568,-1.612872838973999,1007.50903,
2021.02.06 17:38:04,19.0,24.0,32.04,-3.3,-33.3,-0.22745611,0.7446195,9.845258,0.008684061,-0.0030921998,-0.016475648,-0.0754685178399086,0.023099005222320557,-1.5939754247665405,1007.5044,
2021.02.06 17:38:04,19.0,24.0,31.859999,-3.24,-33.059998,-0.21548474,0.68236834,10.046377,-0.008420167,0.0060707787,-0.008534398,-0.06780212372541428,0.021445710211992264,-1.6011931896209717,1007.51,
2021.02.06 17:38:04,19.0,24.0,31.859999,-3.48,-32.94,-0.3232271,0.7110996,9.926663,-0.009641897,-0.0024813346,-0.010366994,-0.07147540152072906,0.03255000710487366,-1.6047735214233398,1007.51,
2021.02.06 17:38:05,19.0,24.0,31.74,-3.3,-33.12,-0.20351335,0.7039168,9.974549,-0.0035332446,-0.009200852,-0.01342132,-0.07043986767530441,0.020400432869791985,-1.6002713441848755,1007.5137,
2021.02.06 17:38:05,19.0,24.0,31.26,-2.9399998,-32.76,-0.21069619,0.65842557,9.955395,0.022123097,-0.011644313,6.2858034E-4,-0.06602664291858673,0.02116086333990097,-1.5946458578109741,1007.51514,
2021.02.06 17:38:05,19.0,24.0,31.439999,-2.9399998,-33.059998,-0.24421602,0.6703969,9.8787775,0.013570982,-0.009200852,1.7715092E-5,-0.06773781031370163,0.024716245010495186,-1.5918183326721191,1007.51514,
2021.02.06 17:38:05,19.0,24.0,31.199999,-2.6399999,-33.239998,-0.28013015,0.68715686,9.98652,-0.023080932,-0.0043139304,0.0012394455,-0.06867323070764542,0.02804347313940525,-1.5805045366287231,1007.5095,
2021.02.06 17:38:05,19.0,24.0,31.199999,-2.58,-32.82,-0.21787901,0.67757976,10.032011,-0.022470068,-0.007979122,-0.007923533,-0.0674235001206398,0.021714964881539345,-1.5812242031097412,1007.5095,
2021.02.06 17:38:05,19.0,24.0,30.96,-2.6399999,-33.0,-0.23463893,0.6344828,9.914692,-0.009641897,-0.0073682563,0.0012394455,-0.06388921290636063,0.023661363869905472,-1.5867551565170288,1007.50854,
2021.02.06 17:38:05,19.0,24.0,31.199999,-2.7,-33.12,-0.13168511,0.6296943,9.964972,-0.0053658406,-0.011644313,1.7715092E-5,-0.06310136616230011,0.013214031234383583,-1.5896590948104858,1007.5051,
2021.02.06 17:38:05,19.0,24.0,31.08,-2.7,-33.18,-0.21309046,0.6488485,10.113417,-0.05545679,-0.006146526,-0.02624949,-0.06405520439147949,0.02106695994734764,-1.5882148742675781,1007.5051,
2021.02.06 17:38:05,19.0,24.0,31.08,-2.8799999,-33.719997,-0.2657645,0.54350036,9.943423,-0.021248337,0.001794722,-0.019529972,-0.05458549037575722,0.026721304282546043,-1.6036456823349,1007.5022,
2021.02.06 17:38:05,19.0,24.0,31.38,-3.3,-34.02,-0.1340794,0.6464542,9.979338,0.006851465,-0.013476909,0.0030720413,-0.06468306481838226,0.01343489158898592,-1.6052929162979126,1007.5022,
2021.02.06 17:38:05,19.0,24.0,31.08,-3.24,-34.32,-0.18196489,0.62251145,10.048771,0.006851465,-0.0024813346,0.0018503108,-0.06185983121395111,0.01810619607567787,-1.6061694622039795,1007.5032,
2021.02.06 17:38:05,19.0,24.0,31.08,-3.4199998,-34.44,-0.24421602,0.6201172,9.979338,0.017847039,0.0054599135,-0.011588724,-0.06204179301857948,0.024467283859848976,-1.6115162372589111,1007.5005,
2021.02.06 17:38:05,19.0,24.0,30.84,-3.12,-34.079998,-0.14605077,0.6344828,9.931452,0.028842613,5.729916E-4,0.0036829067,-0.0637926235795021,0.01470482349395752,-1.6008641719818115,1007.5005,
2021.02.06 17:38:05,19.0,24.0,30.359999,-2.46,-33.18,-0.28013015,0.6656084,9.996098,-0.0029223792,0.007292509,-0.009756129,-0.06646265834569931,0.02801661752164364,-1.5774363279342651,1007.4983,
2021.02.06 17:38:05,19.0,24.0,30.0,-2.1599998,-32.399998,-0.22745611,0.67279124,9.907509,0.014181848,0.011568567,-0.006701803,-0.06778530776500702,0.02295392006635666,-1.5678702592849731,1007.4983,
2021.02.06 17:38:05,19.0,24.0,29.58,-1.9799999,-31.56,-0.21548474,0.6201172,10.077502,-0.012696223,-6.487389E-4,0.010402424,-0.06144331023097038,0.021379493176937103,-1.5707944631576538,1007.4983,
2021.02.06 17:38:05,19.0,24.0,28.8,-1.92,-31.019999,-0.25858167,0.6392714,9.847652,-0.0023115142,-0.005535661,0.018343672,-0.06480288505554199,0.026252172887325287,-1.565753698348999,1007.4983,
2021.02.06 17:38:06,19.0,24.0,28.68,-1.86,-30.96,-0.20111908,0.6488485,10.051166,-0.0023115142,-0.007979122,0.029339246,-0.06445223838090897,0.020006857812404633,-1.5645772218704224,1007.5095,
2021.02.06 17:38:06,19.0,24.0,28.5,-1.92,-30.539999,-0.20111908,0.6344828,10.027223,-0.040796023,0.0103468355,0.013456751,-0.06317910552024841,0.020054617896676064,-1.5690842866897583,1007.49976,
2021.02.06 17:38:06,19.0,24.0,28.619999,-1.74,-30.599998,-0.17957062,0.6105401,9.926663,0.017847039,0.013401162,0.018343672,-0.06141766533255577,0.018087752163410187,-1.5646333694458008,1007.49976,
2021.02.06 17:38:06,19.0,24.0,29.099998,-1.8,-31.14,-0.19154198,0.67279124,10.101445,-0.010252762,0.015844623,0.0018503108,-0.06649332493543625,0.018959566950798035,-1.5599443912506104,1007.4951,
2021.02.06 17:38:06,19.0,24.0,29.099998,-2.28,-31.14,-0.22506183,0.63208854,9.972155,7.428122E-4,0.019509813,-0.006701803,-0.06328459084033966,0.022565199062228203,-1.580132007598877,1007.4951,
2021.02.06 17:38:06,19.0,24.0,28.68,-2.22,-31.439999,-0.29210153,0.6273,10.0200405,0.008073196,0.02928366,-0.020140838,-0.06249645724892616,0.029143478721380234,-1.5780279636383057,1007.4922,
2021.02.06 17:38:06,19.0,24.0,28.8,-2.46,-31.679998,-0.339987,0.67757976,9.866806,0.009294925,0.003627318,-0.0036474764,-0.06852446496486664,0.03444402664899826,-1.578684687614441,1007.49316,
2021.02.06 17:38:06,19.0,24.0,28.26,-2.58,-31.5,-0.24900457,0.6105401,9.996098,0.009905791,-0.0043139304,-0.007312668,-0.06098319590091705,0.024905025959014893,-1.593115210533142,1007.49316,
2021.02.06 17:38:06,19.0,24.0,28.619999,-2.04,-31.859999,-0.19154198,0.6105401,9.979338,-0.021248337,-0.01836383,0.011624155,-0.0610930360853672,0.019191499799489975,-1.572860598564148,1007.4934,
2021.02.06 17:38:06,19.0,24.0,29.099998,-2.22,-31.74,-0.30886146,0.5961744,9.979338,-0.0065875705,0.0011838569,-0.009145264,-0.05964147299528122,0.0309402197599411,-1.5804530382156372,1007.49536,
2021.02.06 17:38:06,19.0,24.0,29.099998,-2.1,-31.92,-0.20111908,0.6105401,10.0368,-0.026135258,-0.007979122,-0.014643051,-0.060743119567632675,0.020035486668348312,-1.5751328468322754,1007.49536,
2021.02.06 17:38:06,19.0,24.0,29.64,-1.86,-31.92,-0.2681588,0.6081458,9.955395,0.0062405993,-0.0043139304,-0.015253915,-0.06098917871713638,0.026929518207907677,-1.5660356283187866,1007.4983,
2021.02.06 17:38:06,19.0,24.0,29.34,-2.52,-31.679998,-0.25858167,0.5818088,10.075109,-0.009641897,-0.0067573916,-0.018308243,-0.057664141058921814,0.02565976418554783,-1.5934886932373047,1007.4983,
2021.02.06 17:38:06,19.0,24.0,29.34,-2.46,-31.56,-0.23224466,0.6296943,9.950606,0.008684061,-0.008589987,-0.0012040153,-0.06318057328462601,0.023335512727499008,-1.5854743719100952,1007.5066,
2021.02.06 17:38:06,19.0,24.0,29.4,-2.3999999,-31.08,-0.26097596,0.5506832,10.079897,0.02823175,-0.0067573916,0.0055155023,-0.05455932766199112,0.025884954258799553,-1.5939029455184937,1007.5066,
2021.02.06 17:38:06,19.0,24.0,29.16,-2.58,-30.779999,-0.14844504,0.61293435,9.962578,0.0019645425,-0.0073682563,-0.002425746,-0.06143941357731819,0.014899161644279957,-1.5937467813491821,1007.5049,
2021.02.06 17:38:06,19.0,24.0,29.279999,-2.22,-30.84,-0.17957062,0.57223165,10.029617,0.020901365,-0.006146526,0.0018503108,-0.05698328837752342,0.01790212094783783,-1.5857800245285034,1007.5061,
2021.02.06 17:38:07,19.0,24.0,29.039999,-1.86,-30.96,-0.23942748,0.61293435,9.91948,0.015403578,-0.0018704693,-0.014643051,-0.061694592237472534,0.024132413789629936,-1.5674362182617188,1007.5061,
2021.02.06 17:38:07,19.0,24.0,29.039999,-1.74,-31.26,-0.27055305,0.60335726,9.897932,0.04594684,0.008514239,-0.007923533,-0.06085990369319916,0.02732749469578266,-1.5632692575454712,1007.5093,
2021.02.06 17:38:07,19.0,24.0,29.099998,-1.4399999,-31.32,-0.1987248,0.6344828,10.039194,-0.018804876,0.009125105,-0.015864782,-0.0631042942404747,0.019792310893535614,-1.5506436824798584,1007.5093,
2021.02.06 17:38:07,19.0,24.0,29.22,-1.62,-31.439999,-0.18675344,0.6392714,9.974549,0.011738386,0.007903375,-0.007312668,-0.06399153172969818,0.018720807507634163,-1.5558300018310547,1007.5078,
2021.02.06 17:38:07,19.0,24.0,29.64,-1.8,-31.32,-0.31365,0.6608198,10.00328,0.006851465,0.017066352,-0.037245065,-0.06593216955661774,0.0313444510102272,-1.5593599081039429,1007.5105,
2021.02.06 17:38:07,19.0,24.0,29.82,-1.86,-30.84,-0.22745611,0.65363705,9.924269,0.0074623297,0.014012027,-0.02380603,-0.06575028598308563,0.022915169596672058,-1.5634212493896484,1007.5105,
2021.02.06 17:38:07,19.0,24.0,29.519999,-2.3999999,-31.32,-0.22985038,0.6488485,10.034406,0.008684061,-0.0012596041,0.0018503108,-0.0645555853843689,0.022902224212884903,-1.5823062658309937,1007.5071,
2021.02.06 17:38:07,19.0,24.0,29.34,-2.3999999,-31.619999,-0.19154198,0.6751855,9.850046,0.005629734,-0.005535661,1.7715092E-5,-0.06842648237943649,0.019443346187472343,-1.577545404434204,1007.5071,
2021.02.06 17:38:07,19.0,24.0,28.859999,-2.6399999,-31.8,-0.31604427,0.6488485,10.134965,-0.0218592,0.009125105,-0.009145264,-0.06390255689620972,0.031173454597592354,-1.5904470682144165,1007.5049,
2021.02.06 17:38:07,19.0,24.0,28.74,-2.6399999,-32.1,-0.32083282,0.69673395,9.797373,-0.0218592,0.007903375,-0.009756129,-0.07095693796873093,0.03273512423038483,-1.5813502073287964,1007.5039,
2021.02.06 17:38:07,19.0,24.0,28.98,-2.7,-31.5,-0.17478207,0.6177229,10.0368,0.010516656,0.009735971,0.0030720413,-0.06145897135138512,0.01741236448287964,-1.5964515209197998,1007.5039,
2021.02.06 17:38:07,19.0,24.0,28.859999,-2.6399999,-31.199999,-0.2466103,0.70631105,9.890749,-0.0065875705,-0.0018704693,0.017121943,-0.07126817852258682,0.024928266182541847,-1.5836576223373413,1007.5027,
2021.02.06 17:38:07,19.0,24.0,29.279999,-2.28,-31.14,-0.24182175,0.62251145,10.041589,-0.00414411,0.008514239,0.01101329,-0.0618961863219738,0.024077367037534714,-1.5815376043319702,1007.5027,
2021.02.06 17:38:07,19.0,24.0,29.22,-2.28,-31.38,-0.29689008,0.67757976,9.964972,-0.0029223792,0.009125105,0.0024611761,-0.0678616315126419,0.029784560203552246,-1.5739381313323975,1007.4971,
2021.02.06 17:38:07,19.0,24.0,29.099998,-2.1599998,-31.439999,-0.23942748,0.6847626,9.98652,-0.012696223,0.0048490483,0.0079589635,-0.06844192743301392,0.023970473557710648,-1.5693045854568481,1007.49927,
2021.02.06 17:38:07,19.0,24.0,29.4,-2.04,-31.32,-0.17478207,0.6440599,9.996098,-0.007198436,0.003627318,0.007348098,-0.06433238834142685,0.017483249306678772,-1.5704338550567627,1007.49927,
2021.02.06 17:38:08,19.0,24.0,28.98,-2.22,-31.5,-0.28252444,0.6201172,10.005674,-0.0010897835,0.006681644,0.0030720413,-0.06187278404831886,0.028228921815752983,-1.5785670280456543,1007.4949,
2021.02.06 17:38:08,19.0,24.0,28.92,-2.1599998,-31.08,-0.2657645,0.66800267,9.957788,-0.0017006488,0.004238183,1.7715092E-5,-0.06695929914712906,0.0266827754676342,-1.5716770887374878,1007.4949,
2021.02.06 17:38:08,19.0,24.0,29.279999,-1.92,-31.32,-0.22506183,0.66800267,10.008069,-0.011474493,0.013401162,-0.011588724,-0.0666307583451271,0.022484248504042625,-1.5633443593978882,1007.4988,
2021.02.06 17:38:08,19.0,24.0,29.279999,-1.74,-31.439999,-0.21309046,0.6201172,10.022434,0.009294925,0.0030164525,-0.014032186,-0.061780206859111786,0.021258145570755005,-1.5623210668563843,1007.4951,
2021.02.06 17:38:08,19.0,24.0,29.16,-1.74,-31.14,-0.29689008,0.6368771,9.912297,0.011738386,-3.7873644E-5,-0.01342132,-0.06413432955741882,0.029942739754915237,-1.559653401374817,1007.4951,
2021.02.06 17:38:08,19.0,24.0,29.4,-1.5,-31.019999,-0.30886146,0.65363705,10.091868,-0.0035332446,0.001794722,-0.021973435,-0.06464815884828568,0.030595432966947556,-1.5509557723999023,1007.50366,
2021.02.06 17:38:08,19.0,24.0,29.22,-1.26,-31.199999,-0.31365,0.6895511,9.8787775,0.0019645425,0.004238183,-0.02380603,-0.0696532353758812,0.03173922002315521,-1.5361508131027222,1007.50684,
2021.02.06 17:38:08,19.0,24.0,28.92,-1.38,-31.019999,-0.31843856,0.6368771,10.017646,0.014181848,0.008514239,-0.01219959,-0.06345811486244202,0.03177706152200699,-1.5476197004318237,1007.50684,
2021.02.06 17:38:08,19.0,24.0,29.279999,-1.62,-30.96,-0.31365,0.6464542,9.98652,-0.012085358,-6.487389E-4,-0.011588724,-0.06461072713136673,0.0313970185816288,-1.5552217960357666,1007.5012,
2021.02.06 17:38:08,19.0,24.0,29.16,-2.1,-31.32,-0.29689008,0.6440599,9.857229,0.021512229,0.0048490483,-0.006090937,-0.06521660834550858,0.030109917744994164,-1.570729374885559,1007.5012,
2021.02.06 17:38:08,19.0,24.0,28.92,-2.1599998,-31.38,-0.3232271,0.6895511,10.113417,0.0074623297,0.001794722,0.004293772,-0.06804181635379791,0.031949352473020554,-1.569354772567749,1007.4988,
2021.02.06 17:38:08,19.0,24.0,28.98,-2.1599998,-31.5,-0.29210153,0.6177229,9.974549,-0.0029223792,0.007292509,-5.9315015E-4,-0.06182447820901871,0.029276318848133087,-1.576432228088379,1007.4988,
2021.02.06 17:38:08,19.0,24.0,29.22,-1.56,-31.92,-0.23224466,0.65363705,9.993703,0.01662531,-0.0024813346,0.013456751,-0.0652942880988121,0.02323491871356964,-1.5507863759994507,1007.49756,
2021.02.06 17:38:08,19.0,24.0,28.92,-1.38,-32.04,-0.2944958,0.6273,10.022434,-0.021248337,-0.0030921998,0.007348098,-0.06248115375638008,0.02937520667910576,-1.5466485023498535,1007.4968,
2021.02.06 17:38:08,19.0,24.0,29.099998,-1.4399999,-31.619999,-0.22027329,0.6440599,9.907509,0.002575408,-6.487389E-4,0.0061263675,-0.06489991396665573,0.022229302674531937,-1.5477229356765747,1007.4968,
2021.02.06 17:38:08,19.0,24.0,29.039999,-1.4399999,-31.74,-0.31125572,0.63208854,10.111023,-0.009641897,0.001794722,0.004293772,-0.06240405887365341,0.030774082988500595,-1.5495154857635498,1007.4922,
2021.02.06 17:38:08,19.0,24.0,28.619999,-1.4399999,-31.08,-0.22506183,0.65124273,9.981731,0.012960117,-0.009811718,0.0012394455,-0.06513461470603943,0.02254355326294899,-1.5483194589614868,1007.4922,
2021.02.06 17:38:09,19.0,24.0,29.099998,-1.4399999,-30.96,-0.27294734,0.6608198,10.039194,-0.0059767053,-0.014087774,-0.0018148806,-0.06570496410131454,0.027181476354599,-1.5478942394256592,1007.4946,
2021.02.06 17:38:09,19.0,24.0,28.98,-1.74,-31.019999,-0.29210153,0.6368771,9.98652,1.3194689E-4,-0.005535661,-0.01097786,-0.06366027891635895,0.029241245239973068,-1.560462236404419,1007.4949,
2021.02.06 17:38:09,19.0,24.0,29.22,-1.74,-30.779999,-0.25858167,0.6488485,9.976943,-0.0023115142,-0.0067573916,-0.003036611,-0.06492160260677338,0.025912124663591385,-1.5599215030670166,1007.4949,
2021.02.06 17:38:09,19.0,24.0,29.16,-1.86,-31.14,-0.23463893,0.64166564,10.041589,0.008684061,0.0011838569,0.0055155023,-0.06379667669534683,0.02336246334016323,-1.5647469758987427,1007.49365,
2021.02.06 17:38:09,19.0,24.0,28.859999,-1.9799999,-31.5,-0.2561874,0.6656084,9.976943,-0.0023115142,-0.009200852,0.007348098,-0.06659406423568726,0.0256723053753376,-1.5647640228271484,1007.4956,
2021.02.06 17:38:09,19.0,24.0,29.039999,-1.8,-31.32,-0.29210153,0.6057515,9.924269,0.03189694,-0.0049247956,-0.002425746,-0.06093544140458107,0.029424557462334633,-1.5650373697280884,1007.4956,
2021.02.06 17:38:09,19.0,24.0,28.92,-1.86,-31.38,-0.23224466,0.6751855,9.957788,0.018457904,-0.006146526,0.0036829067,-0.06768278777599335,0.023318689316511154,-1.5597412586212158,1007.49536,
2021.02.06 17:38:09,19.0,24.0,29.099998,-1.9799999,-31.199999,-0.26097596,0.6488485,9.996098,-0.004754975,-0.005535661,0.0018503108,-0.06479723006486893,0.0261018555611372,-1.567510724067688,1007.49536,
2021.02.06 17:38:09,19.0,24.0,28.98,-1.8,-30.779999,-0.2466103,0.6895511,9.912297,0.010516656,-0.0037030652,0.0012394455,-0.06943190842866898,0.024874096736311913,-1.5570027828216553,1007.4983,
2021.02.06 17:38:09,19.0,24.0,29.34,-1.74,-30.599998,-0.22266756,0.6751855,10.005674,-0.013917954,-0.0024813346,-0.0012040153,-0.0673614889383316,0.022250454872846603,-1.5579854249954224,1007.4983,
2021.02.06 17:38:09,19.0,24.0,29.22,-1.92,-30.72,-0.28731298,0.66800267,9.950606,-0.0017006488,-6.487389E-4,0.0030720413,-0.06700342893600464,0.02886589802801609,-1.5638502836227417,1007.5027,
2021.02.06 17:38:09,19.0,24.0,29.46,-2.1,-30.779999,-0.23463893,0.6608198,9.976943,0.008684061,-0.0049247956,0.004293772,-0.06611986458301544,0.023513782769441605,-1.5713714361190796,1007.50586,
2021.02.06 17:38:09,19.0,24.0,29.58,-2.3999999,-30.84,-0.21548474,0.7206767,9.998491,-0.017583145,-0.0030921998,-0.0012040153,-0.07193747162818909,0.02154839038848877,-1.5753575563430786,1007.50586,
2021.02.06 17:38:09,19.0,24.0,28.98,-2.58,-31.019999,-0.15802214,0.6703969,9.883567,0.005018869,-0.008589987,-0.004869207,-0.06771709024906158,0.015987008810043335,-1.586385726928711,1007.5029,
2021.02.06 17:38:09,19.0,24.0,28.68,-2.58,-30.9,-0.22266756,0.67757976,9.917087,0.031286072,-0.014087774,6.2858034E-4,-0.06820131838321686,0.022449148818850517,-1.5859804153442383,1007.5029,
2021.02.06 17:38:09,19.0,24.0,28.08,-2.52,-30.9,-0.28252444,0.723071,10.05356,-0.030411316,0.0011838569,-0.009756129,-0.07177002727985382,0.02809453383088112,-1.579694151878357,1007.50195,
2021.02.06 17:38:09,19.0,24.0,28.14,-2.28,-31.08,-0.23463893,0.66321415,9.98652,-0.004754975,0.0060707787,-0.014032186,-0.0662953183054924,0.02349124290049076,-1.5771031379699707,1007.50366,
2021.02.06 17:38:10,19.0,24.0,28.56,-2.46,-31.14,-0.25379312,0.7589851,9.869201,-0.004754975,-3.7873644E-5,-0.022584299,-0.07672806829214096,0.025710003450512886,-1.5711677074432373,1007.50366,
2021.02.06 17:38:10,19.0,24.0,28.68,-2.04,-30.84,-0.21548474,0.67279124,9.991309,0.020901365,0.0054599135,-0.014643051,-0.06722056120634079,0.021563874557614326,-1.5680404901504517,1007.5005,
2021.02.06 17:38:10,19.0,24.0,28.8,-1.92,-30.9,-0.2944958,0.68715686,9.979338,0.005018869,0.007903375,-0.015864782,-0.06871961802244186,0.02950199320912361,-1.561336636543274,1007.5066,
2021.02.06 17:38:10,19.0,24.0,28.5,-2.22,-30.66,-0.19154198,0.6751855,9.950606,0.0019645425,0.0048490483,-0.007923533,-0.06773734837770462,0.01924690045416355,-1.574484944343567,1007.5066,
2021.02.06 17:38:10,19.0,24.0,28.56,-1.68,-31.019999,-0.23463893,0.70870537,9.948212,0.006851465,0.006681644,-0.007923533,-0.07109961658716202,0.023581668734550476,-1.5501266717910767,1007.5027,
2021.02.06 17:38:10,19.0,24.0,28.74,-1.62,-31.199999,-0.2681588,0.69194543,10.010463,-0.01819401,0.006681644,-0.007923533,-0.06898777931928635,0.026781447231769562,-1.549761176109314,1007.5027,
2021.02.06 17:38:10,19.0,24.0,28.859999,-1.56,-31.14,-0.30886146,0.723071,9.967366,7.428122E-4,0.011568567,1.7715092E-5,-0.0723823606967926,0.03097735531628132,-1.5435569286346436,1007.5061,
2021.02.06 17:38:10,19.0,24.0,29.16,-1.5,-30.96,-0.29689008,0.66800267,9.974549,-0.012696223,0.011568567,0.0018503108,-0.06684134155511856,0.029755977913737297,-1.5485422611236572,1007.5149,
2021.02.06 17:38:10,19.0,24.0,28.92,-1.74,-30.599998,-0.31365,0.69673395,10.000886,0.0013536774,0.012790296,1.7715092E-5,-0.06952076405286789,0.03135194629430771,-1.5546327829360962,1007.5149,
2021.02.06 17:38:10,19.0,24.0,28.8,-1.92,-30.9,-0.17957062,0.6895511,9.957788,-0.0053658406,0.007292509,0.0030720413,-0.06912584602832794,0.018031228333711624,-1.561787724494934,1007.5205,
2021.02.06 17:38:10,19.0,24.0,28.98,-2.22,-31.08,-0.32801566,0.6464542,9.957788,0.01906877,0.001794722,0.016511075,-0.06479343771934509,0.0329287052154541,-1.5758886337280273,1007.5205,
2021.02.06 17:38:10,19.0,24.0,28.98,-2.1,-30.779999,-0.2777359,0.66321415,10.032011,-0.011474493,0.014012027,-0.0018148806,-0.06598851829767227,0.02767789550125599,-1.5712825059890747,1007.5183,
2021.02.06 17:38:10,19.0,24.0,28.619999,-2.3999999,-30.179998,-0.33759275,0.75180227,9.905115,-0.004754975,-6.487389E-4,0.017732807,-0.07571136206388474,0.0340694822371006,-1.5721715688705444,1007.5183,
2021.02.06 17:38:10,19.0,24.0,28.92,-2.46,-29.76,-0.39505535,0.6296943,9.9889145,-0.009031031,0.015233757,-0.006090937,-0.06290696561336517,0.039528775960206985,-1.5893312692642212,1007.5156,
2021.02.06 17:38:10,19.0,24.0,28.68,-2.46,-29.58,-0.15083931,0.6943397,10.022434,-0.010863627,0.0030164525,0.010402424,-0.06916022300720215,0.015049031004309654,-1.584269642829895,1007.5188,
2021.02.06 17:38:10,19.0,24.0,28.439999,-2.52,-29.76,-0.28970724,0.6751855,9.804555,0.008073196,0.021953275,-0.010366994,-0.06872602552175522,0.02953963354229927,-1.5858080387115479,1007.5188,
2021.02.06 17:38:10,19.0,24.0,29.039999,-2.52,-30.539999,-0.29928434,0.6296943,10.10384,0.009294925,0.007292509,0.0055155023,-0.06221456080675125,0.029612194746732712,-1.5908373594284058,1007.5078,
2021.02.06 17:38:11,19.0,24.0,29.099998,-2.34,-30.42,-0.30646718,0.6608198,9.871595,-0.056067657,0.015233757,0.015900211,-0.06680972874164581,0.03103538602590561,-1.57948899269104,1007.5078,
2021.02.06 17:38:11,19.0,24.0,29.46,-2.22,-30.119999,-0.37590113,0.61293435,9.943423,-0.018804876,0.019509813,0.009180694,-0.06152045354247093,0.037786003202199936,-1.5812857151031494,1007.5066,
2021.02.06 17:38:11,19.0,24.0,29.58,-2.1599998,-30.359999,0.117319465,0.43096948,10.755082,-0.04629381,0.014012027,0.0055155023,-0.040047433227300644,-0.010907849296927452,-1.6027400493621826,1007.5051,
2021.02.06 17:38:11,19.0,24.0,28.98,-1.92,-30.24,-0.3902668,0.6560313,10.439038,-0.18496022,-0.084948145,0.041556552,-0.06271780282258987,0.037367917597293854,-1.5691559314727783,1007.5051,
