Time,X-cord,Y-cord,Mag_x,Mag_y,Mag_z,Acc_x,Acc_y,Acc_z,Gyro_x,Gyro_y,Gyro_z,Orn_x,Orn_y,Orn_z,Pressure,
2021.02.06 17:55:57,77.0,21.0,12.42,-41.579998,-29.22,-0.68715686,0.46209505,9.342461,0.17178509,0.08853759,-0.15941812,-0.04928860813379288,0.07341980934143066,-2.8911945819854736,1007.47217,
2021.02.06 17:55:57,77.0,21.0,12.179999,-41.7,-29.34,-0.29928434,0.3519584,10.28341,-0.048126407,-0.09899805,-0.06045794,-0.03419801965355873,0.029095394536852837,-2.870037317276001,1007.47144,
2021.02.06 17:55:57,77.0,21.0,12.78,-41.7,-30.359999,-0.20351335,0.3328042,10.144543,-0.1342584,-0.07150911,-0.058625348,-0.032787878066301346,0.02005867101252079,-2.8508973121643066,1007.4707,
2021.02.06 17:55:57,77.0,21.0,13.74,-42.059998,-30.96,-0.2657645,0.7972935,9.498088,0.20782612,-0.14053687,-0.042742852,-0.0837135836482048,0.027973545715212822,-2.8250949382781982,1007.4707,
2021.02.06 17:55:57,77.0,21.0,14.88,-42.66,-31.679998,-0.2944958,0.6368771,9.929058,0.119861536,-0.11610227,-0.049462367,-0.06402692198753357,0.029651299118995667,-2.8103621006011963,1007.4624,
2021.02.06 17:55:57,77.0,21.0,15.299999,-42.6,-31.98,-0.2466103,0.52913475,10.051166,-0.1079912,-0.0073682563,0.012235019,-0.05257977172732353,0.024530572816729546,-2.800201654434204,1007.4624,
2021.02.06 17:55:58,77.0,21.0,15.78,-43.26,-31.8,0.17238778,0.409421,9.761458,-0.04690468,-0.037300654,0.044610877,-0.04191150516271591,-0.017658207565546036,-2.769789218902588,1007.4617,
2021.02.06 17:55:58,77.0,21.0,15.42,-43.44,-31.92,0.14844504,0.5363176,10.180456,-0.073171884,-0.033024598,-0.0012040153,-0.05262685939669609,-0.01458034012466669,-2.777756690979004,1007.46265,
2021.02.06 17:55:58,77.0,21.0,15.12,-43.44,-32.219997,-0.28970724,0.4860378,10.024829,-0.04690468,0.013401162,-0.055571023,-0.048425279557704926,0.028890928253531456,-2.814542055130005,1007.46265,
2021.02.06 17:55:58,77.0,21.0,15.0,-43.44,-32.28,-0.10774237,0.4956149,9.809344,0.01906877,0.006681644,-0.05618189,-0.05047880485653877,0.01098320446908474,-2.8042163848876953,1007.458,
2021.02.06 17:55:58,77.0,21.0,14.88,-42.66,-32.16,0.12210801,0.51716334,10.015251,0.008073196,0.0060707787,-0.03296901,-0.05158793181180954,-0.01219160296022892,-2.784684181213379,1007.458,
2021.02.06 17:55:58,77.0,21.0,15.36,-42.54,-32.16,-0.20111908,0.5411061,10.309748,-0.040185157,0.046387885,-0.054960154,-0.05242682993412018,0.01950518973171711,-2.794980049133301,1007.45557,
2021.02.06 17:55:58,77.0,21.0,15.54,-42.6,-32.28,-0.36632404,0.46209505,9.881172,-0.026746124,0.027451063,-0.06106881,-0.046699121594429016,0.03705596551299095,-2.8054356575012207,1007.45557,
2021.02.06 17:55:58,77.0,21.0,16.32,-42.36,-32.399998,-0.07422252,0.5147691,9.60583,0.06182934,-0.023250753,-0.026860354,-0.05353642627596855,0.007726666517555714,-2.764371871948242,1007.45557,
2021.02.06 17:55:58,77.0,21.0,16.56,-42.12,-32.76,-0.1340794,0.38308397,10.405519,-0.079891406,0.0030164525,-0.006701803,-0.03679579123854637,0.012884699739515781,-2.7656264305114746,1007.458,
2021.02.06 17:55:58,77.0,21.0,16.44,-42.18,-32.88,-0.05027977,0.54828894,9.833286,-0.039574295,-0.0452419,-0.0018148806,-0.05570005998015404,0.0051131765358150005,-2.75766921043396,1007.458,
2021.02.06 17:55:58,77.0,21.0,16.26,-41.82,-32.88,-0.29689008,0.2944958,10.005674,-0.033465642,0.012790296,-0.014643051,-0.029411444440484047,0.029663465917110443,-2.783473253250122,1007.46094,
2021.02.06 17:55:58,77.0,21.0,15.839999,-42.3,-33.059998,-0.043096945,0.35674694,9.859624,-0.016361414,0.007903375,0.0049046366,-0.036166489124298096,0.00437102559953928,-2.776594877243042,1007.46387,
2021.02.06 17:55:58,77.0,21.0,15.599999,-42.54,-32.64,-0.22266756,0.4166038,9.981731,-0.042017754,-0.0049247956,0.011624155,-0.04170205444097519,0.022303810343146324,-2.79470157623291,1007.46387,
2021.02.06 17:55:58,77.0,21.0,15.48,-42.6,-32.399998,-0.14605077,0.34477556,10.26665,-0.035298236,-0.013476909,0.00979156,-0.033566080033779144,0.01422478724271059,-2.7942399978637695,1007.45776,
2021.02.06 17:55:58,77.0,21.0,15.12,-42.84,-32.34,-0.08858817,0.42618093,9.778218,0.028842613,-0.008589987,0.037280496,-0.0435553714632988,0.009059498086571693,-2.7975850105285645,1007.45776,
2021.02.06 17:55:58,77.0,21.0,15.179999,-42.78,-32.52,-0.08619389,0.4836435,10.33369,-0.0035332446,5.729916E-4,0.01101329,-0.046766843646764755,0.008340863510966301,-2.79445481300354,1007.4602,
2021.02.06 17:55:58,77.0,21.0,15.24,-42.899998,-33.059998,-0.2466103,0.3974496,9.976943,0.008073196,-3.7873644E-5,-0.006090937,-0.03980361297726631,0.02471298910677433,-2.8074753284454346,1007.4641,
2021.02.06 17:55:59,77.0,21.0,15.059999,-42.42,-33.059998,-0.15083931,0.4285752,9.912297,0.06366193,-0.012866044,0.0012394455,-0.043204810470342636,0.015216218307614326,-2.80002498626709,1007.4641,
2021.02.06 17:55:59,77.0,21.0,15.12,-42.6,-33.239998,-0.22506183,0.4668836,10.029617,0.0343404,-0.0024813346,0.016511075,-0.046505220234394073,0.022435957565903664,-2.8044216632843018,1007.4629,
2021.02.06 17:55:59,77.0,21.0,15.24,-42.48,-32.88,-0.071828246,0.4932206,9.945818,0.014792713,0.0048490483,0.023230596,-0.04954886808991432,0.007221829146146774,-2.789189577102661,1007.4617,
2021.02.06 17:55:59,77.0,21.0,14.94,-42.66,-32.52,-0.1987248,0.43336374,10.079897,0.014792713,-0.008589987,0.028728383,-0.04295807331800461,0.019712410867214203,-2.807687520980835,1007.4617,
2021.02.06 17:55:59,77.0,21.0,14.94,-43.14,-32.1,-0.11013664,0.49082634,9.857229,0.0044080038,0.0011838569,0.018954538,-0.04974934831261635,0.011172720231115818,-2.803593635559082,1007.4636,
2021.02.06 17:55:59,77.0,21.0,15.12,-42.899998,-31.74,-0.11013664,0.52913475,10.122993,1.3194689E-4,-0.01592037,0.026895786,-0.052219972014427185,0.01087941974401474,-2.797105550765991,1007.4636,
2021.02.06 17:55:59,77.0,21.0,14.5199995,-42.84,-32.28,-0.10774237,0.45012367,9.809344,-0.004754975,-0.011033448,0.016511075,-0.04585230350494385,0.010983205400407314,-2.8112564086914062,1007.46924,
2021.02.06 17:55:59,77.0,21.0,14.4,-42.899998,-32.219997,-0.090982445,0.4644893,10.041589,7.428122E-4,-0.006146526,0.014067615,-0.046221714466810226,0.009060314856469631,-2.812873363494873,1007.46924,
2021.02.06 17:55:59,77.0,21.0,14.219999,-42.6,-32.88,-0.016759925,0.4860378,9.816526,0.0044080038,-0.0030921998,0.013456751,-0.04947172477841377,0.001707315444946289,-2.808370590209961,1007.4663,
2021.02.06 17:55:59,77.0,21.0,14.099999,-42.42,-33.059998,-0.076616794,0.5363176,9.960183,0.037394725,-0.020196427,1.7715092E-5,-0.053792618215084076,0.00769215589389205,-2.8127572536468506,1007.4702,
2021.02.06 17:55:59,77.0,21.0,14.16,-42.42,-32.76,-0.057462595,0.5818088,10.206794,-0.040185157,-0.0073682563,-0.0036474764,-0.05693959444761276,0.005629778373986483,-2.8091824054718018,1007.4702,
2021.02.06 17:55:59,77.0,21.0,13.98,-42.36,-33.12,-0.026337024,0.5458947,9.814133,-0.0010897835,-0.027526809,0.007348098,-0.055565860122442245,0.0026835747994482517,-2.810821533203125,1007.4739,
2021.02.06 17:55:59,77.0,21.0,13.74,-42.239998,-32.399998,-0.0023942748,0.4932206,10.077502,-0.004754975,0.024396736,-0.01342132,-0.04890371486544609,2.3758612223900855E-4,-2.815479040145874,1007.4739,
2021.02.06 17:55:59,77.0,21.0,13.799999,-42.48,-32.34,-0.05027977,0.54828894,9.866806,-0.02735699,0.01767722,-0.015253915,-0.0555112287402153,0.005095806438475847,-2.817711353302002,1007.4829,
2021.02.06 17:55:59,77.0,21.0,13.799999,-42.54,-31.98,-0.20111908,0.44772938,10.1206,-0.028578721,0.034781445,-0.028082086,-0.044201865792274475,0.01986963301897049,-2.831484079360962,1007.4807,
2021.02.06 17:55:59,77.0,21.0,13.86,-42.18,-31.32,-0.12210801,0.4668836,9.957788,-0.024302663,0.022564141,-0.016475648,-0.046848446130752563,0.012261948548257351,-2.8215723037719727,1007.4807,
2021.02.06 17:56:00,77.0,21.0,14.219999,-42.36,-32.04,-0.16759923,0.51716334,10.0439825,-0.013917954,0.024396736,-0.007312668,-0.051437292248010635,0.016684982925653458,-2.8168506622314453,1007.4707,
2021.02.06 17:56:00,77.0,21.0,13.98,-42.12,-31.92,-0.18435916,0.4285752,9.917087,-0.023080932,0.03172712,-0.012810456,-0.043181512504816055,0.018587913364171982,-2.8238208293914795,1007.4707,
2021.02.06 17:56:00,77.0,21.0,14.4,-42.059998,-31.98,-0.16041641,0.44294083,9.929058,-0.013917954,0.023785872,0.0030720413,-0.04457518830895424,0.016154849901795387,-2.8120155334472656,1007.4746,
2021.02.06 17:56:00,77.0,21.0,14.58,-42.239998,-31.92,-0.11492519,0.44533512,10.082292,-0.021248337,0.02012068,0.0036829067,-0.04413847625255585,0.011398224160075188,-2.8062045574188232,1007.4712,
2021.02.06 17:56:00,77.0,21.0,14.639999,-42.059998,-31.56,-0.20111908,0.4189981,9.943423,-0.026135258,0.020731544,0.0030720413,-0.04210469871759415,0.02022358402609825,-2.8101818561553955,1007.4712,
2021.02.06 17:56:00,77.0,21.0,15.179999,-42.42,-31.26,-0.12689656,0.43096948,10.113417,-0.017583145,0.023175005,0.0024611761,-0.04258452728390694,0.012546689249575138,-2.795795202255249,1007.47266,
2021.02.06 17:56:00,77.0,21.0,15.179999,-42.48,-31.679998,-0.18196489,0.409421,9.953,-0.010252762,-0.0018704693,0.0049046366,-0.04110539332032204,0.018280379474163055,-2.8005387783050537,1007.4746,
2021.02.06 17:56:00,77.0,21.0,15.24,-42.36,-31.8,-0.22266756,0.4166038,10.134965,0.011738386,0.003627318,0.0012394455,-0.04107256978750229,0.02196670137345791,-2.8008813858032227,1007.4746,
2021.02.06 17:56:00,77.0,21.0,15.179999,-42.48,-31.679998,-0.18675344,0.45970076,9.924269,0.014792713,-0.0049247956,0.0036829067,-0.046279601752758026,0.01881563290953636,-2.7995619773864746,1007.4707,
2021.02.06 17:56:00,77.0,21.0,14.88,-42.18,-32.52,-0.15323359,0.39505535,9.943423,0.022123097,-0.007979122,0.00979156,-0.03970472142100334,0.015409327112138271,-2.803158760070801,1007.4707,
2021.02.06 17:56:00,77.0,21.0,14.28,-42.0,-32.219997,-0.23942748,0.45251793,10.082292,0.005629734,-0.0030921998,0.011624155,-0.04483972117304802,0.023742863908410072,-2.819587230682373,1007.46826,
2021.02.06 17:56:00,77.0,21.0,14.5199995,-42.0,-32.16,-0.15802214,0.42378664,10.1206,0.005018869,-0.0073682563,0.013456751,-0.04184412956237793,0.015612642280757427,-2.8092432022094727,1007.46826,
2021.02.06 17:56:00,77.0,21.0,14.759999,-42.059998,-31.98,-0.21548474,0.43815228,9.799767,0.023955692,-0.01592037,0.017732807,-0.04466994106769562,0.021985219791531563,-2.808173894882202,1007.4685,
2021.02.06 17:56:00,77.0,21.0,14.04,-41.94,-31.14,-0.14605077,0.48843205,10.024829,-0.0059767053,-0.0018704693,0.0036829067,-0.04867858067154884,0.014567873440682888,-2.816951036453247,1007.459,
2021.02.06 17:56:00,77.0,21.0,13.679999,-41.82,-30.599998,-0.11013664,0.42139238,10.091868,-0.004754975,-0.0073682563,0.0049046366,-0.0417289100587368,0.010912971571087837,-2.823291540145874,1007.459,
2021.02.06 17:56:00,77.0,21.0,12.719999,-41.64,-29.939999,-0.18435916,0.42618093,9.833286,0.033118673,5.729916E-4,-0.010366994,-0.043305933475494385,0.018746281042695045,-2.848585605621338,1007.459,
2021.02.06 17:56:00,77.0,21.0,11.94,-41.16,-29.4,-0.117319465,0.47167215,10.077502,0.018457904,-6.487389E-4,-0.014032186,-0.04676717519760132,0.01164119504392147,-2.857617139816284,1007.4607,
2021.02.06 17:56:01,77.0,21.0,11.88,-41.399998,-29.099998,-0.17478207,0.4285752,9.8787775,0.013570982,0.003627318,-0.012810456,-0.043349459767341614,0.017690835520625114,-2.865398406982422,1007.4607,
2021.02.06 17:56:01,77.0,21.0,12.12,-41.46,-29.279999,-0.13886794,0.47167215,9.941029,0.014792713,0.0011838569,-0.01342132,-0.04740683734416962,0.013968264684081078,-2.8569252490997314,1007.4529,
2021.02.06 17:56:01,77.0,21.0,12.059999,-41.64,-29.58,-0.16520496,0.45970076,10.022434,-0.01575055,0.003627318,-0.012810456,-0.045828837901353836,0.016482023522257805,-2.861549139022827,1007.4529,
2021.02.06 17:56:01,77.0,21.0,11.94,-41.579998,-29.34,-0.18675344,0.44294083,9.914692,-0.0035332446,0.009125105,-0.018308243,-0.04463760554790497,0.01883380301296711,-2.8657305240631104,1007.46313,
2021.02.06 17:56:01,77.0,21.0,12.0,-41.46,-29.4,-0.15323359,0.4644893,10.00328,-0.013307089,0.0024055874,-0.010366994,-0.04639493674039841,0.01531713642179966,-2.8608176708221436,1007.46313,
2021.02.06 17:56:01,77.0,21.0,11.94,-41.219997,-29.16,-0.21309046,0.43575802,10.067925,0.0013536774,0.0030164525,-0.006090937,-0.043245140463113785,0.02116212248802185,-2.865208148956299,1007.45996,
2021.02.06 17:56:01,77.0,21.0,12.0,-40.86,-28.8,-0.17957062,0.43575802,9.883567,0.010516656,-0.0037030652,-0.0036474764,-0.04405335709452629,0.01816660538315773,-2.8591606616973877,1007.4624,
2021.02.06 17:56:01,77.0,21.0,12.54,-41.04,-28.92,-0.12929083,0.45730647,10.060742,-0.0029223792,0.012790296,-0.005480072,-0.04541953280568123,0.012850316241383553,-2.8440399169921875,1007.4624,
2021.02.06 17:56:01,77.0,21.0,12.599999,-40.739998,-28.68,-0.17238778,0.42618093,10.082292,0.011127521,-0.0012596041,0.0012394455,-0.042238928377628326,0.01709640957415104,-2.8440418243408203,1007.46216,
2021.02.06 17:56:01,77.0,21.0,12.179999,-40.92,-28.859999,-0.17238778,0.45012367,9.917087,0.015403578,-0.0049247956,0.0018503108,-0.04535072669386864,0.017381155863404274,-2.8545823097229004,1007.46216,
2021.02.06 17:56:01,77.0,21.0,12.24,-41.46,-29.16,-0.25139886,0.44772938,10.084685,-0.0029223792,0.003627318,-5.9315015E-4,-0.044354066252708435,0.02492361329495907,-2.862173318862915,1007.46436,
2021.02.06 17:56:01,77.0,21.0,11.82,-41.28,-29.4,-0.18196489,0.4932206,9.797373,-0.0035332446,0.0054599135,-5.9315015E-4,-0.05029100924730301,0.018570689484477043,-2.8652021884918213,1007.46606,
2021.02.06 17:56:01,77.0,21.0,11.5199995,-41.46,-29.4,-0.14365649,0.44294083,10.180456,-0.021248337,0.012790296,0.0018503108,-0.04347718879580498,0.014110071584582329,-2.8716840744018555,1007.46606,
2021.02.06 17:56:01,77.0,21.0,11.94,-41.46,-28.859999,-0.15802214,0.47167215,9.826104,-0.043239485,0.007292509,-0.0036474764,-0.047958940267562866,0.01608048379421234,-2.8623650074005127,1007.4641,
2021.02.06 17:56:01,77.0,21.0,11.82,-41.34,-28.98,-0.24900457,0.4189981,10.060742,-0.015139685,0.0060707787,-0.007312668,-0.041610054671764374,0.024745067581534386,-2.8714776039123535,1007.4641,
2021.02.06 17:56:01,77.0,21.0,12.3,-41.52,-29.4,-0.2083019,0.4668836,10.082292,-0.009641897,0.003627318,-0.01342132,-0.046264372766017914,0.020657233893871307,-2.8579599857330322,1007.4707,
2021.02.06 17:56:01,77.0,21.0,13.86,-42.0,-30.3,-0.15323359,0.3974496,9.804555,0.0013536774,0.0011838569,-0.014643051,-0.04051011800765991,0.01562754437327385,-2.8240859508514404,1007.46533,
2021.02.06 17:56:02,77.0,21.0,14.759999,-42.239998,-31.439999,-0.27055305,0.41420954,10.168485,-0.035298236,0.028061928,-0.02502776,-0.040697745978832245,0.02660074084997177,-2.8136560916900635,1007.46533,
2021.02.06 17:56:02,77.0,21.0,15.9,-42.3,-32.28,-0.23463893,0.4189981,9.943423,-0.033465642,0.009735971,-0.021973435,-0.04210159182548523,0.02359301969408989,-2.7870981693267822,1007.45776,
2021.02.06 17:56:02,77.0,21.0,16.26,-42.42,-32.76,-0.13886794,0.31843856,10.017646,0.015403578,-0.005535661,-0.015253915,-0.03177401423454285,0.01386144571006298,-2.7765228748321533,1007.45776,
2021.02.06 17:56:02,77.0,21.0,15.78,-42.54,-32.94,-0.25379312,0.43575802,10.015251,-0.009031031,5.729916E-4,-0.023195164,-0.043468087911605835,0.025335241109132767,-2.7925493717193604,1007.4636,
2021.02.06 17:56:02,77.0,21.0,15.48,-42.48,-33.18,-0.20111908,0.3902668,10.017646,0.013570982,-0.0067573916,-0.018308243,-0.038930412381887436,0.02007378451526165,-2.796062469482422,1007.46387,
2021.02.06 17:56:02,77.0,21.0,15.48,-42.96,-33.059998,-0.22027329,0.4070267,9.941029,0.01662531,5.729916E-4,-0.015864782,-0.0409112349152565,0.022154372185468674,-2.8006696701049805,1007.46387,
2021.02.06 17:56:02,77.0,21.0,15.599999,-43.14,-32.88,-0.27055305,0.4166038,10.005674,0.014181848,0.0048490483,-0.01219959,-0.041597530245780945,0.027033373713493347,-2.8026957511901855,1007.47,
2021.02.06 17:56:02,77.0,21.0,15.48,-42.6,-33.059998,-0.15323359,0.42378664,10.039194,-0.0029223792,0.014622892,-0.006701803,-0.04218325763940811,0.015262349508702755,-2.792670488357544,1007.47,
2021.02.06 17:56:02,77.0,21.0,15.299999,-42.719997,-32.76,-0.21787901,0.4189981,9.869201,0.028842613,0.003627318,1.7715092E-5,-0.04241931810975075,0.02207307703793049,-2.8022055625915527,1007.46094,
2021.02.06 17:56:02,77.0,21.0,15.179999,-42.36,-32.64,-0.2681588,0.43815228,10.115811,0.0074623297,0.011568567,-0.0018148806,-0.043271370232105255,0.026502668857574463,-2.8049681186676025,1007.4595,
2021.02.06 17:56:02,77.0,21.0,15.12,-42.42,-32.64,-0.1987248,0.4764607,9.976943,0.0062405993,0.0048490483,0.0012394455,-0.04771047085523605,0.01991577446460724,-2.8008482456207275,1007.4595,
2021.02.06 17:56:02,77.0,21.0,15.179999,-42.6,-32.34,-0.15083931,0.44054657,10.046377,0.014181848,0.0024055874,6.2858034E-4,-0.04381828010082245,0.01501317135989666,-2.798513889312744,1007.4558,
2021.02.06 17:56:02,77.0,21.0,15.66,-42.6,-32.46,-0.22266756,0.45012367,9.945818,-0.010252762,0.0024055874,-0.004869207,-0.04521540179848671,0.022384319454431534,-2.792958974838257,1007.4629,
2021.02.06 17:56:02,77.0,21.0,15.599999,-42.719997,-32.579998,-0.1987248,0.46209505,9.9889145,0.005018869,0.007292509,-0.009756129,-0.04621870070695877,0.019891910254955292,-2.793178081512451,1007.4629,
2021.02.06 17:56:02,77.0,21.0,15.54,-42.54,-32.88,-0.2777359,0.46209505,10.0200405,0.0074623297,0.004238183,-0.007312668,-0.046066764742136,0.027710946276783943,-2.7987005710601807,1007.4678,
2021.02.06 17:56:02,77.0,21.0,16.02,-42.48,-32.82,-0.24900457,0.49800915,10.072714,-0.0065875705,0.0054599135,-0.01097786,-0.04938611760735512,0.024715669453144073,-2.784797430038452,1007.4678,
2021.02.06 17:56:03,77.0,21.0,16.26,-42.42,-32.88,-0.23463893,0.43575802,9.96976,0.0019645425,-0.0037030652,-0.006090937,-0.04366809502243996,0.02353071980178356,-2.779956579208374,1007.4658,
2021.02.06 17:56:03,77.0,21.0,16.56,-42.6,-32.88,-0.2777359,0.44533512,9.993703,7.428122E-4,0.0011838569,-0.007312668,-0.04451495036482811,0.027783937752246857,-2.7777693271636963,1007.4658,
2021.02.06 17:56:03,77.0,21.0,16.619999,-42.6,-32.76,-0.15562786,0.44772938,10.05356,0.011127521,5.729916E-4,-0.0018148806,-0.044499680399894714,0.015478639863431454,-2.767918109893799,1007.46216,
2021.02.06 17:56:03,77.0,21.0,16.08,-42.719997,-32.82,-0.25858167,0.43575802,9.912297,0.011127521,0.0060707787,-0.005480072,-0.04391814023256302,0.026081040501594543,-2.7879114151000977,1007.4624,
2021.02.06 17:56:03,77.0,21.0,15.599999,-42.6,-32.76,-0.16281068,0.47885495,10.008069,0.012960117,-0.0024813346,6.2858034E-4,-0.04780410975217819,0.016266506165266037,-2.789259910583496,1007.4624,
2021.02.06 17:56:03,77.0,21.0,15.66,-42.18,-33.18,-0.3040729,0.42618093,10.024829,-0.0035332446,0.003627318,6.2858034E-4,-0.04246744513511658,0.03032268024981022,-2.796257257461548,1007.4617,
2021.02.06 17:56:03,77.0,21.0,15.42,-42.42,-33.0,-0.15802214,0.44294083,9.869201,0.011738386,-6.487389E-4,6.2858034E-4,-0.04484528675675392,0.016010276973247528,-2.792353391647339,1007.4617,
2021.02.06 17:56:03,77.0,21.0,15.48,-42.54,-32.94,-0.23224466,0.46927786,10.096657,-0.044461217,0.007292509,-0.0018148806,-0.046432849019765854,0.022998079657554626,-2.796539783477783,1007.46655,
2021.02.06 17:56:03,77.0,21.0,15.599999,-42.54,-32.94,-0.21309046,0.40223816,9.964972,0.014792713,0.003627318,0.0018503108,-0.04033409431576729,0.021380692720413208,-2.794464588165283,1007.4629,
2021.02.06 17:56:03,77.0,21.0,15.24,-42.96,-32.34,-0.23224466,0.4836435,10.13736,-0.016361414,0.0060707787,-5.9315015E-4,-0.04766038432717323,0.022905772551894188,-2.8044588565826416,1007.4629,
2021.02.06 17:56:03,77.0,21.0,15.54,-42.78,-32.52,-0.20590763,0.44772938,9.924269,-0.022470068,0.006681644,-0.007312668,-0.04507433995604515,0.020744912326335907,-2.7958321571350098,1007.46826,
2021.02.06 17:56:03,77.0,21.0,15.719999,-42.54,-33.12,-0.25858167,0.45730647,9.976943,0.0013536774,0.003627318,-0.0042583416,-0.04578892141580582,0.025912124663591385,-2.793649911880493,1007.46826,
2021.02.06 17:56:03,77.0,21.0,15.66,-42.66,-33.36,-0.22985038,0.41420954,10.13736,-0.017583145,0.0103468355,-0.008534398,-0.04082651063799858,0.022669710218906403,-2.794959306716919,1007.459,
2021.02.06 17:56:03,77.0,21.0,15.66,-42.6,-33.66,-0.22985038,0.44054657,9.871595,0.017847039,-0.006146526,6.2858034E-4,-0.04458603635430336,0.023279808461666107,-2.793940544128418,1007.4614,
2021.02.06 17:56:03,77.0,21.0,15.48,-42.54,-33.48,-0.2753416,0.44054657,10.017646,-0.0065875705,0.001794722,-0.004869207,-0.04393216595053673,0.027478743344545364,-2.8005664348602295,1007.4614,
2021.02.06 17:56:03,77.0,21.0,15.48,-42.6,-33.18,-0.19154198,0.45251793,10.0368,0.020901365,0.0024055874,1.7715092E-5,-0.04504716768860817,0.01908165216445923,-2.794609308242798,1007.45166,
2021.02.06 17:56:03,77.0,21.0,15.36,-42.6,-32.88,-0.36392978,0.45012367,10.032011,0.008073196,-0.0146986395,0.0061263675,-0.04480922967195511,0.036260951310396194,-2.809551954269409,1007.45166,
2021.02.06 17:56:04,77.0,21.0,15.839999,-42.059998,-32.88,-0.19154198,0.44294083,9.912297,0.0031862732,-6.487389E-4,0.0012394455,-0.04464796185493469,0.019321266561746597,-2.7828140258789062,1007.45703,
2021.02.06 17:56:04,77.0,21.0,15.599999,-42.239998,-32.82,-0.22027329,0.43815228,9.93624,0.0074623297,-0.009811718,0.01101329,-0.044057030230760574,0.022165045142173767,-2.7916359901428223,1007.4629,
2021.02.06 17:56:04,77.0,21.0,15.42,-42.059998,-32.16,-0.23942748,0.42378664,10.017646,-0.0023115142,0.0011838569,6.2858034E-4,-0.04226674884557724,0.023896021768450737,-2.7957372665405273,1007.4629,
2021.02.06 17:56:04,77.0,21.0,15.36,-42.059998,-32.219997,-0.18435916,0.4166038,9.976943,-0.017583145,-0.0037030652,0.004293772,-0.04172530025243759,0.018476419150829315,-2.7933905124664307,1007.4656,
2021.02.06 17:56:04,77.0,21.0,14.88,-42.48,-31.92,-0.3232271,0.43096948,10.2091875,-0.021248337,0.0103468355,-5.9315015E-4,-0.04216773435473442,0.031649842858314514,-2.8161230087280273,1007.4656,
2021.02.06 17:56:04,77.0,21.0,15.12,-42.36,-32.28,-0.15802214,0.44054657,9.852441,0.02823175,-0.0067573916,0.010402424,-0.044678959995508194,0.016037506982684135,-2.7984466552734375,1007.4646,
2021.02.06 17:56:04,77.0,21.0,15.12,-42.239998,-32.82,-0.2944958,0.40463245,9.974549,7.428122E-4,-6.487389E-4,0.004293772,-0.0405266210436821,0.029516147449612617,-2.80831241607666,1007.4646,
2021.02.06 17:56:04,77.0,21.0,15.42,-42.059998,-32.76,-0.2777359,0.43336374,9.972155,-0.0053658406,0.012179431,-0.006701803,-0.04341324046254158,0.02784394472837448,-2.7983734607696533,1007.4646,
2021.02.06 17:56:04,77.0,21.0,15.179999,-42.18,-32.52,-0.20590763,0.36392978,9.960183,-0.020637471,0.022564141,-0.0018148806,-0.03651442006230354,0.020670130848884583,-2.8012053966522217,1007.47144,
2021.02.06 17:56:04,77.0,21.0,15.0,-41.94,-32.1,-0.20590763,0.40463245,10.178062,-0.026135258,0.018898949,-0.004869207,-0.03972630575299263,0.020227773115038872,-2.8020567893981934,1007.47144,
2021.02.06 17:56:04,77.0,21.0,15.0,-41.94,-32.04,-0.052674048,0.32562137,10.723957,-0.010863627,0.0024055874,-0.007923533,-0.030354226008057594,0.004911771044135094,-2.7938363552093506,1007.4695,
2021.02.06 17:56:04,77.0,21.0,14.5199995,-42.239998,-31.98,-0.13886794,0.5770202,9.289786,0.11069856,0.003627318,0.0018503108,-0.06202679127454758,0.014947340823709965,-2.8052890300750732,1007.46875,
