Time,X-cord,Y-cord,Mag_x,Mag_y,Mag_z,Acc_x,Acc_y,Acc_z,Gyro_x,Gyro_y,Gyro_z,Orn_x,Orn_y,Orn_z,Pressure,
2021.02.06 17:38:24,21.0,24.0,35.16,-3.54,-34.62,-0.057462595,0.7589851,9.768641,0.14368527,0.12946557,-0.05190583,-0.07753895968198776,0.005882284604012966,-1.5945842266082764,1007.5012,
2021.02.06 17:38:24,21.0,24.0,35.28,-3.54,-34.38,-0.4644893,0.7589851,9.557945,0.079544425,-0.048907094,-0.01342132,-0.0791495144367218,0.04855898767709732,-1.591002345085144,1007.5012,
2021.02.06 17:38:24,21.0,24.0,36.12,-4.3199997,-34.68,-0.25858167,0.87151605,10.063137,-0.0957739,-0.04585277,-0.01342132,-0.08636089414358139,0.02569027617573738,-1.6058098077774048,1007.51636,
2021.02.06 17:38:24,21.0,24.0,36.96,-5.16,-35.579998,-0.071828246,0.8140534,9.98652,-0.07378274,-0.055015747,-0.005480072,-0.08133330196142197,0.007192396093159914,-1.6315003633499146,1007.5115,
2021.02.06 17:38:24,21.0,24.0,37.8,-5.2799997,-36.42,-0.12450229,0.8044763,9.976943,-0.0035332446,-0.038522385,-0.02380603,-0.08045323938131332,0.012478353455662727,-1.6322649717330933,1007.5115,
2021.02.06 17:38:24,21.0,24.0,37.98,-5.8799996,-37.5,-0.4836435,0.89067024,10.178062,-4.7891834E-4,-0.02080729,-0.039688528,-0.08718858659267426,0.04748251289129257,-1.6381478309631348,1007.50684,
2021.02.06 17:38:24,21.0,24.0,37.32,-5.46,-37.8,-0.29928434,0.8356019,10.213976,0.005018869,-0.02997027,-0.029303815,-0.08159301429986954,0.02929307147860527,-1.6335170269012451,1007.50684,
2021.02.06 17:38:24,21.0,24.0,37.26,-5.4,-37.8,-0.44533512,0.85954463,9.931452,0.07404664,0.001794722,-0.052516695,-0.08624637126922607,0.04481086879968643,-1.6265614032745361,1007.51904,
2021.02.06 17:38:24,21.0,24.0,36.78,-5.46,-37.86,-0.36392978,0.91700727,9.584282,0.12413759,0.003627318,-0.018919107,-0.09531960636377335,0.03795328736305237,-1.6189411878585815,1007.5078,
2021.02.06 17:38:25,21.0,24.0,36.899998,-5.2799997,-37.98,-0.32801566,0.9194015,9.909904,0.04594684,0.013401162,-0.009756129,-0.09246085584163666,0.033087700605392456,-1.6168009042739868,1007.5078,
2021.02.06 17:38:25,21.0,24.0,37.079998,-5.46,-37.62,-0.54350036,0.92658436,10.118205,-0.04934814,0.012790296,-0.015253915,-0.09119051694869995,0.05366352200508118,-1.6231722831726074,1007.5066,
2021.02.06 17:38:25,21.0,24.0,37.079998,-4.98,-37.8,-0.43575802,0.9122187,9.73991,-0.04385035,0.022564141,0.010402424,-0.09329261630773544,0.04470961540937424,-1.6071593761444092,1007.5066,
2021.02.06 17:38:25,21.0,24.0,37.68,-4.8599997,-38.1,-0.2561874,0.85954463,10.182851,-0.03835256,-0.0067573916,0.042167414,-0.08418486267328262,0.025153405964374542,-1.6132787466049194,1007.5034,
2021.02.06 17:38:25,21.0,24.0,37.8,-4.56,-37.86,-0.36871833,0.8140534,10.130177,-0.052402467,-0.017142102,0.022008864,-0.08013410866260529,0.036381956189870834,-1.6094244718551636,1007.49927,
2021.02.06 17:38:25,21.0,24.0,38.16,-4.2599998,-38.399998,-0.38787252,0.76137936,9.833286,0.017236173,0.001794722,-0.014032186,-0.0772147923707962,0.03942441567778587,-1.6027785539627075,1007.49927,
2021.02.06 17:38:25,21.0,24.0,38.28,-4.74,-38.219997,-0.43096948,0.84996754,10.00328,0.027010018,-0.006146526,-0.005480072,-0.08468709886074066,0.0430561900138855,-1.607768177986145,1007.4971,
2021.02.06 17:38:25,21.0,24.0,37.86,-4.74,-37.8,-0.3902668,0.818842,9.938635,-0.013307089,-0.0024813346,-0.014643051,-0.08214110136032104,0.039247483015060425,-1.6121255159378052,1007.5017,
2021.02.06 17:38:25,21.0,24.0,37.739998,-5.04,-37.92,-0.41181526,0.73743665,9.9889145,-0.009641897,0.011568567,6.2858034E-4,-0.07362949848175049,0.04120389744639397,-1.6295138597488403,1007.5017,
2021.02.06 17:38:25,21.0,24.0,37.739998,-5.04,-37.92,-0.33519846,0.8236305,9.950606,-0.026135258,-0.026305078,-0.019529972,-0.08253703266382217,0.033673498779535294,-1.619974970817566,1007.50244,
2021.02.06 17:38:25,21.0,24.0,38.1,-4.98,-38.46,-0.22266756,0.8786988,10.032011,0.006851465,-0.0043139304,0.0067372327,-0.08734512329101562,0.022192060947418213,-1.6119433641433716,1007.50244,
2021.02.06 17:38:25,21.0,24.0,38.1,-5.1,-38.64,-0.30886146,0.8284191,10.046377,0.03922732,-0.014087774,-0.018919107,-0.08223466575145721,0.030733885243535042,-1.6199272871017456,1007.50073,
2021.02.06 17:38:25,21.0,24.0,37.8,-4.7999997,-38.76,-0.53392327,0.845179,9.799767,0.05388809,0.02134241,-0.03419074,-0.08590514212846756,0.05442944914102554,-1.6068458557128906,1007.50073,
2021.02.06 17:38:25,21.0,24.0,37.38,-5.22,-38.34,-0.22027329,0.9289786,10.089474,-0.025524393,0.015233757,-0.020751704,-0.09179341793060303,0.02182852290570736,-1.6148265600204468,1007.5093,
2021.02.06 17:38:25,21.0,24.0,36.66,-4.92,-37.44,-0.3902668,0.88109314,9.73991,0.07038145,0.009125105,-0.0042583416,-0.09014464169740677,0.040047407150268555,-1.610629677772522,1007.5193,
2021.02.06 17:38:25,21.0,24.0,36.48,-4.44,-36.84,-0.4740664,0.8834874,10.134965,-0.011474493,0.007292509,-0.029303815,-0.08685792982578278,0.046741269528865814,-1.601981520652771,1007.5193,
2021.02.06 17:38:26,21.0,24.0,36.239998,-4.7999997,-36.6,-0.38308397,0.90503585,9.974549,0.030064344,-0.010422583,-0.01219959,-0.0904204398393631,0.038387276232242584,-1.6096279621124268,1007.5132,
2021.02.06 17:38:26,21.0,24.0,36.239998,-4.5,-36.78,-0.43815228,0.9074302,9.976943,0.0483903,-0.023250753,0.015289347,-0.09061630070209503,0.043888285756111145,-1.6000597476959229,1007.5132,
2021.02.06 17:38:26,21.0,24.0,36.239998,-4.3199997,-36.78,-0.34956414,0.9217958,9.905115,0.03189694,-3.7873644E-5,0.029339246,-0.09273792803287506,0.035276636481285095,-1.593105673789978,1007.51074,
2021.02.06 17:38:26,21.0,24.0,36.54,-4.44,-37.2,-0.36632404,0.9601042,9.859624,0.025788289,0.014012027,0.031171843,-0.09700480848550797,0.037136875092983246,-1.5903559923171997,1007.50757,
2021.02.06 17:38:26,21.0,24.0,36.78,-4.14,-37.26,-0.32801566,0.9792584,9.945818,-0.035909105,-0.009811718,0.028117515,-0.09808999300003052,0.03296831250190735,-1.5807695388793945,1007.50757,
2021.02.06 17:38:26,21.0,24.0,36.899998,-3.8999999,-37.079998,-0.25379312,0.967287,9.888355,0.0044080038,-0.0024813346,0.014678481,-0.09747868776321411,0.02566022425889969,-1.5758535861968994,1007.5044,
2021.02.06 17:38:26,21.0,24.0,37.14,-4.14,-37.14,-0.35674694,1.0008069,10.022434,-0.01819401,0.003627318,-0.014643051,-0.09946416318416595,0.03557981550693512,-1.5792516469955444,1007.5044,
2021.02.06 17:38:26,21.0,24.0,36.84,-4.2,-37.079998,-0.36632404,1.0175668,9.991309,-0.019415742,0.0048490483,-0.02380603,-0.10142755508422852,0.03664785251021385,-1.5789687633514404,1007.4946,
2021.02.06 17:38:26,21.0,24.0,36.66,-4.14,-36.66,-0.32083282,0.8571504,9.90272,0.0013536774,-6.487389E-4,-0.009145264,-0.08629680424928665,0.03238712623715401,-1.5951675176620483,1007.4927,
2021.02.06 17:38:26,21.0,24.0,36.6,-4.44,-36.54,-0.31125572,0.97446984,9.876384,0.029453479,-0.010422583,-0.008534398,-0.09829985350370407,0.03150472417473793,-1.5911459922790527,1007.4927,
2021.02.06 17:38:26,21.0,24.0,36.36,-4.74,-36.66,-0.3902668,0.9241901,10.046377,-0.01575055,-3.7873644E-5,-0.017697377,-0.09166542440652847,0.03882699832320213,-1.6062355041503906,1007.50684,
2021.02.06 17:38:26,21.0,24.0,36.18,-5.1,-36.36,-0.28252444,0.9337672,9.912297,-0.0059767053,0.0011838569,-0.014032186,-0.0938878133893013,0.02849470265209675,-1.6155589818954468,1007.50684,
2021.02.06 17:38:26,21.0,24.0,36.239998,-5.22,-36.66,-0.34956414,0.9289786,9.960183,-0.0053658406,-0.006146526,0.0049046366,-0.09294329583644867,0.03508175536990166,-1.6188299655914307,1007.5029,
2021.02.06 17:38:26,21.0,24.0,36.18,-4.8599997,-36.84,-0.31843856,0.9289786,9.979338,-0.0017006488,0.0011838569,-0.002425746,-0.09277574717998505,0.03189896419644356,-1.6085350513458252,1007.50586,
2021.02.06 17:38:26,21.0,24.0,35.94,-4.62,-36.96,-0.31604427,0.9289786,9.921875,-0.013917954,0.007903375,-0.010366994,-0.09331013262271881,0.031842514872550964,-1.6010445356369019,1007.50586,
2021.02.06 17:38:26,21.0,24.0,36.239998,-4.62,-37.26,-0.28970724,0.9241901,9.962578,-0.004754975,-0.0073682563,1.7715092E-5,-0.09246255457401276,0.029071353375911713,-1.601070523262024,1007.5017,
2021.02.06 17:38:26,21.0,24.0,36.48,-4.62,-37.38,-0.30646718,0.90982443,9.950606,-0.010863627,-0.017752966,0.008569829,-0.09113756567239761,0.03078911080956459,-1.6018868684768677,1007.5017,
2021.02.06 17:38:27,21.0,24.0,36.96,-4.74,-37.5,-0.31604427,0.8547561,9.900327,-0.0010897835,-0.0037030652,-0.01097786,-0.08607896417379379,0.03191177546977997,-1.6099075078964233,1007.511,
2021.02.06 17:38:27,21.0,24.0,36.96,-4.5,-37.62,-0.34956414,0.91461295,9.996098,-0.03102218,-0.0073682563,-0.015253915,-0.09118751436471939,0.034955814480781555,-1.5971792936325073,1007.50806,
2021.02.06 17:38:27,21.0,24.0,36.719997,-4.2,-37.5,-0.28013015,0.84996754,9.9889145,-0.009031031,5.729916E-4,-0.008534398,-0.084853395819664,0.028036754578351974,-1.596613883972168,1007.50806,
2021.02.06 17:38:27,21.0,24.0,36.48,-4.44,-37.26,-0.32083282,0.87630457,9.98652,-0.014528819,-0.0073682563,6.2858034E-4,-0.08747966587543488,0.032115545123815536,-1.6010446548461914,1007.5051,
2021.02.06 17:38:27,21.0,24.0,35.76,-4.5,-37.26,-0.38068968,0.82123625,9.964972,-0.0065875705,0.001794722,-0.01342132,-0.08216681331396103,0.03818421810865402,-1.6091585159301758,1007.5034,
2021.02.06 17:38:27,21.0,24.0,35.579998,-3.78,-36.719997,-0.2681588,0.845179,9.972155,0.0013536774,-3.7873644E-5,-0.007923533,-0.08452143520116806,0.026884278282523155,-1.5877684354782104,1007.5034,
2021.02.06 17:38:27,21.0,24.0,35.04,-3.4199998,-36.54,-0.28013015,0.8547561,10.027223,-0.0053658406,0.006681644,-0.005480072,-0.08500497043132782,0.027929699048399925,-1.577366828918457,1007.5078,
2021.02.06 17:38:27,21.0,24.0,34.8,-3.0,-36.719997,-0.30886146,0.88109314,10.017646,0.0019645425,0.0054599135,-0.010366994,-0.08768690377473831,0.03082197718322277,-1.5612977743148804,1007.5078,
2021.02.06 17:38:27,21.0,24.0,34.92,-2.76,-36.18,-0.35674694,0.87630457,9.883567,0.025788289,0.006681644,-0.009145264,-0.0883742943406105,0.036079294979572296,-1.5543330907821655,1007.5115,
2021.02.06 17:38:27,21.0,24.0,34.5,-3.36,-36.239998,-0.3040729,0.9074302,9.962578,0.020290501,0.009735971,-0.004869207,-0.09079118072986603,0.03051203303039074,-1.5697929859161377,1007.5115,
2021.02.06 17:38:27,21.0,24.0,34.62,-3.4199998,-35.88,-0.339987,0.8739103,10.0368,-0.0029223792,0.0024055874,-0.015864782,-0.08680202811956406,0.03386109322309494,-1.576689600944519,1007.50977,
2021.02.06 17:38:27,21.0,24.0,34.62,-3.36,-35.46,-0.38547826,0.87630457,9.852441,0.014792713,-3.7873644E-5,-0.020751704,-0.08864199370145798,0.03910520672798157,-1.5735143423080444,1007.5044,
2021.02.06 17:38:27,21.0,24.0,34.38,-3.3,-35.16,-0.39505535,0.90982443,10.032011,-0.010252762,0.0024055874,-0.007923533,-0.09037503600120544,0.039359141141176224,-1.5706032514572144,1007.5044,
2021.02.06 17:38:27,21.0,24.0,34.26,-3.3,-34.62,-0.36392978,0.90024734,9.926663,-0.010863627,-0.0018704693,-0.003036611,-0.09038202464580536,0.03664543107151985,-1.572330117225647,1007.5017,
2021.02.06 17:38:27,21.0,24.0,34.26,-3.54,-34.739998,-0.30167863,0.91461295,9.993703,0.0031862732,-0.0030921998,0.0067372327,-0.09122335910797119,0.030177706852555275,-1.5788646936416626,1007.5017,
2021.02.06 17:38:27,21.0,24.0,34.38,-3.6,-35.04,-0.2849187,0.9217958,9.981731,1.3194689E-4,-0.0049247956,-0.0036474764,-0.09204982221126556,0.028536267578601837,-1.5790388584136963,1007.5029,
2021.02.06 17:38:27,21.0,24.0,34.62,-3.6,-35.34,-0.4189981,0.92658436,9.871595,-0.0017006488,-0.0073682563,-0.004869207,-0.09350576996803284,0.04241936281323433,-1.5753439664840698,1007.5083,
2021.02.06 17:38:28,21.0,24.0,34.92,-3.4199998,-35.76,-0.28252444,0.9313729,10.065532,-0.0023115142,-0.0073682563,0.0030720413,-0.09223206341266632,0.028061138466000557,-1.5714740753173828,1007.5083,
2021.02.06 17:38:28,21.0,24.0,34.739998,-2.8799999,-35.46,-0.28970724,0.9241901,9.873989,0.0044080038,-0.011644313,-0.0018148806,-0.09328663349151611,0.029332032427191734,-1.5550886392593384,1007.5078,
2021.02.06 17:38:28,21.0,24.0,34.559998,-2.82,-35.04,-0.39266106,0.94573855,9.926663,-0.016361414,-0.0067573916,-0.0012040153,-0.0949120745062828,0.03953558951616287,-1.551482915878296,1007.5078,
2021.02.06 17:38:28,21.0,24.0,33.96,-2.9399998,-35.04,-0.32083282,0.90024734,10.113417,-0.020026606,-0.0037030652,6.2858034E-4,-0.08873675018548965,0.0317128486931324,-1.5625518560409546,1007.5056,
2021.02.06 17:38:28,21.0,24.0,34.02,-3.12,-35.1,-0.37350687,0.90982443,9.787795,0.0031862732,-0.0018704693,0.0024611761,-0.09262161701917648,0.03814196586608887,-1.5629154443740845,1007.5061,
2021.02.06 17:38:28,21.0,24.0,34.44,-3.48,-35.7,-0.28731298,0.9026416,9.998491,0.006851465,-0.0012596041,0.00979156,-0.08999677002429962,0.028727727010846138,-1.5758795738220215,1007.5061,
2021.02.06 17:38:28,21.0,24.0,34.86,-3.54,-35.52,-0.3328042,0.8978531,10.051166,-0.0023115142,5.729916E-4,0.008569829,-0.08904325217008591,0.033098913729190826,-1.578711748123169,1007.5061,
2021.02.06 17:38:28,21.0,24.0,35.04,-3.54,-35.34,-0.2681588,0.9026416,10.017646,-0.0065875705,-0.0012596041,0.0067372327,-0.08983048796653748,0.026762252673506737,-1.5787888765335083,1007.5061,
2021.02.06 17:38:28,21.0,24.0,35.1,-3.48,-35.219997,-0.4070267,0.9313729,9.787795,0.031286072,-0.0043139304,0.0055155023,-0.09478946030139923,0.04156118258833885,-1.570669412612915,1007.50415,
2021.02.06 17:38:28,21.0,24.0,34.86,-3.1799998,-34.739998,-0.17957062,0.888276,10.130177,0.002575408,0.006681644,0.007348098,-0.08744875341653824,0.017724448814988136,-1.5731406211853027,1007.5029,
2021.02.06 17:38:28,21.0,24.0,34.559998,-2.9399998,-34.92,-0.28013015,0.8475733,9.79019,0.019679634,0.003627318,-0.0036474764,-0.08632325381040573,0.028605548664927483,-1.5658599138259888,1007.5029,
2021.02.06 17:38:28,21.0,24.0,34.739998,-3.12,-35.1,-0.3423813,0.84996754,9.90272,0.012349252,0.004238183,-0.008534398,-0.08557098358869553,0.03456070274114609,-1.571032166481018,1007.4995,
2021.02.06 17:38:28,21.0,24.0,34.44,-3.12,-35.219997,-0.24900457,0.87630457,10.041589,-0.023691798,0.003627318,-0.0012040153,-0.0870203822851181,0.024792246520519257,-1.5700198411941528,1007.4971,
2021.02.06 17:38:28,21.0,24.0,34.32,-3.1799998,-35.04,-0.24182175,0.88588166,9.926663,-0.012696223,0.0060707787,-0.007923533,-0.08898058533668518,0.024356011301279068,-1.5702075958251953,1007.4971,
2021.02.06 17:38:28,21.0,24.0,34.38,-3.6,-34.8,-0.35674694,0.90982443,10.010463,-0.0035332446,0.0024055874,-0.028082086,-0.09058114141225815,0.035622332245111465,-1.5807167291641235,1007.4961,
2021.02.06 17:38:28,21.0,24.0,34.2,-3.3,-34.5,-0.33519846,0.90503585,9.838076,-0.0059767053,0.007292509,-0.036023334,-0.0916820839047432,0.03405837342143059,-1.5714855194091797,1007.4961,
2021.02.06 17:38:29,21.0,24.0,34.2,-3.12,-34.38,-0.26337022,0.87630457,9.93624,0.009294925,0.007292509,-0.009756129,-0.0879344567656517,0.02649981901049614,-1.5711007118225098,1007.49536,
2021.02.06 17:38:29,21.0,24.0,34.32,-3.36,-34.44,-0.2849187,0.9241901,10.046377,-0.0010897835,0.0054599135,-0.011588724,-0.09169752150774002,0.02835274301469326,-1.5739293098449707,1007.49536,
2021.02.06 17:38:29,21.0,24.0,34.26,-3.12,-33.96,-0.36392978,0.9026416,9.862018,0.015403578,0.0030164525,-0.019529972,-0.09121102839708328,0.036885425448417664,-1.5677895545959473,1007.50464,
2021.02.06 17:38:29,21.0,24.0,34.38,-3.24,-34.14,-0.339987,0.88109314,10.05356,-0.012085358,0.0054599135,-0.015253915,-0.08736687153577805,0.03380468860268593,-1.575284719467163,1007.50244,
2021.02.06 17:38:29,21.0,24.0,34.2,-3.24,-34.5,-0.339987,0.89545876,9.864412,-0.0053658406,-6.487389E-4,-0.008534398,-0.09047514200210571,0.03445237874984741,-1.570948600769043,1007.50244,
2021.02.06 17:38:29,21.0,24.0,33.96,-3.06,-35.04,-0.35674694,0.8786988,10.000886,0.011738386,0.008514239,-0.007923533,-0.08758162707090378,0.035656414926052094,-1.5671067237854004,1007.5078,
2021.02.06 17:38:29,21.0,24.0,33.84,-3.4199998,-35.46,-0.2657645,0.9026416,9.991309,-0.025524393,0.004238183,-0.007312668,-0.09006640315055847,0.026593297719955444,-1.5749590396881104,1007.5049,
2021.02.06 17:38:29,21.0,24.0,33.66,-3.48,-36.0,-0.3304099,0.85954463,9.964972,0.008684061,0.007903375,-0.004869207,-0.0859966054558754,0.0331449918448925,-1.579455018043518,1007.5049,
2021.02.06 17:38:29,21.0,24.0,34.38,-3.6,-35.76,-0.35435268,0.90024734,9.93624,-0.010252762,0.001794722,-0.0036474764,-0.0902986228466034,0.035647545009851456,-1.5784192085266113,1007.50024,
2021.02.06 17:38:29,21.0,24.0,34.92,-3.6,-35.76,-0.30886146,0.85954463,10.012857,-0.0017006488,0.0024055874,0.0061263675,-0.08559363335371017,0.03083670884370804,-1.5837875604629517,1007.50024,
2021.02.06 17:38:29,21.0,24.0,35.04,-3.12,-36.0,-0.31604427,0.9194015,9.964972,0.002575408,0.0011838569,-0.003036611,-0.09195689111948013,0.031704895198345184,-1.5619627237319946,1007.499,
2021.02.06 17:38:29,21.0,24.0,35.219997,-2.76,-35.579998,-0.38787252,0.9122187,10.08708,-0.0053658406,-0.0012596041,-0.007312668,-0.09012278914451599,0.03843347355723381,-1.5538628101348877,1007.499,
2021.02.06 17:38:29,21.0,24.0,34.92,-2.6399999,-35.579998,-0.3423813,0.90024734,9.938635,0.0074623297,0.0024055874,-0.01342132,-0.09028079360723495,0.03443590924143791,-1.550455093383789,1007.5061,
2021.02.06 17:38:29,21.0,24.0,34.44,-2.7,-35.219997,-0.39505535,0.90982443,9.924269,0.0074623297,-0.0037030652,-0.007312668,-0.09134922176599503,0.03978599235415459,-1.5512142181396484,1007.49756,
2021.02.06 17:38:29,21.0,24.0,34.079998,-2.6399999,-35.219997,-0.33519846,0.8978531,9.91948,0.015403578,0.001794722,-0.006701803,-0.09021692723035812,0.0337790846824646,-1.5511537790298462,1007.49756,
2021.02.06 17:38:29,21.0,24.0,33.6,-2.6399999,-35.1,-0.40223816,0.9122187,9.964972,-0.0059767053,-0.0018704693,-0.0018148806,-0.09121422469615936,0.040343306958675385,-1.5493736267089844,1007.49756,
2021.02.06 17:38:29,21.0,24.0,33.719997,-2.46,-34.8,-0.32562137,0.9026416,10.05356,-0.009641897,0.009125105,-0.011588724,-0.08949650824069977,0.032377343624830246,-1.5475900173187256,1007.49756,
2021.02.06 17:38:30,21.0,24.0,34.02,-2.34,-35.1,-0.44533512,0.8379962,9.799767,0.01662531,0.0024055874,-0.002425746,-0.08521681278944016,0.045412201434373856,-1.5465863943099976,1007.5061,
2021.02.06 17:38:30,21.0,24.0,34.079998,-2.3999999,-35.04,-0.2681588,0.9624985,10.072714,0.008684061,0.009125105,-0.006090937,-0.09523224085569382,0.026616010814905167,-1.5397870540618896,1007.5012,
2021.02.06 17:38:30,21.0,24.0,34.44,-2.6399999,-35.28,-0.38308397,0.82602483,9.931452,-0.010252762,-3.7873644E-5,-5.9315015E-4,-0.08292023837566376,0.038553692400455475,-1.5587283372879028,1007.5012,
2021.02.06 17:38:30,21.0,24.0,34.2,-2.7,-35.219997,-0.3232271,0.9337672,9.926663,0.012960117,-0.0049247956,-0.007923533,-0.09374120086431503,0.03255000710487366,-1.5492768287658691,1007.5039,
2021.02.06 17:38:30,21.0,24.0,34.079998,-3.06,-35.16,-0.409421,0.8667275,10.079897,-0.01575055,-0.005535661,-0.004869207,-0.08570445328950882,0.04059526324272156,-1.5684415102005005,1007.4956,
2021.02.06 17:38:30,21.0,24.0,34.14,-2.82,-35.04,-0.28731298,0.9074302,9.890749,0.023344826,-0.0067573916,0.0012394455,-0.09145087003707886,0.029040491208434105,-1.5562710762023926,1007.4956,
2021.02.06 17:38:30,21.0,24.0,34.079998,-2.82,-34.5,-0.38547826,0.87151605,10.000886,-0.0017006488,-0.011644313,1.7715092E-5,-0.08686011284589767,0.03852534294128418,-1.5617765188217163,1007.4966,
2021.02.06 17:38:30,21.0,24.0,34.38,-2.8799999,-34.68,-0.3304099,0.87151605,9.979338,0.006851465,-0.0043139304,-0.007312668,-0.08706356585025787,0.03309731185436249,-1.5634580850601196,1007.4966,
2021.02.06 17:38:30,21.0,24.0,34.62,-2.76,-34.8,-0.39266106,0.9122187,9.869201,0.008073196,-0.009811718,-0.004869207,-0.09209651499986649,0.03976553678512573,-1.5534483194351196,1007.5012,
2021.02.06 17:38:30,21.0,24.0,35.04,-2.82,-34.68,-0.339987,0.8739103,9.953,-0.00414411,-0.0018704693,0.0024611761,-0.08752831071615219,0.03414597362279892,-1.5611852407455444,1007.5012,
2021.02.06 17:38:30,21.0,24.0,35.1,-2.8799999,-34.98,-0.35914123,0.89067024,9.993703,7.428122E-4,-0.0073682563,0.0018503108,-0.08883125334978104,0.03592129424214363,-1.5606131553649902,1007.50244,
2021.02.06 17:38:30,21.0,24.0,34.8,-2.82,-34.98,-0.35435268,0.86912173,9.866806,0.014181848,-0.0067573916,-0.005480072,-0.08780234307050705,0.03589818999171257,-1.559884786605835,1007.50806,
2021.02.06 17:38:30,21.0,24.0,34.86,-2.82,-34.559998,-0.35914123,0.9074302,10.046377,-0.0065875705,5.729916E-4,0.0012394455,-0.0900224819779396,0.035733114928007126,-1.5586440563201904,1007.50806,
2021.02.06 17:38:30,21.0,24.0,34.62,-3.12,-34.5,-0.34956414,0.91700727,9.835681,-0.0010897835,-0.005535661,0.007348098,-0.09290566295385361,0.03552545607089996,-1.5646193027496338,1007.5078,
2021.02.06 17:38:30,21.0,24.0,34.559998,-3.0,-34.739998,-0.31843856,0.87630457,10.058349,0.009294925,-0.0049247956,0.015289347,-0.08685938268899918,0.031648557633161545,-1.5672569274902344,1007.5078,
2021.02.06 17:38:30,21.0,24.0,34.62,-3.4199998,-34.68,-0.32801566,0.91700727,9.905115,1.3194689E-4,-0.005535661,0.0055155023,-0.09226573258638382,0.033103685826063156,-1.573976755142212,1007.5066,
2021.02.06 17:38:30,21.0,24.0,34.32,-3.24,-34.92,-0.2657645,0.888276,10.0368,-0.0010897835,-3.7873644E-5,0.0061263675,-0.08824114501476288,0.026472819969058037,-1.572924017906189,1007.5044,
2021.02.06 17:38:31,21.0,24.0,34.38,-3.36,-35.04,-0.31604427,0.888276,9.847652,-0.0053658406,-0.0012596041,0.01101329,-0.0899123027920723,0.03208235278725624,-1.5738873481750488,1007.5044,
2021.02.06 17:38:31,21.0,24.0,34.5,-3.48,-34.86,-0.2944958,0.8332076,9.991309,-0.014528819,-0.0018704693,0.0067372327,-0.0831647738814354,0.029466664418578148,-1.5854109525680542,1007.5022,
2021.02.06 17:38:31,21.0,24.0,34.559998,-3.48,-35.16,-0.2681588,0.8092649,10.281016,-0.08416746,0.007903375,-0.0018148806,-0.07852591574192047,0.026076994836330414,-1.5898652076721191,1007.5039,
2021.02.06 17:38:31,21.0,24.0,34.44,-3.54,-34.739998,-0.36871833,0.7637737,9.991309,-0.040796023,-0.0037030652,0.0030720413,-0.07624372094869614,0.036887165158987045,-1.5945920944213867,1007.5039,
2021.02.06 17:38:31,21.0,24.0,34.5,-3.4199998,-34.739998,-0.41181526,0.8044763,9.90272,0.0062405993,-0.0073682563,-0.004869207,-0.08099021017551422,0.04156212508678436,-1.5854718685150146,1007.5083,
2021.02.06 17:38:31,21.0,24.0,34.38,-3.36,-34.68,-0.32083282,0.82602483,9.826104,7.428122E-4,0.001794722,-0.004869207,-0.08382268249988556,0.03263947367668152,-1.581396222114563,1007.5083,
2021.02.06 17:38:31,21.0,24.0,34.14,-2.9399998,-34.14,-0.44294083,0.8236305,9.955395,-0.022470068,0.017066352,-0.009756129,-0.08246288448572159,0.04446322098374367,-1.570664405822754,1007.50854,
2021.02.06 17:38:31,21.0,24.0,34.32,-2.76,-34.079998,-0.25379312,0.85954463,9.8787775,-0.012085358,0.014012027,0.0067372327,-0.08676213771104813,0.025685090571641922,-1.5624536275863647,1007.50854,
2021.02.06 17:38:31,21.0,24.0,34.739998,-2.6399999,-34.5,-0.35914123,0.74222517,10.1206,-0.024913529,0.026840197,-0.023195164,-0.07316111773252487,0.03547127917408943,-1.5714728832244873,1007.50806,
2021.02.06 17:38:31,21.0,24.0,34.92,-2.28,-34.559998,-0.12210801,0.7039168,11.236332,-0.09088698,-0.026915945,0.007348098,-0.0625610426068306,0.010866820812225342,-1.5734378099441528,1007.49976,
