Time,X-cord,Y-cord,Mag_x,Mag_y,Mag_z,Acc_x,Acc_y,Acc_z,Gyro_x,Gyro_y,Gyro_z,Orn_x,Orn_y,Orn_z,Pressure,
2021.02.06 17:38:45,23.0,24.0,36.0,-4.62,-39.48,-0.9481328,0.71588814,9.964972,0.027620882,0.101976626,-0.11482495,-0.07139591127634048,0.0948610007762909,-1.6193996667861938,1007.5066,
2021.02.06 17:38:45,23.0,24.0,36.42,-4.44,-39.3,0.25858167,0.6943397,10.958596,-0.056067657,-0.17474534,0.0653803,-0.06325813382863998,-0.023591862991452217,-1.62435781955719,1007.5066,
2021.02.06 17:38:45,23.0,24.0,36.899998,-4.8599997,-40.14,-0.84039044,0.99362403,8.28898,0.089318275,-0.20651034,0.07515413,-0.11870085448026657,0.10104121267795563,-1.5602586269378662,1007.4983,
2021.02.06 17:38:45,23.0,24.0,37.2,-5.4,-40.86,-0.14126222,1.0558752,9.900327,0.03556213,-0.022029022,0.08370625,-0.10623817890882492,0.014267472550272942,-1.5975831747055054,1007.5078,
2021.02.06 17:38:45,23.0,24.0,37.8,-5.7599998,-41.579998,-0.48124924,1.1540405,10.321719,-0.18801454,-0.011033448,0.07698673,-0.11122474074363708,0.04659117013216019,-1.5964398384094238,1007.5078,
2021.02.06 17:38:45,23.0,24.0,38.16,-6.24,-42.6,-0.1699935,0.9194015,10.168485,-0.1464757,0.059826918,0.0898149,-0.09015904366970062,0.0167161263525486,-1.6327369213104248,1007.5061,
2021.02.06 17:38:45,23.0,24.0,37.86,-6.18,-42.48,0.0023942748,0.7134939,10.063137,-0.06950669,0.056772593,0.09409097,-0.07078327983617783,-2.379252837272361E-4,-1.6540675163269043,1007.5061,
2021.02.06 17:38:45,23.0,24.0,37.86,-6.24,-42.78,-0.28252444,0.88588166,9.964972,-0.04934814,0.048831344,0.087982304,-0.0886310487985611,0.028344161808490753,-1.6344619989395142,1007.5056,
2021.02.06 17:38:45,23.0,24.0,38.28,-6.48,-42.96,-0.55307746,0.72785956,10.273833,-0.10738033,0.061048653,-0.006090937,-0.07062585651874542,0.05378168821334839,-1.6621859073638916,1007.50146,
2021.02.06 17:38:45,23.0,24.0,38.28,-6.48,-42.6,-0.43336374,0.6273,10.204399,-0.044461217,-0.017142102,-0.02380603,-0.06134107708930969,0.042442817240953445,-1.673596978187561,1007.50146,
2021.02.06 17:38:45,23.0,24.0,39.12,-6.72,-42.42,-0.15802214,0.56744313,10.032011,0.115585476,-0.042798437,0.033615302,-0.05649604648351669,0.01575048826634884,-1.6816489696502686,1007.5039,
2021.02.06 17:38:45,23.0,24.0,39.42,-6.8999996,-41.82,-0.4932206,0.64166564,9.804555,0.2066044,-0.06417873,0.03789136,-0.06527017056941986,0.05026287958025932,-1.6785609722137451,1007.5039,
2021.02.06 17:38:45,23.0,24.0,39.3,-6.72,-41.64,-0.44533512,0.75659084,9.924269,0.10520077,-0.0030921998,0.0036829067,-0.07601305097341537,0.04484326392412186,-1.6616792678833008,1007.5034,
2021.02.06 17:38:45,23.0,24.0,39.3,-6.7799997,-41.28,-0.18914771,0.89545876,9.991309,0.08687481,-0.02080729,-0.003036611,-0.0893690213561058,0.01892896182835102,-1.648614525794983,1007.5095,
2021.02.06 17:38:45,23.0,24.0,39.0,-7.08,-41.579998,-0.4764607,0.7901107,9.895537,0.020901365,0.018898949,-0.034801606,-0.07958430796861649,0.04811188951134682,-1.6680842638015747,1007.5095,
2021.02.06 17:38:45,23.0,24.0,38.64,-7.3199997,-42.059998,-0.33759275,0.888276,9.842864,0.04900117,-0.0018704693,-0.008534398,-0.08994927257299423,0.03428478166460991,-1.6618800163269043,1007.5117,
2021.02.06 17:38:45,23.0,24.0,38.219997,-7.3799996,-42.48,-0.4956149,0.9433443,10.005674,0.0044080038,-0.027526809,-0.039688528,-0.09388863295316696,0.04949292913079262,-1.6590728759765625,1007.5117,
2021.02.06 17:38:45,23.0,24.0,38.219997,-7.8599997,-42.84,-0.3232271,0.8284191,10.166091,-0.07866967,-0.008589987,-0.04579718,-0.08126792311668396,0.031783923506736755,-1.6859097480773926,1007.5083,
2021.02.06 17:38:45,23.0,24.0,38.399998,-7.68,-42.84,-0.36392978,0.90503585,9.653716,0.08076616,-0.028137675,-0.024416896,-0.09341081231832504,0.03768057003617287,-1.6662245988845825,1007.49756,
2021.02.06 17:38:46,23.0,24.0,38.04,-7.56,-42.719997,-0.22985038,0.888276,10.146936,0.01662531,-0.03485719,-0.008534398,-0.08729641884565353,0.022648321464657784,-1.6711652278900146,1007.49756,
2021.02.06 17:38:46,23.0,24.0,38.16,-7.62,-42.42,-0.3998439,0.8571504,9.6896305,-0.0029223792,-0.029359406,-0.008534398,-0.08815628290176392,0.041241735219955444,-1.6727087497711182,1007.50244,
2021.02.06 17:38:46,23.0,24.0,37.98,-6.96,-42.78,-0.105348095,0.8978531,9.981731,0.03861646,-0.02874854,-0.0036474764,-0.08970323950052261,0.010553698986768723,-1.6522637605667114,1007.50244,
2021.02.06 17:38:46,23.0,24.0,37.02,-6.8999996,-42.84,-0.3615355,0.86193895,10.0200405,-0.08294573,-0.008589987,-0.048851505,-0.08575472980737686,0.03606559336185455,-1.6578357219696045,1007.49634,
2021.02.06 17:38:46,23.0,24.0,36.719997,-6.6,-42.48,-0.16041641,0.87630457,9.953,-0.024913529,-0.0049247956,-0.04152112,-0.08780647069215775,0.01611599512398243,-1.6482951641082764,1007.5132,
2021.02.06 17:38:46,23.0,24.0,36.36,-6.24,-42.12,-0.3615355,0.8667275,9.979338,-0.024913529,-0.018974697,-0.02624949,-0.08657828718423843,0.03621256723999977,-1.6414334774017334,1007.5132,
2021.02.06 17:38:46,23.0,24.0,35.94,-6.0,-41.579998,-0.31125572,0.7972935,9.967366,-0.01819401,0.003627318,-0.03907766,-0.07978171110153198,0.031217332929372787,-1.6451526880264282,1007.5083,
2021.02.06 17:38:46,23.0,24.0,36.36,-5.58,-41.219997,-0.17478207,0.8379962,9.96976,0.020290501,-0.008589987,0.004293772,-0.08384386450052261,0.017529426142573357,-1.6284211874008179,1007.5083,
2021.02.06 17:38:46,23.0,24.0,36.84,-5.3399997,-41.52,-0.26337022,0.73743665,9.960183,0.013570982,0.0011838569,-0.009145264,-0.07387789338827133,0.026436148211359978,-1.6320135593414307,1007.5012,
2021.02.06 17:38:46,23.0,24.0,36.66,-5.52,-41.579998,-0.18196489,0.8547561,9.953,0.017236173,0.0024055874,-0.0042583416,-0.08565480262041092,0.018280379474163055,-1.6232879161834717,1007.5056,
2021.02.06 17:38:46,23.0,24.0,36.6,-6.0,-41.94,-0.26097596,0.7972935,10.024829,-0.01575055,0.019509813,-0.01342132,-0.07933805882930756,0.026027079671621323,-1.643431544303894,1007.5056,
2021.02.06 17:38:46,23.0,24.0,36.42,-6.06,-41.94,-0.24900457,0.90503585,9.787795,0.0062405993,0.006681644,-0.01097786,-0.09217391163110733,0.0254348274320364,-1.6298637390136719,1007.5156,
2021.02.06 17:38:46,23.0,24.0,36.059998,-6.06,-41.82,-0.28252444,0.818842,10.127783,-0.033465642,0.0103468355,-0.014643051,-0.08064433932304382,0.027888748794794083,-1.644964337348938,1007.5156,
2021.02.06 17:38:46,23.0,24.0,36.48,-6.0,-42.0,-0.2944958,0.8571504,9.909904,-0.0029223792,0.019509813,-0.017697377,-0.0862417072057724,0.029708577319979668,-1.6351178884506226,1007.5127,
2021.02.06 17:38:46,23.0,24.0,36.78,-5.94,-41.82,-0.2657645,0.818842,10.051166,-0.032854773,0.013401162,-0.011588724,-0.08125957101583481,0.0264350026845932,-1.6393375396728516,1007.5112,
2021.02.06 17:38:46,23.0,24.0,36.96,-5.7,-41.879997,-0.24900457,0.8379962,9.912297,7.428122E-4,0.009735971,-0.007312668,-0.08431404083967209,0.025115491822361946,-1.6285594701766968,1007.5112,
2021.02.06 17:38:47,23.0,24.0,37.2,-5.64,-42.059998,-0.2849187,0.81165916,10.108628,-0.010863627,0.006681644,-0.020140838,-0.08009014278650284,0.028178231790661812,-1.6311230659484863,1007.5161,
2021.02.06 17:38:47,23.0,24.0,37.02,-5.7599998,-42.239998,-0.31365,0.8284191,9.914692,-0.023080932,5.729916E-4,-0.005480072,-0.08331957459449768,0.03162432461977005,-1.6304187774658203,1007.5122,
2021.02.06 17:38:47,23.0,24.0,36.899998,-5.4,-41.94,-0.3040729,0.80687064,9.948212,0.027620882,-0.0024813346,-5.9315015E-4,-0.08089233189821243,0.03055606782436371,-1.6242237091064453,1007.5122,
2021.02.06 17:38:47,23.0,24.0,36.48,-5.8199997,-41.82,-0.33759275,0.8332076,10.079897,-0.03102218,-0.0018704693,-0.01097786,-0.08242682367563248,0.033479172736406326,-1.6351245641708374,1007.51074,
2021.02.06 17:38:47,23.0,24.0,36.42,-6.06,-41.82,-0.25139886,0.8332076,9.900327,0.02823175,-6.487389E-4,0.0049046366,-0.08393482118844986,0.025387529283761978,-1.640175223350525,1007.51074,
2021.02.06 17:38:47,23.0,24.0,36.6,-5.8199997,-41.64,-0.26337022,0.84996754,9.830893,0.002575408,-0.0037030652,-0.002425746,-0.08621358871459961,0.02678365632891655,-1.6307660341262817,1007.5144,
2021.02.06 17:38:47,23.0,24.0,36.66,-5.94,-42.12,-0.3998439,0.81165916,10.024829,-0.0078093014,0.0048490483,-0.0018148806,-0.08072476834058762,0.039864227175712585,-1.639613151550293,1007.5144,
2021.02.06 17:38:47,23.0,24.0,36.96,-5.46,-42.3,-0.2681588,0.8786988,9.972155,-0.02735699,0.007903375,-0.007312668,-0.08785665035247803,0.026884278282523155,-1.616605281829834,1007.5117,
2021.02.06 17:38:47,23.0,24.0,37.5,-4.8599997,-42.42,-0.2753416,0.75659084,10.127783,-0.00414411,0.0030164525,0.014067615,-0.07453853636980057,0.027180064469575882,-1.6151556968688965,1007.5127,
2021.02.06 17:38:47,23.0,24.0,37.32,-5.1,-42.36,-0.13647367,0.8475733,9.869201,0.0037971383,-0.005535661,0.008569829,-0.08566228300333023,0.01382735837250948,-1.6092541217803955,1007.5127,
2021.02.06 17:38:47,23.0,24.0,37.38,-5.1,-42.12,-0.31125572,0.7709565,10.010463,0.01662531,0.010957701,0.0049046366,-0.07682636380195618,0.03108302690088749,-1.6197023391723633,1007.51733,
2021.02.06 17:38:47,23.0,24.0,37.44,-5.58,-42.12,-0.31843856,0.749408,9.976943,1.3194689E-4,0.024396736,-0.007312668,-0.074935182929039,0.0319066159427166,-1.6351029872894287,1007.51733,
2021.02.06 17:38:47,23.0,24.0,37.2,-6.0,-41.879997,-0.22506183,0.7972935,9.909904,0.0013536774,-0.0037030652,0.015289347,-0.08026068657636642,0.0227068942040205,-1.6412138938903809,1007.51025,
2021.02.06 17:38:47,23.0,24.0,36.66,-5.58,-41.28,-0.28970724,0.8356019,9.9889145,0.020290501,-0.0073682563,0.014678481,-0.08342369645833969,0.028994746506214142,-1.6281063556671143,1007.5132,
2021.02.06 17:38:47,23.0,24.0,36.18,-5.22,-40.68,-0.20351335,0.85236186,9.953,0.011127521,0.009125105,0.0036829067,-0.08541247993707657,0.020444588735699654,-1.6179656982421875,1007.5132,
2021.02.06 17:38:47,23.0,24.0,35.16,-5.04,-40.2,-0.35674694,0.8236305,9.967366,0.005018869,0.0030164525,0.018954538,-0.08239289373159409,0.03577622398734093,-1.6186259984970093,1007.51685,
2021.02.06 17:38:47,23.0,24.0,34.68,-4.8599997,-39.84,-0.27055305,0.89545876,10.000886,-0.0059767053,0.0011838569,0.017732807,-0.0892673209309578,0.027046313509345055,-1.6067038774490356,1007.51685,
2021.02.06 17:38:48,23.0,24.0,35.1,-4.62,-40.02,-0.28013015,0.8930645,9.917087,0.0062405993,-0.0067573916,0.015289347,-0.08977523446083069,0.028239713981747627,-1.598059892654419,1007.51587,
2021.02.06 17:38:48,23.0,24.0,35.16,-4.8599997,-39.6,-0.30167863,0.8978531,9.998491,0.012349252,-6.487389E-4,0.007348098,-0.08951812237501144,0.030163265764713287,-1.6063388586044312,1007.51587,
2021.02.06 17:38:48,23.0,24.0,35.46,-4.68,-39.239998,-0.43336374,0.8547561,9.900327,-0.0053658406,-0.011644313,-0.006090937,-0.08604060113430023,0.04374474659562111,-1.6052111387252808,1007.51587,
2021.02.06 17:38:48,23.0,24.0,34.98,-4.7999997,-38.879997,-0.2657645,0.9217958,9.964972,0.011127521,-0.0073682563,0.0049046366,-0.09220850467681885,0.02666354924440384,-1.603645920753479,1007.50806,
2021.02.06 17:38:48,23.0,24.0,34.62,-5.3399997,-38.64,-0.21548474,0.9026416,10.099051,-0.037130833,-0.011033448,0.02628492,-0.08912179619073868,0.021333888173103333,-1.6244548559188843,1007.50806,
2021.02.06 17:38:48,23.0,24.0,34.62,-5.22,-39.36,-0.2657645,0.86193895,9.70639,0.02273396,-0.008589987,0.014067615,-0.0885358527302742,0.027373524382710457,-1.6195756196975708,1007.5073,
2021.02.06 17:38:48,23.0,24.0,34.68,-5.2799997,-39.239998,-0.29689008,0.9601042,10.142148,-0.033465642,-6.487389E-4,-0.009756129,-0.09434334933757782,0.02926454320549965,-1.614506483078003,1007.5049,
2021.02.06 17:38:48,23.0,24.0,34.98,-4.98,-39.48,-0.31365,0.91700727,9.981731,-0.048737273,-0.0030921998,-0.012810456,-0.09156646579504013,0.031412072479724884,-1.6078600883483887,1007.5049,
2021.02.06 17:38:48,23.0,24.0,35.04,-4.56,-39.719997,-0.2083019,0.8571504,9.835681,0.022123097,-0.007979122,-0.0018148806,-0.0869080200791359,0.021175023168325424,-1.6009564399719238,1007.5027,
2021.02.06 17:38:48,23.0,24.0,34.86,-4.56,-39.42,-0.2944958,0.7996878,9.981731,0.027010018,-0.0049247956,-0.0042583416,-0.07990977168083191,0.02949492260813713,-1.6099085807800293,1007.5027,
2021.02.06 17:38:48,23.0,24.0,34.8,-4.8599997,-39.6,-0.21548474,0.84996754,9.814133,-0.0218592,0.001794722,-0.006701803,-0.08637019991874695,0.021953046321868896,-1.6108900308609009,1007.5034,
2021.02.06 17:38:48,23.0,24.0,34.68,-5.3399997,-39.719997,-0.31604427,0.8643332,10.146936,0.011127521,0.004238183,-0.008534398,-0.08493557572364807,0.03113670088350773,-1.626419186592102,1007.50806,
2021.02.06 17:38:48,23.0,24.0,35.16,-5.64,-39.899998,-0.27294734,0.81644773,9.821315,-0.008420167,0.0048490483,-0.029303815,-0.08290762454271317,0.02778417244553566,-1.6364164352416992,1007.50806,
2021.02.06 17:38:48,23.0,24.0,35.46,-5.8799996,-40.2,-0.2777359,0.7901107,9.96976,0.050222896,-0.0024813346,-0.008534398,-0.07905489206314087,0.027850627899169922,-1.6466896533966064,1007.5066,
2021.02.06 17:38:48,23.0,24.0,35.46,-5.22,-40.44,-0.26097596,0.84996754,10.024829,-0.020637471,0.008514239,-0.01097786,-0.08455542474985123,0.026027079671621323,-1.6204485893249512,1007.5066,
2021.02.06 17:38:48,23.0,24.0,35.7,-5.04,-40.26,-0.32801566,0.8643332,10.034406,-0.015139685,0.014622892,-0.004869207,-0.08587922155857086,0.032677460461854935,-1.6135449409484863,1007.5105,
2021.02.06 17:38:48,23.0,24.0,35.46,-4.98,-39.899998,-0.3232271,0.82123625,9.974549,-0.010863627,0.0048490483,-0.006701803,-0.08210498094558716,0.03239384666085243,-1.617569923400879,1007.5171,
2021.02.06 17:38:49,23.0,24.0,35.28,-4.62,-39.54,-0.23224466,0.8092649,9.905115,0.008073196,0.0030164525,0.0079589635,-0.08149835467338562,0.023442646488547325,-1.6091936826705933,1007.5171,
2021.02.06 17:38:49,23.0,24.0,35.399998,-5.16,-39.66,-0.30646718,0.87630457,10.151725,-0.023691798,0.0024055874,-0.006090937,-0.086068294942379,0.03017951361835003,-1.6187708377838135,1007.5261,
2021.02.06 17:38:49,23.0,24.0,35.399998,-5.04,-39.78,-0.33759275,0.8379962,9.921875,0.027620882,-0.0037030652,0.01101329,-0.08421097695827484,0.034011974930763245,-1.6171051263809204,1007.5261,
2021.02.06 17:38:49,23.0,24.0,35.1,-4.92,-40.44,-0.2849187,0.82123625,9.883567,0.014181848,-0.0037030652,0.0067372327,-0.0828663781285286,0.028819534927606583,-1.614209532737732,1007.5249,
2021.02.06 17:38:49,23.0,24.0,35.34,-5.2799997,-40.739998,-0.28731298,0.8332076,9.929058,0.005629734,-0.009811718,0.0067372327,-0.08368505537509918,0.02892850898206234,-1.6226478815078735,1007.51904,
2021.02.06 17:38:49,23.0,24.0,35.28,-4.92,-40.5,-0.2561874,0.84039044,10.024829,7.428122E-4,0.001794722,0.0067372327,-0.08360817283391953,0.02554972842335701,-1.6130236387252808,1007.51904,
2021.02.06 17:38:49,23.0,24.0,35.28,-4.68,-40.14,-0.2849187,0.8547561,9.909904,0.002575408,-3.7873644E-5,-0.005480072,-0.08600440621376038,0.028742987662553787,-1.6038832664489746,1007.52246,
2021.02.06 17:38:49,23.0,24.0,35.46,-5.16,-40.079998,-0.2466103,0.85236186,9.871595,0.008684061,0.0054599135,0.0024611761,-0.08610454201698303,0.024976613000035286,-1.6177599430084229,1007.52246,
2021.02.06 17:38:49,23.0,24.0,35.34,-4.7999997,-40.2,-0.2753416,0.8284191,10.075109,-0.013917954,0.0030164525,6.2858034E-4,-0.08200929313898087,0.02732209675014019,-1.612052083015442,1007.51587,
2021.02.06 17:38:49,23.0,24.0,35.16,-5.46,-40.379997,-0.27294734,0.8379962,9.893144,-0.017583145,0.001794722,-0.005480072,-0.08447103947401047,0.027582550421357155,-1.6281228065490723,1007.5166,
2021.02.06 17:38:49,23.0,24.0,35.1,-5.16,-40.559998,-0.24421602,0.82602483,9.953,-0.0017006488,0.006681644,-0.007923533,-0.08277798444032669,0.024532005190849304,-1.6211580038070679,1007.5166,
2021.02.06 17:38:49,23.0,24.0,34.98,-4.38,-40.079998,-0.19154198,0.86912173,10.051166,-0.025524393,-0.0012596041,-0.0042583416,-0.08623961359262466,0.019054386764764786,-1.5957763195037842,1007.5034,
2021.02.06 17:38:49,23.0,24.0,34.8,-4.74,-39.54,-0.28013015,0.7972935,9.909904,-0.00414411,-0.0018704693,-0.0036474764,-0.0802493765950203,0.02826017141342163,-1.614652395248413,1007.5034,
2021.02.06 17:38:49,23.0,24.0,34.8,-4.5,-39.0,-0.27294734,0.818842,10.005674,-0.0078093014,0.0060707787,-0.008534398,-0.0816255658864975,0.02727249078452587,-1.6072224378585815,1007.5027,
2021.02.06 17:38:49,23.0,24.0,34.739998,-4.8599997,-38.879997,-0.2944958,0.8140534,10.017646,-0.02735699,0.012179431,-0.016475648,-0.08104892075061798,0.029389239847660065,-1.618850588798523,1007.5049,
2021.02.06 17:38:49,23.0,24.0,35.16,-4.7999997,-38.7,-0.2944958,0.7709565,9.945818,0.005629734,0.004238183,-0.01219959,-0.077327199280262,0.029601363465189934,-1.621254563331604,1007.5049,
2021.02.06 17:38:50,23.0,24.0,34.92,-4.3199997,-39.0,-0.2777359,0.8140534,9.948212,-0.0059767053,0.0024055874,-0.0042583416,-0.08161554485559464,0.027910921722650528,-1.601773977279663,1007.5093,
2021.02.06 17:38:50,23.0,24.0,35.219997,-4.2,-39.36,-0.35914123,0.74701375,9.979338,-0.008420167,5.729916E-4,-0.006090937,-0.0746685341000557,0.035972960293293,-1.6051056385040283,1007.5156,
2021.02.06 17:38:50,23.0,24.0,35.16,-4.56,-39.6,-0.24182175,0.82602483,9.991309,0.010516656,-6.487389E-4,-0.0012040153,-0.08246269822120667,0.024198485538363457,-1.6062744855880737,1007.5156,
2021.02.06 17:38:50,23.0,24.0,34.92,-5.1,-40.079998,-0.28731298,0.7948992,10.039194,-0.020026606,-0.0043139304,0.0024611761,-0.07898252457380295,0.0286113191395998,-1.6253716945648193,1007.5127,
2021.02.06 17:38:50,23.0,24.0,34.98,-5.22,-39.96,-0.28731298,0.7685622,9.869201,-0.0029223792,-0.0043139304,-0.0018148806,-0.07768517732620239,0.02910386212170124,-1.6306434869766235,1007.5127,
2021.02.06 17:38:50,23.0,24.0,34.92,-4.7999997,-39.78,-0.23942748,0.77574503,10.161303,-0.018804876,-6.487389E-4,-5.9315015E-4,-0.07617422193288803,0.023558316752314568,-1.6207071542739868,1007.5171,
2021.02.06 17:38:50,23.0,24.0,35.46,-4.68,-39.6,-0.25139886,0.7350424,9.893144,-0.025524393,0.001794722,-0.007923533,-0.07413805276155472,0.02540595456957817,-1.6191924810409546,1007.5171,
2021.02.06 17:38:50,23.0,24.0,35.04,-4.68,-39.18,-0.24421602,0.7589851,9.933846,0.015403578,0.0048490483,-5.9315015E-4,-0.07623285055160522,0.024579284712672234,-1.6182504892349243,1007.51636,
2021.02.06 17:38:50,23.0,24.0,35.28,-4.92,-39.059998,-0.30886146,0.71828246,10.113417,-0.032854773,0.001794722,-0.006701803,-0.07087073475122452,0.030530285090208054,-1.6313828229904175,1007.5105,
2021.02.06 17:38:50,23.0,24.0,34.92,-5.1,-39.42,-0.28970724,0.7589851,9.876384,0.014181848,0.0011838569,-0.0012040153,-0.07666489481925964,0.02932492271065712,-1.6296550035476685,1007.5105,
2021.02.06 17:38:50,23.0,24.0,34.14,-4.92,-39.54,-0.29928434,0.76137936,9.948212,0.0037971383,0.001794722,-0.009756129,-0.07635096460580826,0.030075162649154663,-1.6257797479629517,1007.5117,
2021.02.06 17:38:50,23.0,24.0,34.26,-4.38,-39.96,-0.31125572,0.7110996,10.0368,-0.0078093014,0.001794722,-0.015864782,-0.07069716602563858,0.031001513823866844,-1.615387201309204,1007.5117,
2021.02.06 17:38:50,23.0,24.0,34.2,-3.9599998,-40.14,-0.23463893,0.72546524,10.05356,0.011127521,0.0030164525,-0.008534398,-0.07201563566923141,0.023334652185440063,-1.6010057926177979,1007.51465,
2021.02.06 17:38:50,23.0,24.0,34.44,-4.14,-40.079998,-0.3423813,0.7134939,9.957788,-0.013917954,0.0011838569,-0.009145264,-0.07148749381303787,0.03436972573399544,-1.6066079139709473,1007.5112,
2021.02.06 17:38:50,23.0,24.0,34.739998,-4.02,-40.079998,-0.2777359,0.723071,10.060742,0.005629734,0.0048490483,-0.007923533,-0.0717199444770813,0.027598895132541656,-1.6026109457015991,1007.5112,
2021.02.06 17:38:50,23.0,24.0,34.8,-4.74,-40.14,-0.29928434,0.69673395,10.041589,-0.010252762,0.0024055874,-0.02380603,-0.06924315541982651,0.029795659705996513,-1.626737117767334,1007.51514,
2021.02.06 17:38:50,23.0,24.0,34.8,-4.74,-40.02,-0.33759275,0.7446195,9.816526,0.012349252,-0.0030921998,-0.01219959,-0.07566411793231964,0.03437669947743416,-1.619035243988037,1007.51514,
2021.02.06 17:38:51,23.0,24.0,34.739998,-4.68,-40.079998,-0.29689008,0.7134939,10.125388,0.008073196,-0.007979122,-0.01219959,-0.07031942903995514,0.02931295335292816,-1.623861312866211,1007.5171,
2021.02.06 17:38:51,23.0,24.0,34.559998,-4.38,-40.079998,-0.32083282,0.74222517,9.893144,-0.020637471,-0.009200852,-0.018919107,-0.07484471052885056,0.03241845220327377,-1.60953950881958,1007.5188,
2021.02.06 17:38:51,23.0,24.0,34.559998,-4.02,-39.54,-0.22745611,0.7326481,9.984126,0.017847039,-0.006146526,0.010402424,-0.07323107123374939,0.02277783304452896,-1.6022688150405884,1007.5188,
2021.02.06 17:38:51,23.0,24.0,34.2,-4.02,-39.48,-0.33759275,0.6943397,9.950606,-0.0218592,-0.0073682563,0.0079589635,-0.06962578743696213,0.03391384333372116,-1.6068494319915771,1007.5193,
2021.02.06 17:38:51,23.0,24.0,34.32,-3.84,-39.6,-0.22266756,0.76137936,10.032011,-0.0029223792,-0.009200852,0.02506319,-0.07573118805885315,0.022192060947418213,-1.5940035581588745,1007.5193,
2021.02.06 17:38:51,23.0,24.0,34.5,-4.5,-39.48,-0.27055305,0.7302538,9.981731,-0.032854773,-0.011644313,0.029339246,-0.07300221920013428,0.027098188176751137,-1.6168867349624634,1007.51074,
2021.02.06 17:38:51,23.0,24.0,34.2,-4.2599998,-39.66,-0.22745611,0.75659084,9.926663,0.009905791,-0.009811718,0.033004437,-0.07605108618736267,0.02290964312851429,-1.6061056852340698,1007.51587,
2021.02.06 17:38:51,23.0,24.0,34.32,-4.5,-39.54,-0.17957062,0.749408,9.998491,-0.035909105,-0.0024813346,0.014067615,-0.07480020076036453,0.017957840114831924,-1.6150174140930176,1007.51587,
2021.02.06 17:38:51,23.0,24.0,34.02,-4.62,-39.059998,-0.31365,0.6344828,10.067925,-0.017583145,0.0054599135,0.0061263675,-0.06290653347969055,0.031143318861722946,-1.6344529390335083,1007.5144,
2021.02.06 17:38:51,23.0,24.0,33.899998,-4.44,-38.76,-0.062251143,0.7398309,10.055954,-0.012696223,-0.0037030652,0.014067615,-0.07343771308660507,0.006190396845340729,-1.6173707246780396,1007.5144,
2021.02.06 17:38:51,23.0,24.0,34.5,-4.92,-38.579998,-0.3423813,0.6081458,9.948212,-0.0065875705,0.017066352,-0.009145264,-0.06101914867758751,0.03440278768539429,-1.645679235458374,1007.5122,
2021.02.06 17:38:51,23.0,24.0,34.62,-4.5,-38.579998,-0.21309046,0.7302538,9.842864,0.002575408,0.016455488,-0.01342132,-0.07403822243213654,0.02164585143327713,-1.6175140142440796,1007.51514,
2021.02.06 17:38:51,23.0,24.0,34.8,-4.62,-38.76,-0.27055305,0.63208854,10.108628,-0.04751554,0.024396736,-0.020751704,-0.06242600828409195,0.02675817906856537,-1.6339917182922363,1007.51514,
2021.02.06 17:38:51,23.0,24.0,34.92,-4.62,-39.18,-0.30886146,0.679974,9.943423,0.0031862732,0.0250076,-0.039688528,-0.06824517995119095,0.03105190023779869,-1.6260979175567627,1007.51636,
2021.02.06 17:38:51,23.0,24.0,34.68,-4.14,-39.42,-0.33759275,0.5913859,10.130177,-0.0023115142,0.014622892,-0.03419074,-0.05828017368912697,0.03331312909722328,-1.6238492727279663,1007.51636,
2021.02.06 17:38:51,23.0,24.0,34.68,-4.02,-40.02,-0.0071828244,0.69194543,11.253092,-0.023691798,-0.022029022,-0.015864782,-0.0614120289683342,6.382977589964867E-4,-1.6156349182128906,1007.5198,
