Time,X-cord,Y-cord,Mag_x,Mag_y,Mag_z,Acc_x,Acc_y,Acc_z,Gyro_x,Gyro_y,Gyro_z,Orn_x,Orn_y,Orn_z,Pressure,
2021.02.06 17:42:04,42.0,24.0,22.68,0.48,-25.26,-0.47167215,0.749408,9.500483,0.20538267,0.07509855,0.008569829,-0.07862161099910736,0.04960644990205765,-1.4522706270217896,1007.53564,
2021.02.06 17:42:04,42.0,24.0,23.64,-0.12,-26.46,-0.42139238,0.66321415,9.950606,0.1467396,-0.09472199,0.06476943,-0.06649277359247208,0.042323123663663864,-1.495237946510315,1007.53564,
2021.02.06 17:42:04,42.0,24.0,24.119999,-0.35999998,-27.48,-0.55307746,0.9194015,9.953,0.022123097,-0.036689788,0.056828182,-0.09197182208299637,0.055511824786663055,-1.4698747396469116,1007.5403,
2021.02.06 17:42:04,42.0,24.0,25.08,-0.9,-28.74,-0.35674694,0.75659084,10.094262,0.025177421,-0.05440488,0.05194126,-0.07476617395877838,0.03532685339450836,-1.5162078142166138,1007.5403,
2021.02.06 17:42:04,42.0,24.0,26.4,-1.56,-29.76,-0.076616794,0.8356019,9.821315,0.051444627,-0.10571756,0.12341249,-0.0848734900355339,0.007800914812833071,-1.533140778541565,1007.5476,
2021.02.06 17:42:04,42.0,24.0,26.039999,-1.8,-30.0,-0.18914771,0.6488485,9.802161,0.07038145,-0.056237478,0.09470183,-0.06608573347330093,0.01929413713514805,-1.562238097190857,1007.5447,
2021.02.06 17:42:04,42.0,24.0,26.699999,-2.3999999,-30.72,-0.016759925,0.723071,9.668081,0.038005594,-0.038522385,0.033615302,-0.07465041428804398,0.0017335298471152782,-1.574501633644104,1007.5447,
2021.02.06 17:42:04,42.0,24.0,26.58,-2.76,-30.72,-0.090982445,0.6344828,9.838076,0.012960117,-0.064789586,-5.9315015E-4,-0.06440063565969467,0.009247728623449802,-1.5997493267059326,1007.54736,
2021.02.06 17:42:04,42.0,24.0,26.16,-2.8799999,-31.38,-0.15323359,0.8236305,9.8237095,-0.05667852,-0.017142102,-0.09039034,-0.08363533765077591,0.015597077086567879,-1.579162836074829,1007.54736,
2021.02.06 17:42:04,42.0,24.0,26.279999,-2.6399999,-31.08,-0.5219519,0.9816527,10.156514,-0.07072842,0.028672792,-0.08794688,-0.09622703492641449,0.05134567990899086,-1.5511646270751953,1007.5498,
2021.02.06 17:42:04,42.0,24.0,25.56,-2.1599998,-30.3,-0.5650489,1.0271438,10.084685,-0.05912198,0.009125105,-0.10810543,-0.10134396702051163,0.05597187206149101,-1.5264846086502075,1007.54004,
2021.02.06 17:42:04,42.0,24.0,25.68,-2.34,-30.42,-0.34956414,0.82123625,9.672871,0.040449053,0.0030164525,0.0030720413,-0.08464287966489792,0.036122895777225494,-1.5578975677490234,1007.54004,
2021.02.06 17:42:05,42.0,24.0,25.92,-2.3999999,-30.119999,-0.31604427,0.89545876,10.005674,-0.018804876,0.010957701,0.02261973,-0.0892130434513092,0.0315760038793087,-1.5561858415603638,1007.5337,
2021.02.06 17:42:05,42.0,24.0,25.8,-2.04,-30.42,-0.33519846,0.80687064,10.180456,-0.1202085,0.019509813,0.034226168,-0.07904884219169617,0.03291379287838936,-1.5532764196395874,1007.5337,
2021.02.06 17:42:05,42.0,24.0,26.279999,-1.86,-30.48,-0.46927786,0.6081458,10.281016,-0.11593245,0.012179431,0.0354479,-0.059022143483161926,0.045613422989845276,-1.5703939199447632,1007.5276,
2021.02.06 17:42:05,42.0,24.0,26.279999,-1.38,-30.42,-0.3519584,0.6703969,9.684841,0.039838187,5.729916E-4,-5.9315015E-4,-0.06906557083129883,0.036325179040431976,-1.5395210981369019,1007.53,
2021.02.06 17:42:05,42.0,24.0,25.8,-1.14,-30.06,-0.24900457,0.6464542,9.974549,0.040449053,0.010957701,0.02384146,-0.06469975411891937,0.024958807975053787,-1.536988615989685,1007.53,
2021.02.06 17:42:05,42.0,24.0,25.98,-1.62,-30.0,-0.43336374,0.6943397,10.058349,-0.0957739,0.0054599135,-0.020140838,-0.06885816156864166,0.043058350682258606,-1.5495957136154175,1007.53125,
2021.02.06 17:42:05,42.0,24.0,25.68,-1.74,-30.3,-0.28252444,0.6751855,10.0368,0.0019645425,-0.0030921998,-0.010366994,-0.0671432763338089,0.02814142405986786,-1.5569154024124146,1007.53125,
2021.02.06 17:42:05,42.0,24.0,25.5,-1.86,-30.779999,-0.32801566,0.70870537,10.125388,-0.021248337,0.0024055874,-0.017697377,-0.06984242796897888,0.03238404169678688,-1.556545376777649,1007.5259,
2021.02.06 17:42:05,42.0,24.0,25.8,-1.74,-31.14,-0.3423813,0.6703969,10.041589,0.008073196,-0.009200852,-0.028692951,-0.06662450730800629,0.03408312425017357,-1.5548479557037354,1007.5303,
2021.02.06 17:42:05,42.0,24.0,25.8,-1.14,-30.96,-0.37829542,0.6895511,9.890749,0.05755328,-0.0012596041,-0.007923533,-0.06955346465110779,0.03822876513004303,-1.5268634557724,1007.5303,
2021.02.06 17:42:05,42.0,24.0,25.8,-1.0799999,-30.42,-0.29210153,0.67757976,10.051166,0.009905791,-0.0067573916,-0.009145264,-0.06728288531303406,0.029053281992673874,-1.5299776792526245,1007.53296,
2021.02.06 17:42:05,42.0,24.0,25.98,-0.84,-29.939999,-0.41420954,0.7134939,9.957788,0.0031862732,-0.008589987,-0.020140838,-0.07146801054477692,0.04157257452607155,-1.5152021646499634,1007.53564,
2021.02.06 17:42:05,42.0,24.0,25.859999,-0.65999997,-29.76,-0.30886146,0.6943397,9.835681,0.028842613,-0.017752966,0.0018503108,-0.07044243067502975,0.031391825526952744,-1.51096510887146,1007.53564,
2021.02.06 17:42:05,42.0,24.0,25.439999,-1.14,-29.699999,-0.39266106,0.6895511,10.0439825,-0.01819401,0.008514239,0.0024611761,-0.06849344074726105,0.039074260741472244,-1.5311721563339233,1007.5425,
2021.02.06 17:42:05,42.0,24.0,25.5,-1.38,-30.179998,-0.30167863,0.7110996,9.953,-0.03224391,0.008514239,-0.015253915,-0.07129193097352982,0.0303010456264019,-1.5371426343917847,1007.5425,
2021.02.06 17:42:05,42.0,24.0,25.199999,-1.5,-30.48,-0.34956414,0.6560313,9.976943,0.020901365,0.0048490483,-0.003036611,-0.0656200721859932,0.03502286970615387,-1.547641634941101,1007.5481,
2021.02.06 17:42:05,42.0,24.0,25.08,-1.56,-30.539999,-0.3423813,0.71588814,9.967366,0.024566557,-0.0030921998,0.0036829067,-0.07165796309709549,0.03433672711253166,-1.5420360565185547,1007.5481,
2021.02.06 17:42:06,42.0,24.0,25.439999,-1.38,-30.66,-0.3040729,0.7302538,10.017646,-4.7891834E-4,0.013401162,-0.009145264,-0.07273465394973755,0.030344411730766296,-1.533798336982727,1007.5542,
2021.02.06 17:42:06,42.0,24.0,25.08,-1.38,-30.66,-0.3974496,0.6943397,9.957788,0.012960117,0.007292509,-0.01219959,-0.06956040859222412,0.03989226371049881,-1.5363192558288574,1007.5454,
2021.02.06 17:42:06,42.0,24.0,25.14,-1.38,-30.48,-0.3974496,0.7110996,9.914692,0.016014442,0.0054599135,-0.018919107,-0.07154194265604019,0.04006548225879669,-1.5343046188354492,1007.5454,
2021.02.06 17:42:06,42.0,24.0,25.38,-1.38,-30.359999,-0.45730647,0.75180227,9.885961,0.0044080038,-0.0012596041,-5.9315015E-4,-0.07582060992717743,0.04622522369027138,-1.5286478996276855,1007.55347,
2021.02.06 17:42:06,42.0,24.0,25.56,-1.1999999,-30.48,-0.35674694,0.66321415,9.847652,0.0044080038,0.004238183,0.0036829067,-0.06720193475484848,0.036210764199495316,-1.5335677862167358,1007.55347,
2021.02.06 17:42:06,42.0,24.0,26.099998,-1.0799999,-30.84,-0.3902668,0.66800267,10.0200405,-0.06217631,0.007292509,0.0067372327,-0.06651787459850311,0.03892894834280014,-1.5290900468826294,1007.54956,
2021.02.06 17:42:06,42.0,24.0,25.98,-0.96,-30.72,-0.6344828,0.66800267,9.941029,-0.079891406,0.003627318,0.0055155023,-0.06695982813835144,0.06373821198940277,-1.5206031799316406,1007.552,
2021.02.06 17:42:06,42.0,24.0,26.34,-1.0799999,-30.42,-0.2083019,0.6943397,10.309748,-0.0939413,-0.031802867,0.040945686,-0.0672326534986496,0.02020161598920822,-1.5318796634674072,1007.552,
2021.02.06 17:42:06,42.0,24.0,25.8,-1.38,-30.779999,-0.3328042,0.6392714,9.792584,0.059385877,-0.043409307,0.054384723,-0.0651511698961258,0.033972255885601044,-1.5432056188583374,1007.54517,
2021.02.06 17:42:06,42.0,24.0,25.619999,-1.14,-30.3,-0.2370332,0.69673395,9.981731,-0.020637471,-0.0024813346,-0.003036611,-0.06966830044984818,0.02374223992228508,-1.530095100402832,1007.54517,
2021.02.06 17:42:06,42.0,24.0,25.8,-1.0799999,-30.72,-0.35435268,0.6273,10.204399,-0.045682944,-0.011644313,-0.017086511,-0.06135934218764305,0.03471153602004051,-1.536035418510437,1007.5442,
2021.02.06 17:42:06,42.0,24.0,25.14,-0.78,-31.679998,-0.36871833,0.57223165,9.953,0.0013536774,-0.0049247956,-0.006701803,-0.05739087983965874,0.03702901676297188,-1.5252925157546997,1007.5486,
2021.02.06 17:42:06,42.0,24.0,25.439999,-0.65999997,-31.32,-0.22266756,0.6488485,9.876384,0.04472511,-0.010422583,-0.0036474764,-0.06558607518672943,0.022541634738445282,-1.5129836797714233,1007.5486,
2021.02.06 17:42:06,42.0,24.0,25.5,-0.9,-31.8,-0.2657645,0.6081458,10.008069,0.037394725,-0.017142102,-0.029303815,-0.06066958233714104,0.026548784226179123,-1.5274051427841187,1007.5576,
2021.02.06 17:42:06,42.0,24.0,25.14,-0.84,-31.8,-0.22506183,0.65363705,9.850046,0.02823175,-0.015309504,-0.032358143,-0.06624438613653183,0.022844834253191948,-1.5174059867858887,1007.5576,
2021.02.06 17:42:06,42.0,24.0,25.26,-0.71999997,-31.32,-0.24421602,0.6201172,10.017646,-0.0035332446,0.0024055874,-0.018919107,-0.06180528551340103,0.02437375672161579,-1.5196619033813477,1007.5603,
2021.02.06 17:42:07,42.0,24.0,25.199999,-0.71999997,-31.439999,-0.30167863,0.6368771,10.192428,-0.030411316,-0.0018704693,-0.021973435,-0.06237694248557091,0.029589669778943062,-1.5177981853485107,1007.5559,
2021.02.06 17:42:07,42.0,24.0,24.6,-0.35999998,-30.42,-0.2466103,0.7326481,9.883567,0.032507803,-0.010422583,-0.006701803,-0.07396963983774185,0.02494637295603752,-1.4898386001586914,1007.5559,
2021.02.06 17:42:07,42.0,24.0,24.42,-0.17999999,-30.0,-0.3040729,0.6895511,10.0200405,0.058775008,-0.01836383,0.0012394455,-0.06867735087871552,0.03033716231584549,-1.488890290260315,1007.55396,
2021.02.06 17:42:07,42.0,24.0,23.88,-0.12,-29.88,-0.2777359,0.69194543,10.000886,-0.013307089,0.0054599135,-0.026860354,-0.06905177980661392,0.02776399254798889,-1.484778881072998,1007.55493,
2021.02.06 17:42:07,42.0,24.0,23.34,0.17999999,-29.519999,-0.17238778,0.6344828,9.792584,0.044114247,-0.007979122,-0.009145264,-0.06469173729419708,0.017602091655135155,-1.478398084640503,1007.55493,
2021.02.06 17:42:07,42.0,24.0,23.22,0.06,-29.16,-0.31125572,0.71588814,10.139753,-0.004754975,-0.0018704693,-0.016475648,-0.07045208662748337,0.030686940997838974,-1.4742220640182495,1007.54663,
2021.02.06 17:42:07,42.0,24.0,23.16,-0.35999998,-28.92,-0.34477556,0.6943397,9.945818,0.021512229,0.007292509,-0.012810456,-0.06965743750333786,0.0346515029668808,-1.4938009977340698,1007.54663,
2021.02.06 17:42:07,42.0,24.0,23.46,-0.29999998,-28.92,-0.24182175,0.7709565,9.840469,0.024566557,-0.0018704693,0.015900211,-0.0781622976064682,0.02456926368176937,-1.4829328060150146,1007.5425,
2021.02.06 17:42:07,42.0,24.0,23.4,-0.48,-28.8,-0.117319465,0.7781393,10.024829,0.0037971383,-0.0037030652,6.2858034E-4,-0.07746059447526932,0.011702354997396469,-1.4941469430923462,1007.54443,
2021.02.06 17:42:07,42.0,24.0,23.58,-0.48,-29.099998,-0.40223816,0.7446195,10.0439825,-0.0035332446,5.729916E-4,-0.016475648,-0.07394145429134369,0.040026284754276276,-1.493304967880249,1007.54443,
2021.02.06 17:42:07,42.0,24.0,23.64,-0.42,-29.099998,-0.24900457,0.75659084,9.818921,0.025177421,-0.0037030652,-0.003036611,-0.07687780261039734,0.025354232639074326,-1.4896680116653442,1007.5408,
2021.02.06 17:42:07,42.0,24.0,23.34,-0.24,-28.68,-0.23942748,0.73743665,10.022434,0.04350338,0.001794722,0.0018503108,-0.07342538237571716,0.023884611204266548,-1.486886978149414,1007.5408,
2021.02.06 17:42:07,42.0,24.0,23.22,-0.06,-28.5,-0.27294734,0.7637737,10.010463,-0.020026606,0.0048490483,-0.011588724,-0.07612182199954987,0.027259452268481255,-1.4750385284423828,1007.5437,
2021.02.06 17:42:07,42.0,24.0,23.039999,-0.06,-28.439999,-0.28013015,0.7589851,9.826104,0.019679634,-6.487389E-4,-0.009145264,-0.07705745846033096,0.028501048684120178,-1.4730368852615356,1007.5437,
2021.02.06 17:42:07,42.0,24.0,22.8,0.17999999,-28.439999,-0.21069619,0.7134939,10.161303,-0.026135258,0.011568567,-0.010366994,-0.07008669525384903,0.020732184872031212,-1.4718717336654663,1007.5498,
2021.02.06 17:42:07,42.0,24.0,23.039999,-0.29999998,-28.38,-0.2944958,0.7326481,9.794978,-0.016972281,0.009735971,6.2858034E-4,-0.07462570816278458,0.030056942254304886,-1.4867883920669556,1007.5464,
2021.02.06 17:42:07,42.0,24.0,23.16,-0.65999997,-28.619999,-0.409421,0.6751855,10.151725,-0.007198436,0.0103468355,-0.007312668,-0.06635783612728119,0.04030834510922432,-1.5117613077163696,1007.5464,
2021.02.06 17:42:08,42.0,24.0,23.519999,-0.29999998,-28.92,-0.30167863,0.7853221,10.091868,-0.01819401,-0.0024813346,-0.0012040153,-0.07762627303600311,0.02988433837890625,-1.482833743095398,1007.5498,
2021.02.06 17:42:08,42.0,24.0,23.76,-0.48,-28.92,-0.21548474,0.6943397,9.981731,0.027620882,-0.005535661,0.019565403,-0.0694330483675003,0.021584559231996536,-1.5033398866653442,1007.5498,
2021.02.06 17:42:08,42.0,24.0,23.64,-0.24,-29.34,-0.2753416,0.76137936,9.972155,0.020901365,-0.015309504,0.015289347,-0.07617377489805222,0.027604028582572937,-1.4815436601638794,1007.551,
2021.02.06 17:42:08,42.0,24.0,23.699999,0.0,-29.34,-0.30646718,0.7901107,10.039194,-0.0078093014,0.014012027,-0.005480072,-0.078504279255867,0.030517593026161194,-1.4677746295928955,1007.55225,
2021.02.06 17:42:08,42.0,24.0,23.34,-0.29999998,-29.099998,-0.26097596,0.7326481,9.933846,0.015403578,0.006681644,0.0055155023,-0.0735941082239151,0.026265349239110947,-1.4874721765518188,1007.55225,
2021.02.06 17:42:08,42.0,24.0,23.4,-0.17999999,-28.98,-0.22745611,0.7685622,10.065532,-0.015139685,0.0054599135,0.020176267,-0.0761886015534401,0.022593680769205093,-1.4801889657974243,1007.5532,
2021.02.06 17:42:08,42.0,24.0,23.279999,-0.48,-28.74,-0.31125572,0.7805336,10.113417,-0.0053658406,-0.0043139304,-0.0018148806,-0.07698903232812881,0.03076680190861225,-1.4911818504333496,1007.5454,
2021.02.06 17:42:08,42.0,24.0,23.16,-0.42,-28.56,-0.23224466,0.749408,9.708784,0.0483903,-0.012255179,-0.011588724,-0.07701396197080612,0.02391652576625347,-1.4899518489837646,1007.5454,
2021.02.06 17:42:08,42.0,24.0,23.76,-0.29999998,-28.26,-0.23942748,0.79250497,9.943423,-0.014528819,0.0024055874,-0.01097786,-0.07951035350561142,0.02407432720065117,-1.4847468137741089,1007.5481,
2021.02.06 17:42:08,42.0,24.0,23.46,-0.42,-28.26,-0.3423813,0.76137936,10.180456,-0.07256102,0.014012027,-0.04213199,-0.07460734248161316,0.033618561923503876,-1.4933760166168213,1007.5481,
2021.02.06 17:42:08,42.0,24.0,23.58,-0.24,-28.38,-0.28013015,0.71588814,9.8787775,-0.028578721,0.009735971,-0.014032186,-0.07231185585260391,0.028349166736006737,-1.4893416166305542,1007.54565,
2021.02.06 17:42:08,42.0,24.0,23.939999,-0.29999998,-28.5,-0.38068968,0.70631105,10.13736,-0.018804876,0.007292509,-0.0018148806,-0.06951281428337097,0.03753549978137016,-1.4947518110275269,1007.54565,
2021.02.06 17:42:08,42.0,24.0,23.82,-0.35999998,-28.619999,-0.44533512,0.75180227,10.065532,-0.053624194,0.012179431,-0.018919107,-0.07447975128889084,0.04421474412083626,-1.489010214805603,1007.5405,
2021.02.06 17:42:08,42.0,24.0,23.939999,-0.24,-28.68,-0.35914123,0.6344828,9.93624,0.0074623297,0.0060707787,-0.003036611,-0.06372734159231186,0.036128852516412735,-1.4992306232452393,1007.54224,
2021.02.06 17:42:08,42.0,24.0,24.0,0.0,-28.56,-0.32801566,0.6943397,9.984126,0.028842613,0.007903375,0.007348098,-0.06939525157213211,0.03284190222620964,-1.482782244682312,1007.54224,
2021.02.06 17:42:08,42.0,24.0,24.119999,0.17999999,-28.619999,-0.3040729,0.70870537,10.072714,-0.0023115142,0.0060707787,-0.0012040153,-0.07021129876375198,0.03017861768603325,-1.4748367071151733,1007.5486,
2021.02.06 17:42:08,42.0,24.0,23.82,0.24,-28.56,-0.37111259,0.7134939,9.924269,-0.0017006488,0.009125105,-0.017086511,-0.07172040641307831,0.03737703710794449,-1.4678754806518555,1007.5486,
2021.02.06 17:42:09,42.0,24.0,23.76,0.17999999,-28.5,-0.38068968,0.7134939,9.933846,0.022123097,-3.7873644E-5,-0.011588724,-0.0716489925980568,0.03830374404788017,-1.4703274965286255,1007.55396,
2021.02.06 17:42:09,42.0,24.0,23.64,0.24,-28.26,-0.35674694,0.64166564,9.948212,0.008073196,0.003627318,-0.01097786,-0.06437011063098907,0.03584504872560501,-1.4777231216430664,1007.54785,
2021.02.06 17:42:09,42.0,24.0,23.22,0.06,-27.9,-0.3615355,0.67757976,9.953,-0.00414411,-0.0012596041,-0.006701803,-0.06792839616537094,0.03630830720067024,-1.4804884195327759,1007.54785,
2021.02.06 17:42:09,42.0,24.0,23.039999,-0.06,-27.96,-0.4070267,0.65842557,10.115811,-0.028578721,-0.0030921998,-0.009145264,-0.06494466960430145,0.040214989334344864,-1.488173007965088,1007.54443,
2021.02.06 17:42:09,42.0,24.0,23.279999,0.0,-28.199999,-0.25379312,0.6847626,9.976943,-0.026135258,-0.011033448,-5.9315015E-4,-0.0685049518942833,0.02543248049914837,-1.4836666584014893,1007.54395,
2021.02.06 17:42:09,42.0,24.0,23.58,0.0,-28.26,-0.3974496,0.6249057,9.981731,-0.010252762,-0.022029022,-0.0012040153,-0.06247396394610405,0.039796680212020874,-1.4897891283035278,1007.54395,
2021.02.06 17:42:09,42.0,24.0,23.34,-0.12,-28.439999,-0.35674694,0.6249057,9.979338,-0.008420167,-0.015309504,0.004293772,-0.062498483806848526,0.03573334217071533,-1.4944077730178833,1007.5469,
2021.02.06 17:42:09,42.0,24.0,23.4,0.17999999,-28.619999,-0.43336374,0.66321415,10.00328,1.3194689E-4,-0.011033448,-0.003036611,-0.06614092737436295,0.04329509288072586,-1.47459876537323,1007.5469,
2021.02.06 17:42:09,42.0,24.0,23.22,0.29999998,-28.56,-0.3040729,0.60335726,9.967366,-0.012696223,-0.012866044,-0.003036611,-0.060431450605392456,0.030497383326292038,-1.4785592555999756,1007.5476,
2021.02.06 17:42:09,42.0,24.0,23.16,0.48,-28.68,-0.29689008,0.6201172,9.955395,1.3194689E-4,-0.02080729,0.022008864,-0.06218161806464195,0.029813194647431374,-1.4678459167480469,1007.5476,
2021.02.06 17:42:09,42.0,24.0,23.279999,0.59999996,-29.16,-0.3040729,0.6273,10.015251,-0.016972281,-0.012866044,0.008569829,-0.06252402812242508,0.030351659283041954,-1.4611544609069824,1007.5488,
2021.02.06 17:42:09,42.0,24.0,23.039999,0.53999996,-29.16,-0.3328042,0.6081458,10.027223,7.428122E-4,-0.007979122,0.00979156,-0.060542017221450806,0.03317788988351822,-1.4647314548492432,1007.54785,
2021.02.06 17:42:09,42.0,24.0,22.68,0.84,-28.619999,-0.30646718,0.6488485,9.948212,0.0031862732,-0.0067573916,0.0061263675,-0.06509958207607269,0.030796518549323082,-1.4454877376556396,1007.54785,
2021.02.06 17:42:09,42.0,24.0,22.38,0.65999997,-28.74,-0.23463893,0.65124273,10.022434,0.010516656,-0.0073682563,0.018343672,-0.06486956030130386,0.023407094180583954,-1.4535958766937256,1007.54834,
2021.02.06 17:42:09,42.0,24.0,22.5,0.65999997,-28.26,-0.32801566,0.6273,10.08708,0.0013536774,-0.0012596041,0.00979156,-0.06207575649023056,0.03250693902373314,-1.457406997680664,1007.5403,
2021.02.06 17:42:09,42.0,24.0,22.68,0.71999997,-28.08,-0.2466103,0.6464542,9.897932,0.005629734,-0.005535661,-0.0012040153,-0.06519924104213715,0.024910181760787964,-1.4537287950515747,1007.5403,
2021.02.06 17:42:10,42.0,24.0,22.98,0.29999998,-28.26,-0.22506183,0.6608198,9.921875,0.008684061,-0.0049247956,0.0079589635,-0.06648703664541245,0.022679507732391357,-1.4721165895462036,1007.54175,
2021.02.06 17:42:10,42.0,24.0,23.16,-0.12,-28.56,-0.19633053,0.6943397,10.0368,-0.008420167,0.003627318,0.0030720413,-0.06905617564916611,0.01955857314169407,-1.4877097606658936,1007.54175,
2021.02.06 17:42:10,42.0,24.0,22.98,0.17999999,-28.619999,-0.2561874,0.6392714,9.948212,0.012960117,-6.487389E-4,-0.0036474764,-0.06415048241615295,0.025746416300535202,-1.4787870645523071,1007.542,
2021.02.06 17:42:10,42.0,24.0,22.8,-0.42,-29.22,-0.2681588,0.68715686,10.075109,-0.0023115142,0.001794722,-0.012810456,-0.06807392090559006,0.026609687134623528,-1.4978325366973877,1007.542,
2021.02.06 17:42:10,42.0,24.0,23.1,-0.12,-29.4,-0.29928434,0.6440599,9.821315,0.0019645425,-0.0073682563,-0.008534398,-0.06545370817184448,0.030463512986898422,-1.4877058267593384,1007.5383,
2021.02.06 17:42:10,42.0,24.0,23.22,0.0,-29.34,-0.1699935,0.6751855,10.015251,0.024566557,0.007292509,-0.015253915,-0.06730420887470245,0.016971834003925323,-1.4830143451690674,1007.5383,
2021.02.06 17:42:10,42.0,24.0,23.46,-0.29999998,-29.16,-0.2777359,0.6703969,9.964972,-0.012085358,0.0030164525,-0.018919107,-0.0671481266617775,0.02786400355398655,-1.495828628540039,1007.5383,
2021.02.06 17:42:10,42.0,24.0,23.519999,0.12,-28.92,-0.32562137,0.6296943,9.979338,-0.0078093014,0.010957701,-0.031747278,-0.06298283487558365,0.03261798620223999,-1.4829490184783936,1007.53955,
2021.02.06 17:42:10,42.0,24.0,23.4,0.0,-28.68,-0.2753416,0.65124273,9.979338,0.0037971383,5.729916E-4,-0.011588724,-0.06514199078083038,0.027584172785282135,-1.4865604639053345,1007.53955,
2021.02.06 17:42:10,42.0,24.0,23.1,0.24,-28.5,-0.28013015,0.6656084,9.98652,-0.013917954,0.0011838569,-0.01342132,-0.06652616709470749,0.0280434750020504,-1.473473310470581,1007.541,
2021.02.06 17:42:10,42.0,24.0,23.039999,0.42,-28.74,-0.17478207,0.5794145,10.000886,-0.026746124,-3.7873644E-5,-0.003036611,-0.05786280333995819,0.017474878579378128,-1.4776809215545654,1007.5403,
2021.02.06 17:42:10,42.0,24.0,23.4,0.59999996,-28.68,-0.23463893,0.6440599,9.735122,0.011127521,0.0048490483,0.0012394455,-0.06604298204183578,0.02409764565527439,-1.4598942995071411,1007.5403,
2021.02.06 17:42:10,42.0,24.0,23.34,0.65999997,-28.92,-0.32562137,0.54828894,10.132571,-0.0029223792,0.014012027,-0.006701803,-0.054030973464250565,0.03212504833936691,-1.4702160358428955,1007.5481,
2021.02.06 17:42:10,42.0,24.0,23.46,0.42,-28.68,-0.23224466,0.6751855,9.842864,1.3194689E-4,0.008514239,0.010402424,-0.06847015768289566,0.023590853437781334,-1.4650098085403442,1007.5481,
2021.02.06 17:42:10,42.0,24.0,23.64,0.29999998,-28.68,-0.21548474,0.5889916,9.993703,-4.7891834E-4,0.007903375,6.2858034E-4,-0.05885452777147293,0.021558711305260658,-1.4834274053573608,1007.54663,
2021.02.06 17:42:10,42.0,24.0,23.4,0.53999996,-28.56,-0.11013664,0.6057515,9.933846,-0.03835256,0.001794722,0.0018503108,-0.06089939922094345,0.011086554266512394,-1.471783995628357,1007.5432,
2021.02.06 17:42:10,42.0,24.0,23.34,0.84,-28.439999,-0.6273,0.6608198,8.664881,-0.04751554,0.0030164525,-0.015864782,-0.07591889798641205,0.07226961106061935,-1.424994707107544,1007.5432,
2021.02.06 17:42:11,42.0,24.0,23.34,0.71999997,-28.439999,0.045491222,0.52913475,11.147743,-0.14708658,-0.053794015,-0.007923533,-0.0474296435713768,-0.00408073328435421,-1.483067274093628,1007.5469,
