Time,X-cord,Y-cord,Mag_x,Mag_y,Mag_z,Acc_x,Acc_y,Acc_z,Gyro_x,Gyro_y,Gyro_z,Orn_x,Orn_y,Orn_z,Pressure,
2021.02.06 17:41:53,41.0,24.0,19.859999,-0.65999997,-28.019999,-0.5219519,0.75180227,10.05356,-0.1293715,-0.07089824,-0.018308243,-0.07454076409339905,0.05187055096030235,-1.4892386198043823,1007.5332,
2021.02.06 17:41:53,41.0,24.0,19.26,-0.35999998,-27.66,-0.2753416,0.7110996,9.380769,0.14307442,0.028672792,-0.014032186,-0.07562683522701263,0.02934328280389309,-1.4749600887298584,1007.541,
2021.02.06 17:41:53,41.0,24.0,19.92,-1.02,-28.74,-0.43336374,0.70631105,10.269045,0.005018869,-0.052572284,0.012845885,-0.06861156970262527,0.04217595234513283,-1.5168864727020264,1007.541,
2021.02.06 17:41:53,41.0,24.0,20.939999,-0.65999997,-29.64,-0.31843856,0.61293435,10.472558,-0.073171884,0.0048490483,-5.9315015E-4,-0.058434028178453445,0.030397584661841393,-1.5155096054077148,1007.54517,
2021.02.06 17:41:53,41.0,24.0,21.66,-1.14,-30.179998,-0.34716985,0.7206767,9.799767,0.023955692,-0.016531235,0.03178271,-0.07336219400167465,0.0354115292429924,-1.5159395933151245,1007.54517,
2021.02.06 17:41:54,41.0,24.0,22.74,-1.68,-30.84,-0.28013015,0.7685622,9.809344,0.13024625,-0.0073682563,0.025674054,-0.07815854251384735,0.028549719601869583,-1.5349867343902588,1007.54224,
2021.02.06 17:41:54,41.0,24.0,23.16,-1.74,-30.539999,-0.4860378,0.7805336,10.190034,0.028842613,-0.007979122,-0.01342132,-0.0763619914650917,0.047661248594522476,-1.53960382938385,1007.5425,
2021.02.06 17:41:54,41.0,24.0,22.859999,-1.86,-30.66,-0.50998056,0.75659084,9.941029,7.428122E-4,0.0030164525,0.0018503108,-0.07586207985877991,0.05125565081834793,-1.5447070598602295,1007.5425,
2021.02.06 17:41:54,41.0,24.0,22.74,-1.9799999,-30.72,-0.43815228,0.61293435,9.835681,0.014792713,-0.006146526,0.028728383,-0.0621754415333271,0.04451778903603554,-1.57109534740448,1007.5498,
2021.02.06 17:41:54,41.0,24.0,23.22,-2.28,-30.84,-0.34716985,0.62251145,9.9889145,-0.0017006488,-0.032413732,0.029950112,-0.062202274799346924,0.03474152833223343,-1.5847792625427246,1007.5498,
2021.02.06 17:41:54,41.0,24.0,23.1,-1.92,-31.199999,-0.40463245,0.5865973,9.888355,-0.04751554,-0.011644313,0.057439048,-0.05920316278934479,0.04089727997779846,-1.5715409517288208,1007.5381,
2021.02.06 17:41:54,41.0,24.0,23.519999,-1.92,-31.08,-0.36871833,0.71588814,10.024829,-0.037130833,-0.014087774,0.054995585,-0.07124248147010803,0.03676394000649452,-1.554821491241455,1007.5471,
2021.02.06 17:41:54,41.0,24.0,23.64,-2.04,-31.32,-0.29210153,0.66800267,10.161303,-0.04690468,5.729916E-4,0.028117515,-0.06561838090419769,0.02873855084180832,-1.5680785179138184,1007.5471,
2021.02.06 17:41:54,41.0,24.0,23.58,-1.74,-31.8,-0.4764607,0.5363176,9.852441,0.012960117,0.017066352,0.01101329,-0.05431797355413437,0.04832201078534126,-1.568577527999878,1007.54614,
2021.02.06 17:41:54,41.0,24.0,23.699999,-1.56,-31.74,-0.29210153,0.6608198,9.890749,0.036172997,0.032948848,0.010402424,-0.06668378412723541,0.029524220153689384,-1.5442501306533813,1007.54614,
2021.02.06 17:41:54,41.0,24.0,23.22,-1.68,-31.5,-0.3232271,0.6656084,10.134965,-0.021248337,0.01767722,0.010402424,-0.06554705649614334,0.03188147023320198,-1.5512396097183228,1007.54224,
2021.02.06 17:41:54,41.0,24.0,23.279999,-1.1999999,-31.32,-0.5027977,0.6201172,9.967366,0.0037971383,0.019509813,-0.02380603,-0.062055960297584534,0.05040166899561882,-1.5332123041152954,1007.5491,
2021.02.06 17:41:54,41.0,24.0,23.1,-0.9,-30.84,-0.30167863,0.6847626,9.924269,0.050222896,0.018288083,-0.01342132,-0.06885790079832077,0.030388712882995605,-1.5134681463241577,1007.5491,
2021.02.06 17:41:54,41.0,24.0,23.039999,-1.02,-30.48,-0.38308397,0.6560313,9.926663,0.02273396,0.024396736,-0.011588724,-0.06594289094209671,0.0385722741484642,-1.522875428199768,1007.5432,
2021.02.06 17:41:54,41.0,24.0,23.279999,-1.26,-30.599998,-0.42378664,0.70631105,10.180456,-0.05667852,0.012179431,-0.023195164,-0.06920837610960007,0.0416034534573555,-1.528786063194275,1007.5432,
2021.02.06 17:41:54,41.0,24.0,23.1,-1.38,-30.119999,-0.3615355,0.67279124,9.957788,0.017236173,0.011568567,-0.017697377,-0.06741750240325928,0.036290865391492844,-1.5386438369750977,1007.54346,
2021.02.06 17:41:55,41.0,24.0,22.859999,-1.1999999,-30.24,-0.4644893,0.6296943,10.000886,0.024566557,0.0024055874,-0.01342132,-0.06281330436468124,0.04641146585345268,-1.5351121425628662,1007.5493,
2021.02.06 17:41:55,41.0,24.0,22.619999,-1.68,-30.06,-0.45491222,0.69194543,9.98652,-0.01819401,-0.006146526,-0.020140838,-0.06910595297813416,0.04552115872502327,-1.5487256050109863,1007.5493,
2021.02.06 17:41:55,41.0,24.0,22.38,-1.68,-29.82,-0.3974496,0.72785956,9.914692,0.015403578,-0.006146526,-0.0042583416,-0.07322216778993607,0.04006548225879669,-1.5438812971115112,1007.5464,
2021.02.06 17:41:55,41.0,24.0,22.38,-1.5,-30.119999,-0.43815228,0.7326481,9.993703,0.02273396,-0.0049247956,-0.011588724,-0.07311007380485535,0.043814778327941895,-1.5340428352355957,1007.5464,
2021.02.06 17:41:55,41.0,24.0,22.619999,-1.5,-30.06,-0.47167215,0.7541966,10.063137,0.009294925,0.012179431,-0.020140838,-0.07472488284111023,0.04683700576424599,-1.5318818092346191,1007.5354,
2021.02.06 17:41:55,41.0,24.0,22.859999,-0.78,-30.24,-0.3974496,0.7398309,9.912297,-0.010863627,-0.0073682563,-0.0042583416,-0.07443995773792267,0.0400751531124115,-1.4998362064361572,1007.5342,
2021.02.06 17:41:55,41.0,24.0,22.8,-0.53999996,-30.359999,-0.4285752,0.749408,9.912297,0.02273396,-0.009811718,-0.0012040153,-0.07539014518260956,0.043209802359342575,-1.4862065315246582,1007.5342,
2021.02.06 17:41:55,41.0,24.0,22.56,-0.42,-30.0,-0.34716985,0.7326481,10.029617,-0.023080932,-0.022029022,-0.0012040153,-0.07287544757127762,0.03460065275430679,-1.4863361120224,1007.5364,
2021.02.06 17:41:55,41.0,24.0,22.32,-0.96,-29.699999,-0.31125572,0.7110996,9.914692,-0.0035332446,-0.01836383,0.007348098,-0.07156407088041306,0.031383078545331955,-1.5140148401260376,1007.5386,
2021.02.06 17:41:55,41.0,24.0,21.72,-1.26,-29.22,-0.2777359,0.7398309,10.055954,-0.03224391,-0.015309504,0.0049046366,-0.07341122627258301,0.027612028643488884,-1.5263526439666748,1007.5386,
2021.02.06 17:41:55,41.0,24.0,21.779999,-1.1999999,-28.98,-0.42618093,0.6943397,10.000886,-0.03224391,0.0024055874,-0.006701803,-0.06925393640995026,0.042588550597429276,-1.5284080505371094,1007.5403,
2021.02.06 17:41:55,41.0,24.0,22.08,-1.62,-29.039999,-0.38787252,0.6249057,10.079897,-0.024913529,-0.005535661,0.0067372327,-0.061870332807302475,0.03846083581447601,-1.5598245859146118,1007.5403,
2021.02.06 17:41:55,41.0,24.0,21.72,-1.1999999,-29.22,-0.30886146,0.69194543,9.8787775,1.3194689E-4,-0.006146526,0.023230596,-0.06989538669586182,0.03125496953725815,-1.528025507926941,1007.53345,
2021.02.06 17:41:55,41.0,24.0,22.08,-1.0799999,-29.46,-0.3232271,0.64166564,10.072714,-0.020026606,-0.0073682563,0.020787135,-0.06358474493026733,0.032078370451927185,-1.53113853931427,1007.53345,
2021.02.06 17:41:55,41.0,24.0,22.26,-0.96,-29.16,-0.3519584,0.6895511,10.0368,-0.013307089,-0.007979122,0.017121943,-0.06855249404907227,0.035052429884672165,-1.5193966627120972,1007.52905,
2021.02.06 17:41:55,41.0,24.0,22.02,-0.59999996,-29.099998,-0.22985038,0.6177229,9.73991,0.030064344,-0.0037030652,0.012845885,-0.06331942230463028,0.023594440892338753,-1.5110883712768555,1007.52856,
2021.02.06 17:41:55,41.0,24.0,22.56,-0.42,-29.16,-0.37590113,0.6440599,10.118205,-0.044461217,0.014012027,1.7715092E-5,-0.06352410465478897,0.03713389113545418,-1.5017669200897217,1007.52856,
2021.02.06 17:41:56,41.0,24.0,22.56,-0.42,-29.16,-0.35674694,0.6392714,10.051166,-0.022470068,0.014012027,-0.0036474764,-0.06347629427909851,0.035478197038173676,-1.5020962953567505,1007.52515,
2021.02.06 17:41:56,41.0,24.0,21.96,-0.48,-29.46,-0.38068968,0.6703969,10.00328,0.032507803,0.012790296,0.004293772,-0.06686938554048538,0.03803813084959984,-1.4967879056930542,1007.52515,
2021.02.06 17:41:56,41.0,24.0,21.72,-0.78,-29.16,-0.28252444,0.7541966,9.897932,0.051444627,0.010957701,0.009180694,-0.07601958513259888,0.028536036610603333,-1.4998869895935059,1007.5283,
2021.02.06 17:41:56,41.0,24.0,21.66,-1.02,-29.22,-0.41181526,0.69912827,10.118205,0.018457904,0.001794722,-0.026860354,-0.06892953813076019,0.04067797586321831,-1.5193134546279907,1007.53125,
2021.02.06 17:41:56,41.0,24.0,21.48,-1.14,-28.98,-0.42618093,0.71588814,9.842864,0.014792713,-0.015309504,-0.025638627,-0.07253612577915192,0.043271441012620926,-1.5199339389801025,1007.53125,
2021.02.06 17:41:56,41.0,24.0,21.66,-1.56,-29.16,-0.44294083,0.6344828,9.907509,0.012349252,-0.017142102,-0.011588724,-0.06388962268829346,0.04467783495783806,-1.552857518196106,1007.5344,
2021.02.06 17:41:56,41.0,24.0,21.779999,-1.5,-29.279999,-0.4189981,0.6608198,9.941029,-0.00414411,-0.01592037,-0.010366994,-0.06631762534379959,0.04212343320250511,-1.546311616897583,1007.5344,
2021.02.06 17:41:56,41.0,24.0,21.539999,-1.3199999,-29.22,-0.34716985,0.6895511,9.914692,-0.03102218,-0.009811718,-0.004869207,-0.06939420849084854,0.035001397132873535,-1.5337345600128174,1007.54663,
2021.02.06 17:41:56,41.0,24.0,21.3,-1.14,-28.98,-0.339987,0.6177229,10.008069,-0.030411316,-6.487389E-4,6.2858034E-4,-0.06160883605480194,0.033958230167627335,-1.536827802658081,1007.5405,
2021.02.06 17:41:56,41.0,24.0,21.06,-0.9,-28.439999,-0.39266106,0.6344828,9.974549,-0.013307089,-0.015309504,0.012235019,-0.06347555667161942,0.03934597969055176,-1.5228031873703003,1007.5405,
2021.02.06 17:41:56,41.0,24.0,20.64,-0.59999996,-28.38,-0.22266756,0.65842557,10.13736,-0.0078093014,-0.011033448,0.014067615,-0.06484370678663254,0.0219615139067173,-1.5074604749679565,1007.54224,
2021.02.06 17:41:56,41.0,24.0,19.98,-0.29999998,-27.539999,-0.14126222,0.66800267,10.077502,0.069159724,-0.021418158,0.029950112,-0.06618321686983109,0.014016663655638695,-1.4923362731933594,1007.54224,
2021.02.06 17:41:56,41.0,24.0,19.5,-0.35999998,-27.0,-0.23463893,0.69673395,9.981731,0.017236173,-0.011033448,-0.004869207,-0.06966870278120041,0.02350250817835331,-1.488702416419983,1007.5488,
2021.02.06 17:41:56,41.0,24.0,18.9,0.12,-26.279999,-0.33759275,0.6608198,9.93624,0.009905791,-0.005535661,-0.020751704,-0.06637004762887955,0.03396283835172653,-1.4653794765472412,1007.5359,
2021.02.06 17:41:56,41.0,24.0,18.359999,0.0,-25.68,-0.25379312,0.6703969,9.931452,-0.00414411,0.004238183,-0.015864782,-0.06737823039293289,0.025548923760652542,-1.4716770648956299,1007.5359,
2021.02.06 17:41:56,41.0,24.0,18.359999,-0.06,-25.56,-0.37111259,0.66321415,9.90272,0.006851465,0.010957701,-0.017086511,-0.06682629138231277,0.03745829313993454,-1.4738231897354126,1007.5354,
2021.02.06 17:41:57,41.0,24.0,18.18,-0.12,-25.68,-0.30886146,0.65124273,10.032011,-0.054235063,0.011568567,-0.015864782,-0.06479489058256149,0.03077786974608898,-1.4802303314208984,1007.5344,
2021.02.06 17:41:57,41.0,24.0,18.48,-0.24,-25.92,-0.3040729,0.60335726,10.024829,-0.03102218,0.013401162,-0.021362567,-0.0600862093269825,0.03032268024981022,-1.4946188926696777,1007.5344,
2021.02.06 17:41:57,41.0,24.0,18.66,-0.29999998,-26.279999,-0.2777359,0.56265455,10.012857,-0.0017006488,0.0048490483,-0.020140838,-0.056112635880708694,0.02773081511259079,-1.503792405128479,1007.54297,
2021.02.06 17:41:57,41.0,24.0,18.48,-0.48,-26.4,-0.32083282,0.65842557,10.000886,-0.014528819,0.0054599135,-0.023195164,-0.06570813804864883,0.03206944093108177,-1.4975900650024414,1007.54297,
2021.02.06 17:41:57,41.0,24.0,18.66,0.0,-26.64,-0.2944958,0.6249057,10.079897,-4.7891834E-4,-0.005535661,-0.018308243,-0.061889663338661194,0.02920784242451191,-1.4770424365997314,1007.5415,
2021.02.06 17:41:57,41.0,24.0,18.72,0.12,-26.58,-0.33759275,0.65124273,9.909904,0.027620882,-0.009811718,-0.006090937,-0.06558406352996826,0.03405303135514259,-1.4643447399139404,1007.5415,
2021.02.06 17:41:57,41.0,24.0,19.32,0.48,-26.64,-0.29928434,0.6344828,9.941029,0.020290501,-0.0043139304,-0.007312668,-0.06370941549539566,0.030096882954239845,-1.4518897533416748,1007.5508,
2021.02.06 17:41:57,41.0,24.0,19.5,0.71999997,-26.46,-0.29210153,0.65124273,9.976943,0.012349252,-3.7873644E-5,-0.004869207,-0.06515447050333023,0.029269298538565636,-1.439188838005066,1007.55225,
2021.02.06 17:41:57,41.0,24.0,19.68,0.17999999,-26.34,-0.24421602,0.71588814,9.950606,0.023955692,-0.012255179,0.0061263675,-0.0717988908290863,0.02453790418803692,-1.4607120752334595,1007.55225,
2021.02.06 17:41:57,41.0,24.0,19.439999,0.06,-26.519999,-0.2561874,0.6847626,9.96976,0.026399152,-0.010422583,0.009180694,-0.06855370104312897,0.025690793991088867,-1.4692877531051636,1007.5615,
2021.02.06 17:41:57,41.0,24.0,19.14,-0.24,-26.519999,-0.2753416,0.7134939,9.933846,0.037394725,-0.006146526,1.7715092E-5,-0.07167397439479828,0.027710426598787308,-1.478816032409668,1007.5615,
2021.02.06 17:41:57,41.0,24.0,19.08,-0.35999998,-26.64,-0.2370332,0.7829279,10.094262,0.017847039,5.729916E-4,-0.0012040153,-0.07738545536994934,0.02347766049206257,-1.47705078125,1007.5603,
2021.02.06 17:41:57,41.0,24.0,18.9,-0.17999999,-26.58,-0.2777359,0.69673395,9.991309,-0.013917954,0.008514239,-0.026860354,-0.06959449499845505,0.02779059112071991,-1.4771764278411865,1007.55396,
2021.02.06 17:41:57,41.0,24.0,18.779999,-0.06,-26.099998,-0.26337022,0.73743665,9.883567,0.012349252,0.0030164525,-0.016475648,-0.07444807887077332,0.026640979573130608,-1.465097188949585,1007.55396,
2021.02.06 17:41:57,41.0,24.0,18.48,0.12,-25.439999,-0.2753416,0.70631105,10.158908,-0.024913529,0.003627318,-0.009756129,-0.06938917189836502,0.027096830308437347,-1.463382601737976,1007.5491,
2021.02.06 17:41:57,41.0,24.0,18.24,0.42,-25.74,-0.30886146,0.6608198,9.80695,-0.030411316,-0.0018704693,-0.008534398,-0.06724786013364792,0.031483735889196396,-1.4459415674209595,1007.5491,
2021.02.06 17:41:57,41.0,24.0,18.06,0.42,-25.8,-0.23942748,0.66800267,10.178062,-0.0017006488,-0.012866044,0.00979156,-0.0655195415019989,0.02351953834295273,-1.4490039348602295,1007.5476,
2021.02.06 17:41:58,41.0,24.0,17.94,0.29999998,-25.8,-0.24182175,0.6488485,9.962578,-0.0218592,-0.005535661,0.0055155023,-0.06501761823892593,0.024268243461847305,-1.455561876296997,1007.5425,
2021.02.06 17:41:58,41.0,24.0,18.18,0.06,-26.4,-0.21548474,0.6177229,9.9889145,0.0013536774,-0.0073682563,0.007348098,-0.06174786388874054,0.021569043397903442,-1.473818063735962,1007.5425,
2021.02.06 17:41:58,41.0,24.0,18.84,-0.24,-25.98,-0.26337022,0.6273,9.984126,-0.010252762,-0.005535661,-0.009145264,-0.0627254992723465,0.02637277916073799,-1.4927340745925903,1007.5425,
2021.02.06 17:41:58,41.0,24.0,18.84,-0.48,-26.22,-0.2849187,0.65363705,10.029617,-0.01575055,-0.0024813346,-0.014643051,-0.06505248695611954,0.02840009704232216,-1.5012718439102173,1007.53906,
2021.02.06 17:41:58,41.0,24.0,18.84,-0.48,-26.699999,-0.28970724,0.6081458,9.962578,0.0019645425,5.729916E-4,-0.01342132,-0.0609416626393795,0.029071353375911713,-1.5055537223815918,1007.53906,
2021.02.06 17:41:58,41.0,24.0,18.66,-0.42,-26.519999,-0.18196489,0.5913859,9.979338,0.01906877,0.0011838569,6.2858034E-4,-0.05918199196457863,0.01823214441537857,-1.5065498352050781,1007.54663,
2021.02.06 17:41:58,41.0,24.0,18.539999,-0.48,-26.64,-0.25858167,0.6488485,9.974549,0.002575408,-0.017142102,0.01101329,-0.06493712961673737,0.02591834031045437,-1.4991658926010132,1007.54663,
2021.02.06 17:41:58,41.0,24.0,18.9,-0.06,-26.58,-0.2849187,0.6392714,10.024829,-0.012696223,-0.006146526,0.0036829067,-0.06365694105625153,0.02841365337371826,-1.4792826175689697,1007.5493,
2021.02.06 17:41:58,41.0,24.0,18.84,-0.35999998,-26.46,-0.30886146,0.66321415,9.897932,0.03189694,-0.0030921998,6.2858034E-4,-0.06687285751104355,0.031194522976875305,-1.490585446357727,1007.5493,
2021.02.06 17:41:58,41.0,24.0,19.32,-0.24,-26.279999,-0.18914771,0.6488485,10.017646,0.023955692,0.006681644,-0.0042583416,-0.06466871500015259,0.018879208713769913,-1.4922101497650146,1007.551,
2021.02.06 17:41:58,41.0,24.0,18.72,0.0,-26.4,-0.14844504,0.71588814,9.960183,0.027620882,-0.005535661,-0.0042583416,-0.0717436671257019,0.014902743510901928,-1.4668208360671997,1007.553,
2021.02.06 17:41:58,41.0,24.0,18.359999,-0.17999999,-26.279999,-0.2753416,0.679974,10.005674,0.013570982,0.0048490483,-0.014032186,-0.06782890856266022,0.027511602267622948,-1.4783135652542114,1007.553,
2021.02.06 17:41:58,41.0,24.0,18.66,0.12,-26.279999,-0.2466103,0.74222517,9.890749,0.017847039,5.729916E-4,-0.006701803,-0.07487878948450089,0.024928264319896698,-1.45356285572052,1007.5493,
2021.02.06 17:41:58,41.0,24.0,18.42,-0.35999998,-26.46,-0.28013015,0.7206767,10.008069,0.009294925,0.0054599135,-0.01097786,-0.07185743749141693,0.02798312157392502,-1.4818028211593628,1007.5493,
2021.02.06 17:41:58,41.0,24.0,18.66,-0.42,-26.039999,-0.22027329,0.69912827,9.93624,0.002575408,0.0030164525,-0.01097786,-0.07022847980260849,0.022165045142173767,-1.4914835691452026,1007.55176,
2021.02.06 17:41:58,41.0,24.0,18.9,-0.48,-25.98,-0.3304099,0.68236834,9.979338,0.006851465,0.0024055874,-0.008534398,-0.06823457032442093,0.03309731185436249,-1.4969346523284912,1007.5459,
2021.02.06 17:41:58,41.0,24.0,18.84,-0.71999997,-26.039999,-0.28013015,0.7350424,9.907509,-0.0023115142,0.004238183,-0.01219959,-0.07402528822422028,0.028266998007893562,-1.5020273923873901,1007.5459,
2021.02.06 17:41:59,41.0,24.0,18.96,-0.17999999,-26.279999,-0.30646718,0.7206767,9.976943,0.005629734,-6.487389E-4,-0.008534398,-0.07207509875297546,0.030707886442542076,-1.47442626953125,1007.54736,
2021.02.06 17:41:59,41.0,24.0,19.26,-0.06,-26.76,-0.2753416,0.69194543,10.158908,-0.023080932,0.008514239,-0.014643051,-0.0679822638630867,0.027096830308437347,-1.4743386507034302,1007.54736,
2021.02.06 17:41:59,41.0,24.0,19.14,-0.24,-26.76,-0.22027329,0.69194543,9.871595,0.017847039,-3.7873644E-5,-0.01342132,-0.06996277719736099,0.022310147061944008,-1.4814553260803223,1007.54614,
2021.02.06 17:41:59,41.0,24.0,19.5,0.06,-26.699999,-0.3232271,0.6560313,10.091868,-0.0078093014,0.0060707787,-0.015864782,-0.06488142162561417,0.03201752156019211,-1.4728785753250122,1007.54663,
2021.02.06 17:41:59,41.0,24.0,19.439999,-0.06,-25.98,-0.3519584,0.67279124,9.905115,0.025177421,0.004238183,-0.008534398,-0.06777680665254593,0.03551805019378662,-1.4767616987228394,1007.54663,
2021.02.06 17:41:59,41.0,24.0,18.96,-0.24,-25.98,-0.2681588,0.7134939,10.065532,0.032507803,5.729916E-4,-0.006701803,-0.07074148207902908,0.02663499489426613,-1.4816657304763794,1007.5481,
2021.02.06 17:41:59,41.0,24.0,19.199999,0.35999998,-25.98,-0.23463893,0.66321415,9.900327,0.0062405993,0.0011838569,-0.004869207,-0.06687046587467194,0.023695683106780052,-1.456909418106079,1007.5481,
2021.02.06 17:41:59,41.0,24.0,19.02,0.29999998,-25.68,-0.3519584,0.679974,9.974549,0.025177421,0.007903375,-0.0042583416,-0.06802338361740112,0.03527101129293442,-1.45589017868042,1007.54956,
2021.02.06 17:41:59,41.0,24.0,18.48,0.17999999,-26.279999,-0.25139886,0.723071,9.957788,-0.016361414,0.004238183,1.7715092E-5,-0.07246337085962296,0.025241093710064888,-1.4525820016860962,1007.5459,
2021.02.06 17:41:59,41.0,24.0,18.72,-0.35999998,-25.8,-0.30167863,0.6847626,9.900327,0.020290501,0.0048490483,0.0012394455,-0.0690237358212471,0.030462156981229782,-1.4895966053009033,1007.5459,
2021.02.06 17:41:59,41.0,24.0,18.539999,-0.42,-25.56,-0.2561874,0.7206767,10.041589,-0.013917954,0.0030164525,-0.003036611,-0.07162312418222427,0.025507105514407158,-1.4902509450912476,1007.5481,
2021.02.06 17:41:59,41.0,24.0,18.3,-0.35999998,-26.16,-0.36392978,0.70870537,9.976943,-0.028578721,0.0030164525,-0.009145264,-0.07086823135614395,0.03646091744303703,-1.482229232788086,1007.55225,
2021.02.06 17:41:59,41.0,24.0,18.6,-0.48,-25.8,-0.30646718,0.7015225,9.960183,0.017847039,-0.0012596041,-0.002425746,-0.07028341293334961,0.030759526416659355,-1.4938421249389648,1007.55225,
2021.02.06 17:41:59,41.0,24.0,18.539999,0.06,-26.099998,-0.3328042,0.72546524,9.98652,-0.0010897835,-0.0012596041,-0.002425746,-0.07247696816921234,0.03331301361322403,-1.4583922624588013,1007.5508,
2021.02.06 17:41:59,41.0,24.0,18.48,-0.24,-26.34,-0.32562137,0.7039168,9.950606,-0.004754975,0.006681644,-0.014032186,-0.07058578729629517,0.032712098211050034,-1.4768067598342896,1007.5508,
2021.02.06 17:41:59,41.0,24.0,18.359999,-0.53999996,-25.68,-0.2657645,0.6943397,10.0200405,0.01662531,0.0011838569,-0.0042583416,-0.06916025280952454,0.026517080143094063,-1.4991176128387451,1007.5471,
2021.02.06 17:42:00,41.0,24.0,18.06,-0.29999998,-25.8,-0.3232271,0.6703969,9.943423,0.005018869,0.0011838569,-0.005480072,-0.06728382408618927,0.03249518200755119,-1.4853780269622803,1007.5471,
2021.02.06 17:42:00,41.0,24.0,18.119999,-0.12,-25.8,-0.30646718,0.68236834,10.0368,0.005629734,0.0024055874,-0.0036474764,-0.06785064935684204,0.03052486665546894,-1.474915623664856,1007.54736,
2021.02.06 17:42:00,41.0,24.0,17.88,0.48,-25.859999,-0.27055305,0.71588814,9.883567,0.0037971383,-6.487389E-4,6.2858034E-4,-0.07227891683578491,0.02736719697713852,-1.4329752922058105,1007.5471,
2021.02.06 17:42:00,41.0,24.0,18.119999,0.78,-26.4,-0.29689008,0.6296943,9.929058,-0.010252762,0.0103468355,-0.006701803,-0.0633062943816185,0.029892224818468094,-1.4284790754318237,1007.5471,
2021.02.06 17:42:00,41.0,24.0,18.66,0.84,-26.279999,-0.29689008,0.68715686,9.9889145,-0.040185157,0.009735971,-0.0018148806,-0.06865351647138596,0.029713207855820656,-1.4220486879348755,1007.5476,
2021.02.06 17:42:00,41.0,24.0,18.96,0.84,-25.98,-0.3232271,0.60335726,10.012857,-0.044461217,0.012179431,-0.004869207,-0.06015421450138092,0.032269999384880066,-1.437084674835205,1007.5476,
2021.02.06 17:42:00,41.0,24.0,19.08,0.71999997,-25.56,-0.32562137,0.66321415,9.993703,-0.019415742,0.009735971,-0.005480072,-0.06623099744319916,0.032571129500865936,-1.4372426271438599,1007.5432,
2021.02.06 17:42:00,41.0,24.0,19.14,0.71999997,-25.14,-0.25858167,0.679974,9.962578,-0.0065875705,0.014622892,-0.006701803,-0.06812425702810287,0.025949470698833466,-1.438313364982605,1007.5454,
2021.02.06 17:42:00,41.0,24.0,18.779999,0.48,-25.14,-0.19393626,0.6296943,10.012857,0.0019645425,0.016455488,-0.0042583416,-0.06279411166906357,0.019366299733519554,-1.4576011896133423,1007.5454,
2021.02.06 17:42:00,41.0,24.0,18.42,0.24,-25.439999,0.14605077,0.4764607,10.4294615,-0.01819401,-0.0024813346,0.014678481,-0.04564790055155754,-0.014002757146954536,-1.4969606399536133,1007.5427,
2021.02.06 17:42:00,41.0,24.0,18.3,0.24,-25.74,-0.6153286,0.72546524,11.049579,-0.14891918,-0.062956996,0.030560978,-0.06546023488044739,0.05563051253557205,-1.4533392190933228,1007.5427,
