Time,X-cord,Y-cord,Mag_x,Mag_y,Mag_z,Acc_x,Acc_y,Acc_z,Gyro_x,Gyro_y,Gyro_z,Orn_x,Orn_y,Orn_z,Pressure,
2021.02.11 15:19:55,44.0,24.0,19.859999,3.06,-42.239998,0.9888355,1.1636176,10.915499,-0.011589335,-0.1423988,0.079446085,-0.10577137023210526,-0.09034344553947449,-1.2708820104599,1017.4634,
2021.02.11 15:19:55,44.0,24.0,20.16,3.06,-42.36,-0.14605077,1.1612233,8.499676,0.056216706,0.19602056,-0.03845091,-0.13575930893421173,0.017181407660245895,-1.145043134689331,1017.4751,
2021.02.11 15:19:55,44.0,24.0,20.76,3.12,-42.42,0.14365649,1.0917894,9.98652,-0.09039095,0.004819727,0.012861768,-0.10888266563415527,-0.01438404805958271,-1.2258292436599731,1017.4751,
2021.02.11 15:19:55,44.0,24.0,21.42,2.8799999,-42.18,0.24421602,0.91700727,9.687236,0.004904026,-0.08497746,0.09166338,-0.09435036033391953,-0.025204746052622795,-1.2774628400802612,1017.47705,
2021.02.11 15:19:55,44.0,24.0,21.96,2.8799999,-42.0,0.43336374,1.0247496,9.553157,-0.012811066,-0.038551703,0.08127868,-0.10675061494112015,-0.045332327485084534,-1.2764264345169067,1017.47705,
2021.02.11 15:19:55,44.0,24.0,22.02,2.76,-42.059998,0.44054657,1.0917894,9.354432,-0.0060915486,0.023145683,0.053178877,-0.11606044322252274,-0.04706018418073654,-1.2681134939193726,1017.4768,
2021.02.11 15:19:55,44.0,24.0,22.08,2.6399999,-42.0,0.2681588,1.1061549,9.349643,-0.10077566,0.020702222,0.014083498,-0.11771449446678162,-0.028673319146037102,-1.259926676750183,1017.4822,
2021.02.11 15:19:55,44.0,24.0,22.02,2.46,-41.82,0.045491222,0.9768641,10.082292,-0.12704287,0.111110285,0.026911668,-0.09658662974834442,-0.004511961247771978,-1.287233829498291,1017.4822,
2021.02.11 15:19:55,44.0,24.0,22.199999,2.3999999,-41.82,0.4956149,1.3647367,10.022434,-0.010367605,0.06407365,0.10326982,-0.13517266511917114,-0.04941030219197273,-1.2572470903396606,1017.4817,
2021.02.11 15:19:55,44.0,24.0,22.74,2.3999999,-41.7,0.083799616,0.9481328,9.557945,-0.005480683,0.108666815,0.014083498,-0.098871149122715,-0.008767309598624706,-1.2971723079681396,1017.4817,
2021.02.11 15:19:55,44.0,24.0,22.38,2.46,-41.579998,0.4189981,0.8571504,9.61062,0.038501613,0.02742174,0.05195714,-0.08886850625276566,-0.043569814413785934,-1.325501799583435,1017.48364,
2021.02.11 15:19:55,44.0,24.0,22.8,2.52,-41.219997,0.33759275,0.9888355,9.531608,0.0030714304,0.035973854,0.01774869,-0.10330866277217865,-0.03540343791246414,-1.3022695779800415,1017.4829,
2021.02.11 15:19:56,44.0,24.0,22.68,2.46,-41.34,0.17238778,1.0822122,9.737515,-0.02258491,0.01215011,-0.03600745,-0.11066701263189316,-0.017701618373394012,-1.2815717458724976,1017.4829,
2021.02.11 15:19:56,44.0,24.0,22.32,2.3999999,-41.16,0.09577099,0.9241901,9.941029,-0.0073132785,-0.0122845005,-0.039672643,-0.09269651770591736,-0.009633613750338554,-1.3051830530166626,1017.48584,
2021.02.11 15:19:56,44.0,24.0,22.92,2.52,-41.219997,0.1699935,0.9337672,9.785401,0.071488336,-0.0086193085,-0.0048533245,-0.09512218087911606,-0.01737040840089321,-1.3069089651107788,1017.48584,
2021.02.11 15:19:56,44.0,24.0,22.56,2.52,-41.52,0.23224466,1.0486923,9.567522,0.055605844,-0.0037323865,-0.012794573,-0.10914188623428345,-0.024269506335258484,-1.283302664756775,1017.4895,
2021.02.11 15:19:56,44.0,24.0,22.439999,2.58,-41.399998,0.043096945,0.9696813,9.730332,0.05194065,0.008484919,-0.01829236,-0.09932660311460495,-0.00442910473793745,-1.2843834161758423,1017.47974,
2021.02.11 15:19:56,44.0,24.0,22.74,2.52,-41.52,0.15323359,0.94095,9.627379,0.045831997,-0.015338826,0.0024770587,-0.09741517901420593,-0.015915095806121826,-1.2994046211242676,1017.47974,
2021.02.11 15:19:56,44.0,24.0,22.68,2.28,-41.64,0.2681588,1.1372806,9.747093,0.032392964,-0.02144748,0.009807441,-0.11611019819974899,-0.027504729107022285,-1.2843714952468872,1017.48047,
2021.02.11 15:19:56,44.0,24.0,22.56,2.1,-42.18,0.2657645,1.0822122,9.457385,0.040945075,-0.015338826,-0.0024098635,-0.11389024555683136,-0.028093872591853142,-1.2915503978729248,1017.48047,
2021.02.11 15:19:56,44.0,24.0,22.56,1.9799999,-42.3,0.22745611,1.0917894,9.62259,0.0024605652,-0.020836612,-0.009740246,-0.11294664442539215,-0.02363331988453865,-1.2946983575820923,1017.4824,
2021.02.11 15:19:56,44.0,24.0,22.439999,2.1599998,-42.18,0.19633053,1.0870007,9.6585045,0.0030714304,-0.033053916,-0.0011881329,-0.11204884201288223,-0.02032441832125187,-1.2863236665725708,1017.4851,
2021.02.11 15:19:56,44.0,24.0,22.14,2.3999999,-42.3,0.25139886,1.1947432,9.462174,-0.018308854,-0.02144748,-0.00668592,-0.12555667757987976,-0.026562577113509178,-1.254830002784729,1017.4851,
2021.02.11 15:19:56,44.0,24.0,21.96,2.6399999,-42.0,0.15083931,0.9696813,9.799767,-0.05862596,-0.007397578,-0.0298988,-0.09861677139997482,-0.015390918590128422,-1.281473159790039,1017.47925,
2021.02.11 15:19:56,44.0,24.0,21.779999,2.58,-41.94,0.29210153,1.0941836,9.596253,-0.028082697,0.021923954,0.022024745,-0.11347953230142593,-0.030429724603891373,-1.2665902376174927,1017.47925,
2021.02.11 15:19:56,44.0,24.0,21.779999,2.6399999,-42.059998,0.26337022,1.0726352,9.541185,-0.045186926,0.009095783,0.0030879239,-0.11190925538539886,-0.027596503496170044,-1.264525055885315,1017.47363,
2021.02.11 15:19:56,44.0,24.0,21.66,2.28,-41.52,0.19393626,0.9337672,10.012857,-0.058015093,0.0158153,0.0030879239,-0.09297053515911102,-0.019366301596164703,-1.3062183856964111,1017.47437,
2021.02.11 15:19:56,44.0,24.0,21.359999,2.3999999,-41.46,0.22506183,1.036721,9.323306,0.0024605652,0.044525966,0.012861768,-0.1107097864151001,-0.024135015904903412,-1.2710953950881958,1017.47437,
2021.02.11 15:19:56,44.0,24.0,21.3,2.58,-41.579998,0.035914123,0.845179,9.763853,-0.053128175,0.029865202,0.012250902,-0.08634623140096664,-0.003678256878629327,-1.2916326522827148,1017.48096,
2021.02.11 15:19:57,44.0,24.0,21.48,2.46,-41.34,0.25858167,1.089395,9.718362,-0.020752314,0.018869627,0.045848493,-0.1115913912653923,-0.026601260527968407,-1.2707664966583252,1017.48096,
2021.02.11 15:19:57,44.0,24.0,21.779999,2.76,-41.46,0.13647367,0.87151605,9.840469,-0.042132597,0.03902818,-0.006075055,-0.08832555264234543,-0.013867724686861038,-1.2927887439727783,1017.48486,
2021.02.11 15:19:57,44.0,24.0,22.439999,2.7,-41.04,0.35914123,0.9984126,9.498088,-0.0024263568,0.029254338,0.012861768,-0.10465835779905319,-0.03779394552111626,-1.291300654411316,1017.4761,
2021.02.11 15:19:57,44.0,24.0,22.619999,2.7,-40.92,0.17238778,0.9505271,9.636956,-0.016476257,0.01215011,-0.032342263,-0.09829991310834885,-0.017886290326714516,-1.2928274869918823,1017.4761,
2021.02.11 15:19:57,44.0,24.0,22.26,2.9399998,-40.98,0.20111908,0.9074302,9.8787775,-0.034191348,0.025589146,-0.04822476,-0.09158060699701309,-0.020355889573693275,-1.2910480499267578,1017.4785,
2021.02.11 15:19:57,44.0,24.0,22.32,3.3,-40.92,0.026337024,0.818842,9.732727,0.009790948,0.0127609745,-0.021346685,-0.08393487334251404,-0.0027060206048190594,-1.2799656391143799,1017.4785,
2021.02.11 15:19:57,44.0,24.0,22.14,3.24,-41.579998,0.105348095,0.8475733,9.522031,0.033003826,-0.0037323865,0.03485292,-0.08877243846654892,-0.0110631650313735,-1.274798035621643,1017.4758,
2021.02.11 15:19:57,44.0,24.0,22.26,3.6599998,-41.46,0.076616794,0.8547561,9.838076,-0.01097847,-0.018393151,0.024468208,-0.08666220307350159,-0.007787624839693308,-1.2613598108291626,1017.468,
2021.02.11 15:19:57,44.0,24.0,22.92,4.08,-41.46,0.12929083,0.9385557,9.72315,0.0158996,0.009706649,0.028744265,-0.09622135013341904,-0.013296432793140411,-1.2417161464691162,1017.468,
2021.02.11 15:19:57,44.0,24.0,22.859999,3.54,-41.82,0.18196489,0.9313729,9.608225,0.012845274,0.018258762,0.016526958,-0.09661582857370377,-0.01893618516623974,-1.2630925178527832,1017.46826,
2021.02.11 15:19:57,44.0,24.0,23.1,3.6599998,-41.52,0.06943397,0.8547561,9.615408,-0.020752314,-6.780604E-4,0.021413881,-0.08865907788276672,-0.007220990024507046,-1.2681134939193726,1017.46826,
2021.02.11 15:19:57,44.0,24.0,23.16,3.48,-41.28,-0.016759925,0.84039044,9.818921,-0.012200201,-0.028166996,0.04096157,-0.0853806808590889,0.001706899143755436,-1.2767956256866455,1017.4724,
2021.02.11 15:19:57,44.0,24.0,23.039999,3.06,-41.579998,0.15562786,0.9313729,9.675264,0.019564793,-0.0043432517,0.03851811,-0.0959552600979805,-0.016083741560578346,-1.2839170694351196,1017.47217,
2021.02.11 15:19:57,44.0,24.0,23.1,3.4199998,-41.579998,0.15323359,0.87630457,9.553157,0.014067005,0.01215011,0.035463784,-0.09146164357662201,-0.016038723289966583,-1.2778003215789795,1017.47217,
2021.02.11 15:19:57,44.0,24.0,22.98,3.54,-41.34,0.27055305,0.9864412,9.624985,-0.0060915486,0.0035979962,0.028744265,-0.10209092497825623,-0.028102053329348564,-1.2631694078445435,1017.4746,
2021.02.11 15:19:57,44.0,24.0,23.22,3.3,-41.46,0.22506183,0.9529214,9.73991,-0.016476257,-0.025723536,0.01774869,-0.0975005254149437,-0.02310306765139103,-1.2787501811981201,1017.4746,
2021.02.11 15:19:57,44.0,24.0,22.619999,3.0,-41.34,0.21548474,0.90024734,9.905115,0.0018497,-0.026945267,0.023857342,-0.09061676263809204,-0.021751465275883675,-1.2938719987869263,1017.4741,
2021.02.11 15:19:58,44.0,24.0,22.56,2.7,-41.34,0.15562786,0.8978531,9.57231,0.012845274,-0.0031215216,0.005531385,-0.09351098537445068,-0.016256697475910187,-1.2974112033843994,1017.4656,
2021.02.11 15:19:58,44.0,24.0,22.26,2.3999999,-41.64,0.21548474,1.0079896,9.531608,-0.010367605,0.015204436,-0.00790765,-0.10533400624990463,-0.022603536024689674,-1.2891751527786255,1017.4656,
2021.02.11 15:19:58,44.0,24.0,21.72,2.34,-41.7,0.11971374,0.92658436,9.804555,-0.027471833,-6.719518E-5,-0.018903226,-0.0942186713218689,-0.01220940612256527,-1.2976295948028564,1017.4658,
2021.02.11 15:19:58,44.0,24.0,22.199999,2.82,-41.64,0.14605077,0.9026416,9.63935,0.0024605652,-0.01472796,0.013472633,-0.09335841983556747,-0.015150357037782669,-1.287023663520813,1017.4658,
2021.02.11 15:19:58,44.0,24.0,22.14,2.8799999,-41.52,0.15083931,0.8284191,9.536397,-0.009756739,-0.016560556,0.009196576,-0.08664087951183319,-0.01581590250134468,-1.2957955598831177,1017.46655,
2021.02.11 15:19:58,44.0,24.0,21.96,3.3,-41.16,0.17478207,0.8978531,9.663293,-0.029304428,-0.032443054,0.014694364,-0.0926327258348465,-0.018085245043039322,-1.269444465637207,1017.47046,
2021.02.11 15:19:58,44.0,24.0,21.66,3.24,-41.46,0.18435916,0.90982443,9.763853,-0.044576056,-0.030610459,0.0061422503,-0.09289815276861191,-0.018879560753703117,-1.2670471668243408,1017.47046,
2021.02.11 15:19:58,44.0,24.0,21.359999,3.1799998,-41.46,0.2370332,0.82123625,9.632168,-0.028082697,-0.033053916,0.008585712,-0.08502844721078873,-0.02460353448987007,-1.2821382284164429,1017.47046,
2021.02.11 15:19:58,44.0,24.0,21.06,3.24,-41.7,0.339987,0.8667275,9.462174,-0.021974044,-0.055655934,0.0061422503,-0.09128570556640625,-0.03591572120785713,-1.2714911699295044,1017.47046,
2021.02.11 15:19:58,44.0,24.0,20.58,3.48,-42.239998,0.20351335,0.7039168,9.900327,-0.056793362,-0.047714684,-0.022568416,-0.0709659680724144,-0.020553329959511757,-1.2792292833328247,1017.47,
2021.02.11 15:19:58,44.0,24.0,20.699999,3.54,-42.239998,0.25379312,0.73743665,9.830893,-0.028693562,-0.020225748,0.009196576,-0.07484710961580276,-0.02581014484167099,-1.2745989561080933,1017.47437,
2021.02.11 15:19:58,44.0,24.0,20.46,3.1799998,-42.48,0.22985038,0.6608198,9.79019,-0.018919718,0.010928379,0.025689937,-0.06737743318080902,-0.023473309352993965,-1.2980773448944092,1017.47437,
2021.02.11 15:19:58,44.0,24.0,20.22,3.54,-42.3,0.45491222,0.7996878,9.7135725,-0.01097847,0.0145935705,0.04096157,-0.0820520669221878,-0.04679844155907631,-1.2685914039611816,1017.47656,
2021.02.11 15:19:58,44.0,24.0,20.46,3.12,-42.059998,0.33519846,0.80687064,9.684841,-0.0012046263,0.017647898,0.0049205194,-0.0830712616443634,-0.034596819430589676,-1.2806968688964844,1017.47656,
2021.02.11 15:19:58,44.0,24.0,20.76,3.3,-42.0,0.22506183,0.6703969,9.699207,0.0018497,0.004819727,-0.0048533245,-0.06899046897888184,-0.023199982941150665,-1.2948271036148071,1017.47144,
2021.02.11 15:19:58,44.0,24.0,20.76,3.48,-41.7,0.27294734,0.68715686,9.634562,0.005514892,0.006041457,0.003698789,-0.0711730495095253,-0.02832244709134102,-1.2871448993682861,1017.4675,
2021.02.11 15:19:59,44.0,24.0,21.0,3.36,-41.76,0.31365,0.6703969,9.72315,-0.015254527,0.018869627,0.0024770587,-0.06880390644073486,-0.03224688023328781,-1.3010679483413696,1017.4675,
2021.02.11 15:19:59,44.0,24.0,21.06,3.4199998,-42.0,0.2681588,0.7206767,9.694419,-0.017087122,0.010928379,-5.7726767E-4,-0.07417459040880203,-0.027654100209474564,-1.2870080471038818,1017.4629,
2021.02.11 15:19:59,44.0,24.0,21.0,3.54,-41.94,0.24900457,0.6943397,9.613013,-0.006702414,-0.0018997908,-0.0030207285,-0.07207982987165451,-0.02589707262814045,-1.2840266227722168,1017.4629,
2021.02.11 15:19:59,44.0,24.0,21.24,3.72,-41.879997,0.20111908,0.66800267,9.749487,-0.03785654,5.4367003E-4,-0.0024098635,-0.06839527189731598,-0.020625757053494453,-1.2829489707946777,1017.47485,
2021.02.11 15:19:59,44.0,24.0,21.48,3.72,-41.94,0.21787901,0.69194543,9.785401,0.005514892,-0.0043432517,0.019581286,-0.07057707011699677,-0.02226204238831997,-1.282972812652588,1017.4746,
2021.02.11 15:19:59,44.0,24.0,21.779999,3.8999999,-41.7,0.31365,0.69673395,9.651321,0.0030714304,-0.0043432517,0.006753115,-0.07202761620283127,-0.03248670697212219,-1.283253788948059,1017.4746,
2021.02.11 15:19:59,44.0,24.0,21.66,3.6,-41.879997,0.2561874,0.6560313,9.7135725,0.0067366217,0.0017654005,-0.0017989981,-0.06741181761026382,-0.02636805735528469,-1.2977229356765747,1017.4812,
2021.02.11 15:19:59,44.0,24.0,21.48,3.6599998,-42.12,0.23224466,0.6895511,9.692024,0.0061257565,-0.0037323865,-0.0042424593,-0.07100624591112137,-0.023957865312695503,-1.2851918935775757,1017.4812,
2021.02.11 15:19:59,44.0,24.0,21.42,3.78,-42.0,0.1987248,0.679974,9.7135725,0.01345614,-0.01472796,0.003698789,-0.0698738843202591,-0.02045561373233795,-1.2797716856002808,1017.48145,
2021.02.11 15:19:59,44.0,24.0,21.119999,3.78,-42.0,0.30886146,0.70631105,9.58907,0.0158996,-0.0067867124,0.011029172,-0.07348717749118805,-0.03219860792160034,-1.2767431735992432,1017.47974,
2021.02.11 15:19:59,44.0,24.0,21.539999,3.78,-41.46,0.2561874,0.6560313,9.749487,0.010401813,-0.015949693,0.01774869,-0.06716440618038177,-0.026270968839526176,-1.2903825044631958,1017.47974,
2021.02.11 15:19:59,44.0,24.0,21.42,3.4199998,-41.34,0.33759275,0.7110996,9.60583,0.007347487,0.0042088614,0.012250902,-0.0738477036356926,-0.03513010963797569,-1.2976689338684082,1017.4802,
2021.02.11 15:19:59,44.0,24.0,21.539999,3.3,-41.579998,0.32562137,0.7134939,9.613013,0.0024605652,-0.0104519045,3.359759E-5,-0.07404351234436035,-0.03386003151535988,-1.3022693395614624,1017.4802,
2021.02.11 15:19:59,44.0,24.0,21.539999,3.3,-41.7,0.25139886,0.67279124,9.615408,-0.006702414,-0.0049541174,-0.0072967852,-0.06983248144388199,-0.02613946422934532,-1.3048920631408691,1017.4729,
2021.02.11 15:19:59,44.0,24.0,21.24,3.4199998,-42.12,0.31843856,0.76137936,9.660899,-0.014032797,-0.0122845005,-0.00668592,-0.07860533148050308,-0.03294965624809265,-1.2844045162200928,1017.4824,
2021.02.11 15:19:59,44.0,24.0,21.24,3.48,-42.36,0.29689008,0.7685622,9.677659,0.0067366217,-0.01350623,-0.003631594,-0.07921269536018372,-0.030668264254927635,-1.2789632081985474,1017.4824,
2021.02.11 15:19:59,44.0,24.0,21.0,3.3,-42.18,0.32562137,0.70870537,9.557945,0.0030714304,-0.011673635,-0.011572842,-0.07397009432315826,-0.034054964780807495,-1.2946960926055908,1017.47534,
2021.02.11 15:20:00,44.0,24.0,20.939999,3.54,-42.719997,0.339987,0.72546524,9.838076,-0.0073132785,-0.015949693,-0.011572842,-0.0735635831952095,-0.03454453870654106,-1.2836731672286987,1017.47534,
2021.02.11 15:20:00,44.0,24.0,21.0,3.54,-42.719997,0.32083282,0.749408,9.761458,0.011623544,-0.01106277,-0.018903226,-0.07658064365386963,-0.032855477184057236,-1.2782822847366333,1017.4834,
2021.02.11 15:20:00,44.0,24.0,20.88,3.48,-42.3,0.29689008,0.69194543,9.615408,0.022008253,0.0017654005,-0.013405438,-0.07180421054363251,-0.03086668625473976,-1.2874091863632202,1017.47925,
2021.02.11 15:20:00,44.0,24.0,21.0,4.02,-42.42,0.30167863,0.74701375,9.495694,-0.005480683,0.0035979962,-0.003631594,-0.07846757024526596,-0.031759362667798996,-1.255773901939392,1017.47925,
2021.02.11 15:20:00,44.0,24.0,20.939999,3.78,-42.239998,0.2370332,0.7637737,9.75667,-0.023195775,0.0035979962,-0.009129381,-0.07809993624687195,-0.024289699271321297,-1.2612460851669312,1017.4783,
2021.02.11 15:20:00,44.0,24.0,20.88,3.78,-42.36,0.30167863,0.7709565,9.668081,0.010401813,-0.0104519045,0.007974846,-0.07953552156686783,-0.03119344636797905,-1.261946678161621,1017.4783,
2021.02.11 15:20:00,44.0,24.0,21.0,4.14,-42.66,0.2849187,0.7901107,9.574705,0.004904026,-0.0012889256,0.0061422503,-0.08229781687259674,-0.02974865958094597,-1.2425872087478638,1017.4822,
2021.02.11 15:20:00,44.0,24.0,20.76,3.72,-42.719997,0.29689008,0.7996878,9.60583,-0.009756739,-6.719518E-5,0.0018661933,-0.08301926404237747,-0.030897442251443863,-1.25565767288208,1017.4878,
2021.02.11 15:20:00,44.0,24.0,20.34,3.6599998,-42.719997,0.2466103,0.7589851,9.72315,-0.015865391,-6.719518E-5,0.0024770587,-0.07787667959928513,-0.025357773527503014,-1.257796287536621,1017.4878,
2021.02.11 15:20:00,44.0,24.0,20.279999,3.78,-42.66,0.31365,0.7446195,9.624985,0.009790948,0.0035979962,0.014083498,-0.07716859877109528,-0.032575540244579315,-1.2579947710037231,1017.4868,
2021.02.11 15:20:00,44.0,24.0,20.34,3.6,-42.6,0.2753416,0.749408,9.636956,-0.003037222,0.0011545353,0.006753115,-0.07757624983787537,-0.02856365591287613,-1.263251543045044,1017.4868,
2021.02.11 15:20:00,44.0,24.0,20.76,3.48,-42.42,0.30167863,0.7829279,9.550762,-5.9376104E-4,0.009095783,0.0030879239,-0.08175195008516312,-0.03157636523246765,-1.2689673900604248,1017.4868,
2021.02.11 15:20:00,44.0,24.0,21.18,3.36,-42.239998,0.1987248,0.6751855,9.73991,-0.0048698178,-0.0086193085,-0.0011881329,-0.06919644773006439,-0.020400315523147583,-1.2947783470153809,1017.4812,
2021.02.11 15:20:00,44.0,24.0,21.48,3.06,-42.059998,0.36632404,0.7446195,9.553157,0.012845274,0.004819727,0.006753115,-0.0777306854724884,-0.038327086716890335,-1.3062758445739746,1017.4812,
2021.02.11 15:20:00,44.0,24.0,21.539999,3.3,-41.76,0.28970724,0.71588814,9.696813,-0.0073132785,0.0011545353,-0.0042424593,-0.0736607164144516,-0.029867658391594887,-1.3003160953521729,1017.4844,
2021.02.11 15:20:00,44.0,24.0,20.82,3.48,-41.82,0.28970724,0.7302538,9.701602,0.004904026,5.4367003E-4,-0.0017989981,-0.07509644329547882,-0.02985292300581932,-1.2817511558532715,1017.4844,
2021.02.11 15:20:00,44.0,24.0,20.939999,3.8999999,-41.82,0.27055305,0.69194543,9.627379,0.0061257565,0.0042088614,-0.0011881329,-0.07172108441591263,-0.028095068410038948,-1.2705858945846558,1017.48584,
2021.02.11 15:20:01,44.0,24.0,20.64,3.8999999,-41.579998,0.25139886,0.69912827,9.687236,-0.0024263568,-0.0012889256,-0.003631594,-0.07202097773551941,-0.02594573423266411,-1.2655017375946045,1017.47754,
2021.02.11 15:20:01,44.0,24.0,20.699999,3.6599998,-41.219997,0.34716985,0.7589851,9.63935,-0.017697988,-0.0061758477,-0.0048533245,-0.07852537930011749,-0.036000337451696396,-1.2722944021224976,1017.47754,
2021.02.11 15:20:01,44.0,24.0,21.24,3.78,-41.04,0.18435916,0.679974,9.845258,0.007958353,0.0035979962,-0.0011881329,-0.06894459575414658,-0.018723493441939354,-1.2806333303451538,1017.4729,
2021.02.11 15:20:01,44.0,24.0,21.119999,3.6,-41.28,0.35435268,0.7589851,9.519637,0.019564793,-0.018393151,0.007974846,-0.07950524240732193,-0.03720616176724434,-1.2789256572723389,1017.4729,
2021.02.11 15:20:01,44.0,24.0,20.88,3.6,-41.64,0.32801566,0.7398309,9.759064,-0.01097847,-0.022058344,-0.009740246,-0.07562234252691269,-0.03359873965382576,-1.2793083190917969,1017.4729,
2021.02.11 15:20:01,44.0,24.0,20.88,3.84,-42.36,0.3328042,0.8140534,9.60583,6.2796945E-4,-0.01106277,-0.016459765,-0.08449329435825348,-0.034632209688425064,-1.253352165222168,1017.4678,
2021.02.11 15:20:01,44.0,24.0,20.58,3.6,-42.84,0.27294734,0.6392714,9.694419,0.0061257565,-0.015949693,-0.017681494,-0.06582087278366089,-0.028147663921117783,-1.2862008810043335,1017.4678,
2021.02.11 15:20:01,44.0,24.0,20.4,3.6599998,-42.42,0.31125572,0.7637737,9.620196,1.7104227E-5,0.01215011,-0.0042424593,-0.07918528467416763,-0.032343119382858276,-1.2616530656814575,1017.4685,
2021.02.11 15:20:01,44.0,24.0,20.64,3.72,-42.66,0.29928434,0.7853221,9.725544,-0.02136318,0.018869627,-0.015238034,-0.08053562045097351,-0.030763309448957443,-1.25838303565979,1017.4685,
2021.02.11 15:20:01,44.0,24.0,20.279999,3.4199998,-42.719997,0.33759275,0.7996878,9.684841,-0.009756739,-0.0067867124,-0.034174856,-0.08233439922332764,-0.034843746572732925,-1.265283465385437,1017.4646,
2021.02.11 15:20:01,44.0,24.0,20.4,3.84,-42.719997,0.23224466,0.71588814,9.627379,0.0024605652,0.0145935705,-0.054333407,-0.07420149445533752,-0.02411867491900921,-1.2567282915115356,1017.4585,
2021.02.11 15:20:01,44.0,24.0,20.58,3.8999999,-42.54,0.34956414,0.6560313,9.715967,-0.007924144,0.018258762,-0.032342263,-0.06737515330314636,-0.03596280515193939,-1.2762455940246582,1017.4585,
2021.02.11 15:20:01,44.0,24.0,20.699999,4.14,-42.3,0.21787901,0.7733508,9.613013,-0.027471833,0.064684525,-0.03600745,-0.08025490492582321,-0.022661127150058746,-1.2382115125656128,1017.4656,
2021.02.11 15:20:01,44.0,24.0,21.18,4.44,-42.0,0.22985038,0.6703969,9.802161,0.062936224,0.061630197,-0.008518515,-0.06826771050691605,-0.023444652557373047,-1.2541817426681519,1017.4656,
2021.02.11 15:20:01,44.0,24.0,21.18,4.02,-41.7,0.2083019,0.723071,9.445415,0.029338636,0.05307808,0.015916094,-0.07638507336378098,-0.02204965613782406,-1.2576537132263184,1017.4673,
2021.02.11 15:20:01,44.0,24.0,21.42,4.02,-41.879997,0.41420954,0.8140534,9.917087,-0.018919718,0.109888546,0.02019215,-0.08183129131793976,-0.041742999106645584,-1.2632076740264893,1017.4636,
2021.02.11 15:20:02,44.0,24.0,21.6,4.14,-41.94,-0.11253092,0.6464542,9.196409,0.023840848,0.15020566,-0.029287932,-0.07017352432012558,0.012235786765813828,-1.2464709281921387,1017.4636,
2021.02.11 15:20:02,44.0,24.0,21.66,3.8999999,-41.76,-0.035914123,0.5602603,9.5244255,-0.014643662,0.011539245,0.026300803,-0.05875539779663086,0.0037707211449742317,-1.2836309671401978,1017.4712,
2021.02.11 15:20:02,44.0,24.0,21.9,4.02,-41.28,0.026337024,0.7589851,9.668081,-0.029915292,0.048802026,0.04829195,-0.07834324985742569,-0.002724114339798689,-1.2532943487167358,1017.4712,
2021.02.11 15:20:02,44.0,24.0,22.26,3.8999999,-41.219997,0.07422252,0.76616794,9.598648,-0.0012046263,0.079345286,0.03668551,-0.07964916527271271,-0.007732447236776352,-1.2639673948287964,1017.47314,
2021.02.11 15:20:02,44.0,24.0,22.32,3.3,-41.219997,0.2466103,0.7781393,9.60583,0.015288736,0.034141257,0.022635613,-0.08080397546291351,-0.0256673451513052,-1.2967854738235474,1017.46875,
2021.02.11 15:20:02,44.0,24.0,22.32,3.4199998,-41.64,0.31604427,0.70870537,11.190841,-0.14659056,-0.13812274,-0.022568416,-0.06321945786476135,-0.028233829885721207,-1.3205604553222656,1017.46875,
