Time,X-cord,Y-cord,Mag_x,Mag_y,Mag_z,Acc_x,Acc_y,Acc_z,Gyro_x,Gyro_y,Gyro_z,Orn_x,Orn_y,Orn_z,Pressure,
2021.02.11 15:32:53,79.0,11.0,22.92,5.2799997,-25.68,0.031125572,0.5818088,9.12937,0.054994974,0.08484307,-0.08060062,-0.06364291161298752,-0.0034093759022653103,-1.279524803161621,1017.24805,
2021.02.11 15:32:53,79.0,11.0,23.4,5.1,-25.56,-0.19633053,0.35435268,9.787795,-0.029304428,-0.20776138,-0.032342263,-0.03618044778704643,0.020056018605828285,-1.3128081560134888,1017.2346,
2021.02.11 15:32:53,79.0,11.0,23.699999,5.3399997,-25.14,-0.011971374,0.63208854,9.897932,-0.048852116,-0.13262495,0.09471771,-0.06377401947975159,0.0012094818521291018,-1.2858525514602661,1017.23926,
2021.02.11 15:32:53,79.0,11.0,23.34,4.8599997,-25.14,0.31125572,0.63208854,9.651321,-0.020141449,-0.09291871,0.12587184,-0.06536515057086945,-0.03223888948559761,-1.3100053071975708,1017.23926,
2021.02.11 15:32:53,79.0,11.0,23.46,4.92,-25.619999,0.08140534,0.5363176,9.486116,0.0061257565,-0.0031215216,0.06845051,-0.05647491291165352,-0.008581314235925674,-1.3089144229888916,1017.2449,
2021.02.11 15:32:53,79.0,11.0,22.98,4.5,-25.8,0.16041641,0.5913859,9.653716,-0.012200201,-0.042216897,0.077002615,-0.061175040900707245,-0.01661553420126438,-1.3180327415466309,1017.2449,
2021.02.11 15:32:54,79.0,11.0,22.92,4.2599998,-26.22,0.24421602,0.5458947,10.048771,-0.048852116,-0.047714684,0.069672234,-0.05425518751144409,-0.0242982916533947,-1.3355355262756348,1017.24585,
2021.02.11 15:32:54,79.0,11.0,23.4,4.2,-25.92,0.49800915,0.70631105,8.719949,-0.030526157,-0.0037323865,0.063563585,-0.08069208264350891,-0.057049501687288284,-1.3275349140167236,1017.2395,
2021.02.11 15:32:54,79.0,11.0,23.4,4.14,-25.859999,0.35674694,0.5602603,9.397529,-0.101386525,0.004819727,0.016526958,-0.059504590928554535,-0.037943560630083084,-1.3442249298095703,1017.2395,
2021.02.11 15:32:54,79.0,11.0,23.699999,4.56,-25.68,0.21069619,0.57462597,9.933846,-0.18568593,-0.060542855,-0.03356399,-0.05776790902018547,-0.021206751465797424,-1.327919602394104,1017.2473,
2021.02.11 15:32:54,79.0,11.0,24.18,4.3199997,-25.26,0.20111908,0.3974496,10.099051,-0.08122797,0.02375655,0.012250902,-0.03932705149054527,-0.01991201937198639,-1.3596060276031494,1017.2473,
2021.02.11 15:32:54,79.0,11.0,24.6,4.44,-25.32,0.23463893,0.32083282,9.555551,0.02750604,0.021313088,0.050735414,-0.033552829176187515,-0.024550316855311394,-1.3648900985717773,1017.2444,
2021.02.11 15:32:54,79.0,11.0,24.66,4.8599997,-25.019999,0.3974496,0.26337022,9.651321,0.020175658,0.013982705,0.063563585,-0.027258649468421936,-0.041157595813274384,-1.3592755794525146,1017.2444,
2021.02.11 15:32:54,79.0,11.0,24.42,4.98,-25.199999,0.42378664,0.5147691,9.775824,-0.0048698178,0.04330424,0.025079073,-0.0525594986975193,-0.04332335665822029,-1.3306946754455566,1017.2444,
2021.02.11 15:32:54,79.0,11.0,24.0,5.64,-25.5,0.43815228,0.66321415,9.77343,0.01467787,0.034752123,0.012250902,-0.0676872506737709,-0.04480096697807312,-1.2887903451919556,1017.23413,
2021.02.11 15:32:54,79.0,11.0,23.519999,5.7599998,-25.68,0.12689656,0.34716985,9.780613,0.021397388,0.010928379,-0.056166004,-0.035477835685014725,-0.012973567470908165,-1.2986420392990112,1017.23413,
2021.02.11 15:32:54,79.0,11.0,23.82,5.22,-26.279999,0.083799616,0.35674694,9.60583,0.030560365,0.01215011,-0.034174856,-0.03712011128664017,-0.008723607286810875,-1.3191028833389282,1017.23267,
2021.02.11 15:32:54,79.0,11.0,24.18,5.2799997,-25.74,0.15323359,0.3902668,9.601042,0.01467787,0.006041457,-0.0011881329,-0.040620844811201096,-0.015958745032548904,-1.3197706937789917,1017.2446,
2021.02.11 15:32:54,79.0,11.0,24.119999,5.16,-25.8,0.27294734,0.5698374,9.624985,0.011623544,-0.0025106561,0.009807441,-0.05911124125123024,-0.02835061214864254,-1.309828519821167,1017.2446,
2021.02.11 15:32:54,79.0,11.0,24.42,5.1,-25.619999,0.15802214,0.4644893,9.833286,0.009180083,-0.0031215216,-0.012794573,-0.04719525948166847,-0.01606874167919159,-1.322892665863037,1017.24927,
2021.02.11 15:32:54,79.0,11.0,24.24,5.52,-25.08,0.09337672,0.47167215,9.44302,0.029338636,0.018869627,-0.006075055,-0.04990537837147713,-0.009888115338981152,-1.3017337322235107,1017.24927,
2021.02.11 15:32:54,79.0,11.0,24.06,5.4,-25.32,0.043096945,0.45012367,9.680053,-0.016476257,0.009706649,0.009807441,-0.046466197818517685,-0.004452110268175602,-1.30559241771698,1017.2439,
2021.02.11 15:32:55,79.0,11.0,24.24,5.16,-25.199999,0.14605077,0.54350036,9.529214,-0.012811066,0.009095783,0.028133398,-0.05696677044034004,-0.015325432643294334,-1.3102366924285889,1017.2439,
2021.02.11 15:32:55,79.0,11.0,24.24,5.04,-24.96,0.27055305,0.54828894,9.727939,-0.009756739,-0.0049541174,0.03179859,-0.056281015276908875,-0.027804793789982796,-1.3195418119430542,1017.2439,
2021.02.11 15:32:55,79.0,11.0,24.359999,4.74,-25.14,0.18675344,0.50758624,9.826104,-0.02258491,0.0127609745,0.012861768,-0.05160173773765564,-0.01900355890393257,-1.3334901332855225,1017.2456,
2021.02.11 15:32:55,79.0,11.0,24.48,4.62,-25.199999,0.2466103,0.4668836,9.727939,-0.00853501,0.015204436,6.444628E-4,-0.047941919416189194,-0.025345295667648315,-1.3440937995910645,1017.2456,
2021.02.11 15:32:55,79.0,11.0,24.539999,4.8599997,-25.14,0.22027329,0.49082634,9.591465,-0.0048698178,-0.023280075,-0.012794573,-0.051115185022354126,-0.022961515933275223,-1.332149863243103,1017.24316,
2021.02.11 15:32:55,79.0,11.0,24.539999,4.56,-25.32,0.28013015,0.50758624,9.672871,0.0018497,0.002987131,-0.035396587,-0.0524052269756794,-0.028952302411198616,-1.3435308933258057,1017.2471,
2021.02.11 15:32:55,79.0,11.0,24.539999,4.56,-25.26,0.22027329,0.4932206,9.761458,0.007958353,-0.018393151,-0.058609467,-0.05047158524394035,-0.022561782971024513,-1.343726396560669,1017.2471,
2021.02.11 15:32:55,79.0,11.0,24.3,4.62,-25.439999,0.15562786,0.49800915,9.814133,0.020786522,-0.014117096,-0.062274657,-0.05069423094391823,-0.015856197103857994,-1.3369587659835815,1017.2471,
2021.02.11 15:32:55,79.0,11.0,24.119999,4.56,-25.619999,0.076616794,0.4644893,9.586677,0.011623544,0.009095783,-0.06349639,-0.04841214418411255,-0.007991837337613106,-1.3372982740402222,1017.2471,
2021.02.11 15:32:55,79.0,11.0,24.3,5.04,-25.56,0.11253092,0.4860378,9.763853,0.005514892,-0.0049541174,-0.057387736,-0.049734946340322495,-0.011524747125804424,-1.3203821182250977,1017.2539,
2021.02.11 15:32:55,79.0,11.0,24.06,5.04,-25.619999,0.14126222,0.5698374,9.62259,0.014067005,0.0017654005,-0.05188995,-0.059143275022506714,-0.014679214917123318,-1.3098530769348145,1017.24927,
2021.02.11 15:32:55,79.0,11.0,24.24,5.3399997,-25.68,0.11253092,0.55786604,9.696813,0.01467787,-0.012895366,-0.050668217,-0.05746366083621979,-0.011604417115449905,-1.3008285760879517,1017.24927,
2021.02.11 15:32:55,79.0,11.0,24.3,5.4,-25.98,0.09337672,0.5147691,9.574705,0.01712133,-0.0031215216,-0.0439487,-0.053709182888269424,-0.009752129204571247,-1.3015872240066528,1017.25854,
2021.02.11 15:32:55,79.0,11.0,24.119999,5.46,-25.8,0.07422252,0.4932206,9.763853,0.012845274,-0.0104519045,-0.031731397,-0.05047059431672096,-0.007601619232445955,-1.3001906871795654,1017.25854,
2021.02.11 15:32:55,79.0,11.0,24.6,5.7,-25.74,0.19154198,0.6296943,9.675264,0.0067366217,-0.01106277,-0.026233608,-0.06497853994369507,-0.019794493913650513,-1.286811113357544,1017.2573,
2021.02.11 15:32:55,79.0,11.0,24.18,5.2799997,-25.199999,0.10055954,0.55307746,9.72315,0.01467787,-0.0049541174,-0.01951409,-0.05681827664375305,-0.010341910645365715,-1.3036692142486572,1017.2551,
2021.02.11 15:32:55,79.0,11.0,24.6,5.52,-25.08,0.12450229,0.50758624,9.6896305,0.021397388,0.006652322,-0.00668592,-0.0523323230445385,-0.012848315760493279,-1.3041229248046875,1017.2551,
2021.02.11 15:32:56,79.0,11.0,24.42,5.64,-25.26,0.15323359,0.5794145,9.720756,0.005514892,-0.0049541174,0.008585712,-0.05952809005975723,-0.015762241557240486,-1.2917633056640625,1017.2556,
2021.02.11 15:32:56,79.0,11.0,23.699999,5.22,-25.199999,0.18675344,0.5602603,9.62259,0.0036822958,0.008484919,0.011029172,-0.05814685299992561,-0.01940537616610527,-1.3025104999542236,1017.2556,
2021.02.11 15:32:56,79.0,11.0,23.64,5.3399997,-25.619999,0.19393626,0.51955765,9.694419,6.2796945E-4,0.0035979962,0.009807441,-0.053531572222709656,-0.020002270117402077,-1.3010066747665405,1017.25586,
2021.02.11 15:32:56,79.0,11.0,23.279999,5.22,-25.8,0.22266756,0.5865973,9.720756,0.0024605652,-0.0031215216,0.010418306,-0.06025596708059311,-0.02290239930152893,-1.2958630323410034,1017.2522,
2021.02.11 15:32:56,79.0,11.0,23.1,4.98,-26.16,0.16520496,0.53392327,9.584282,0.0036822958,0.004819727,3.359759E-5,-0.055642448365688324,-0.017235364764928818,-1.3052256107330322,1017.2522,
2021.02.11 15:32:56,79.0,11.0,23.58,5.4,-26.22,0.10774237,0.44772938,9.895537,-0.007924144,-0.019004017,-0.0017989981,-0.045212071388959885,-0.01088754553347826,-1.3022257089614868,1017.25024,
2021.02.11 15:32:56,79.0,11.0,23.64,5.16,-26.34,0.28970724,0.53871185,9.60583,0.0036822958,0.0035979962,0.01897042,-0.05599766597151756,-0.030150383710861206,-1.3074175119400024,1017.25024,
2021.02.11 15:32:56,79.0,11.0,23.519999,5.16,-26.34,0.15083931,0.52674043,9.7135725,-0.020141449,-0.0055649825,-0.0072967852,-0.05416768044233322,-0.015527469106018543,-1.303251028060913,1017.2532,
2021.02.11 15:32:56,79.0,11.0,23.64,5.16,-26.16,0.16520496,0.5698374,9.663293,-0.017697988,-0.0104519045,-0.0042424593,-0.05889248102903366,-0.01709447056055069,-1.3007416725158691,1017.2427,
2021.02.11 15:32:56,79.0,11.0,23.46,5.04,-26.4,0.16759923,0.5243462,9.77343,-0.013421931,-0.016560556,-0.0054641897,-0.05359091982245445,-0.017146773636341095,-1.3082680702209473,1017.2427,
2021.02.11 15:32:56,79.0,11.0,23.22,5.52,-26.4,0.15562786,0.54350036,9.72315,-0.015254527,-6.780604E-4,-0.00790765,-0.055832311511039734,-0.016004543751478195,-1.2843214273452759,1017.2444,
2021.02.11 15:32:56,79.0,11.0,22.98,5.52,-25.92,0.20111908,0.5554718,9.656111,0.0012388347,-0.0037323865,-0.00790765,-0.05744965374469757,-0.020825155079364777,-1.282583236694336,1017.2444,
2021.02.11 15:32:56,79.0,11.0,23.039999,5.3399997,-25.98,0.12210801,0.54350036,9.754275,-0.0042589526,-0.0061758477,-0.014627169,-0.0556572861969471,-0.012517754919826984,-1.2891147136688232,1017.2444,
2021.02.11 15:32:56,79.0,11.0,22.92,5.04,-25.56,0.15562786,0.5458947,9.656111,0.0024605652,0.006652322,-0.0024098635,-0.05646616593003273,-0.016115637496113777,-1.3009167909622192,1017.2468,
2021.02.11 15:32:56,79.0,11.0,23.039999,4.44,-25.5,0.1699935,0.5770202,9.6585045,0.008569217,-0.007397578,0.0024770587,-0.05966205149888992,-0.017598578706383705,-1.3235396146774292,1017.2468,
2021.02.11 15:32:56,79.0,11.0,22.98,4.14,-25.8,0.17478207,0.6201172,9.766247,0.0036822958,-0.0018997908,0.0024770587,-0.06340070068836212,-0.01789463311433792,-1.330621361732483,1017.2461,
2021.02.11 15:32:57,79.0,11.0,22.619999,4.38,-25.74,0.11492519,0.55307746,9.651321,0.014067005,0.0042088614,-5.7726767E-4,-0.05723922699689865,-0.011907153762876987,-1.321772575378418,1017.2461,
2021.02.11 15:32:57,79.0,11.0,22.56,4.74,-25.68,0.18435916,0.54828894,9.859624,0.0030714304,-0.016560556,0.012250902,-0.05554261431097984,-0.018696218729019165,-1.3105320930480957,1017.25024,
2021.02.11 15:32:57,79.0,11.0,22.8,5.04,-25.859999,0.22027329,0.679974,9.447808,0.005514892,0.002987131,0.016526958,-0.07182828336954117,-0.023310525342822075,-1.2862048149108887,1017.24756,
2021.02.11 15:32:57,79.0,11.0,22.68,5.2799997,-25.859999,0.12210801,0.53871185,9.653716,0.0061257565,-0.007397578,-5.7726767E-4,-0.05574130266904831,-0.012648134492337704,-1.2875407934188843,1017.24756,
2021.02.11 15:32:57,79.0,11.0,22.92,5.4,-25.98,0.102953814,0.5818088,9.766247,0.004293161,0.0017654005,0.006753115,-0.05949980020523071,-0.010541408322751522,-1.2807995080947876,1017.24194,
2021.02.11 15:32:57,79.0,11.0,22.92,5.3399997,-26.4,0.22027329,0.60335726,9.615408,0.008569217,0.009095783,0.016526958,-0.06265044957399368,-0.02290435880422592,-1.2834978103637695,1017.24194,
2021.02.11 15:32:57,79.0,11.0,22.92,5.3399997,-26.22,0.14126222,0.5602603,9.665688,-0.003037222,-0.007397578,0.003698789,-0.05789288133382797,-0.014613772742450237,-1.2857142686843872,1017.23926,
2021.02.11 15:32:57,79.0,11.0,23.16,5.52,-26.279999,0.20111908,0.5985687,9.63935,6.2796945E-4,0.002987131,0.011029172,-0.06200328469276428,-0.02086135558784008,-1.2794727087020874,1017.24365,
2021.02.11 15:32:57,79.0,11.0,22.859999,5.4,-26.4,0.09577099,0.5698374,9.61062,-0.014032797,-0.0025106561,-0.003631594,-0.05922020226716995,-0.009964792057871819,-1.2792246341705322,1017.24365,
2021.02.11 15:32:57,79.0,11.0,23.1,5.46,-26.4,0.1987248,0.6057515,9.60583,6.2796945E-4,-0.0043432517,0.014694364,-0.06296399235725403,-0.0206849854439497,-1.279821515083313,1017.2539,
2021.02.11 15:32:57,79.0,11.0,23.279999,5.4,-26.279999,0.12929083,0.54350036,9.75667,-0.0060915486,-0.0055649825,0.0049205194,-0.055643126368522644,-0.01325075700879097,-1.2891514301300049,1017.2539,
2021.02.11 15:32:57,79.0,11.0,22.859999,5.4,-26.099998,0.17238778,0.6201172,9.61062,-0.0012046263,0.002987131,0.009196576,-0.06442450731992722,-0.017935294657945633,-1.2775654792785645,1017.25146,
2021.02.11 15:32:57,79.0,11.0,23.22,5.22,-25.98,0.16520496,0.5913859,9.632168,-0.012811066,-6.780604E-4,0.0012553281,-0.06131100282073021,-0.017149697989225388,-1.2918397188186646,1017.25635,
2021.02.11 15:32:57,79.0,11.0,23.1,5.04,-25.8,0.11492519,0.5650489,9.759064,-0.017697988,-0.0037323865,0.0024770587,-0.057831332087516785,-0.011775707826018333,-1.2995975017547607,1017.25635,
2021.02.11 15:32:57,79.0,11.0,22.859999,5.1,-25.8,0.105348095,0.52674043,9.783007,-0.020141449,-0.011673635,0.0030879239,-0.053787339478731155,-0.010768061503767967,-1.2982630729675293,1017.251,
2021.02.11 15:32:57,79.0,11.0,23.519999,4.98,-25.74,0.18435916,0.55307746,9.596253,-0.0042589526,-0.0055649825,0.012861768,-0.05756044387817383,-0.01920921355485916,-1.309276819229126,1017.251,
2021.02.11 15:32:57,79.0,11.0,23.4,5.1,-25.68,0.18196489,0.5865973,9.763853,-0.007924144,-0.0049541174,0.011029172,-0.059995945543050766,-0.018634429201483727,-1.300923228263855,1017.2583,
2021.02.11 15:32:58,79.0,11.0,23.16,5.1,-25.619999,0.12450229,0.56265455,9.783007,-0.0036480871,-0.0086193085,-0.0030207285,-0.057445526123046875,-0.012725695967674255,-1.2989753484725952,1017.2488,
2021.02.11 15:32:58,79.0,11.0,22.859999,5.1,-25.199999,0.17238778,0.53871185,9.668081,0.019564793,-0.012895366,6.444628E-4,-0.055654264986515045,-0.017828719690442085,-1.2999614477157593,1017.2488,
2021.02.11 15:32:58,79.0,11.0,22.56,4.74,-25.199999,0.16281068,0.5458947,9.641745,0.020175658,-0.01472796,6.444628E-4,-0.05654940381646156,-0.016884416341781616,-1.3099348545074463,1017.2495,
2021.02.11 15:32:58,79.0,11.0,22.38,4.98,-25.199999,0.18196489,0.5554718,9.660899,0.017732197,-0.0043432517,6.444628E-4,-0.057423509657382965,-0.018832964822649956,-1.2979718446731567,1017.2495,
2021.02.11 15:32:58,79.0,11.0,22.439999,5.22,-25.74,0.12929083,0.5458947,9.634562,0.018343061,-0.0012889256,3.359759E-5,-0.05659443885087967,-0.013418677262961864,-1.2867881059646606,1017.251,
2021.02.11 15:32:58,79.0,11.0,22.56,4.98,-26.16,0.117319465,0.505192,9.538791,0.015288736,-6.719518E-5,0.015916094,-0.05290841683745384,-0.012298576533794403,-1.3004121780395508,1017.2468,
2021.02.11 15:32:58,79.0,11.0,22.32,4.8599997,-26.4,0.1699935,0.59378016,9.519637,0.0036822958,-6.719518E-5,0.025689937,-0.06228364259004593,-0.017855243757367134,-1.2942041158676147,1017.2468,
2021.02.11 15:32:58,79.0,11.0,22.38,4.8599997,-26.16,0.21309046,0.65124273,9.809344,-0.017697988,-0.0037323865,0.017137825,-0.0662771612405777,-0.02171979658305645,-1.292731761932373,1017.2461,
2021.02.11 15:32:58,79.0,11.0,22.56,4.68,-25.8,0.31125572,0.6464542,9.615408,-0.0036480871,0.0127609745,0.012861768,-0.06709501892328262,-0.03235922008752823,-1.305650234222412,1017.2461,
2021.02.11 15:32:58,79.0,11.0,22.56,4.7999997,-25.8,0.17238778,0.60335726,9.715967,-0.017087122,0.020091359,-0.021957552,-0.062010180205106735,-0.017740868031978607,-1.3009897470474243,1017.2473,
2021.02.11 15:32:58,79.0,11.0,22.98,5.16,-25.8,0.14126222,0.22506183,9.340066,0.010401813,0.059186734,-0.040894374,-0.024088969454169273,-0.015123174525797367,-1.3286546468734741,1017.2444,
2021.02.11 15:32:58,79.0,11.0,23.279999,5.04,-25.56,0.18435916,0.5602603,9.352037,0.024451714,0.002987131,6.444628E-4,-0.05982472747564316,-0.019710708409547806,-1.3027364015579224,1017.2444,
2021.02.11 15:32:58,79.0,11.0,23.519999,5.16,-25.32,0.083799616,0.59378016,9.603436,-0.013421931,-0.017782288,-0.008518515,-0.061749011278152466,-0.008725780993700027,-1.2957295179367065,1017.249,
2021.02.11 15:32:58,79.0,11.0,23.82,5.22,-25.439999,0.05027977,0.6440599,9.581888,-0.026250102,-0.01472796,-0.0017989981,-0.06711450964212418,-0.005247327499091625,-1.2900978326797485,1017.249,
2021.02.11 15:32:58,79.0,11.0,23.699999,5.1,-25.38,0.06943397,0.57462597,9.747093,-0.024417505,-0.023280075,0.0061422503,-0.05888392776250839,-0.007123436313122511,-1.302128553390503,1017.24854,
2021.02.11 15:32:58,79.0,11.0,23.64,4.92,-25.68,0.15083931,0.5865973,9.629773,-0.0073132785,-0.022058344,0.015305229,-0.060832347720861435,-0.01566256769001484,-1.3086825609207153,1017.2566,
2021.02.11 15:32:58,79.0,11.0,23.34,4.74,-25.68,0.08619389,0.505192,9.550762,-0.0060915486,-0.026945267,0.009807441,-0.05284406244754791,-0.009024572558701038,-1.3184083700180054,1017.2566,
2021.02.11 15:32:59,79.0,11.0,23.34,4.98,-25.38,0.102953814,0.5123748,9.656111,-0.014643662,-0.02144748,0.023246476,-0.0530095100402832,-0.010661632753908634,-1.3098502159118652,1017.26025,
2021.02.11 15:32:59,79.0,11.0,23.34,5.1,-25.26,0.14605077,0.5913859,9.694419,-0.018308854,-0.0122845005,0.02935513,-0.06092032045125961,-0.015064309351146221,-1.2991231679916382,1017.26025,
2021.02.11 15:32:59,79.0,11.0,22.74,5.16,-25.619999,0.13647367,0.6057515,9.627379,-0.010367605,-0.007397578,0.027522534,-0.06283053755760193,-0.014174629002809525,-1.2869890928268433,1017.25244,
2021.02.11 15:32:59,79.0,11.0,22.859999,5.3399997,-25.619999,0.06464542,0.45970076,9.778218,-0.007924144,-0.01472796,0.029965993,-0.04697711393237114,-0.006611068733036518,-1.2944884300231934,1017.2488,
2021.02.11 15:32:59,79.0,11.0,22.8,5.22,-25.859999,0.2370332,0.5602603,9.534002,0.0012388347,0.010928379,0.05134628,-0.05867884308099747,-0.024856755509972572,-1.292576789855957,1017.2488,
2021.02.11 15:32:59,79.0,11.0,22.68,5.4,-25.98,0.34716985,0.5913859,9.672871,-0.017697988,0.0011545353,0.028744265,-0.06102341413497925,-0.03587568923830986,-1.285394310951233,1017.25244,
2021.02.11 15:32:59,79.0,11.0,23.22,5.94,-25.74,0.28731298,0.6344828,9.744699,-0.020141449,-0.0043432517,0.0043096542,-0.06499061733484268,-0.029475491493940353,-1.265487790107727,1017.25244,
2021.02.11 15:32:59,79.0,11.0,23.1,5.8799996,-25.92,0.06943397,0.5123748,9.5794935,-0.011589335,-0.0012889256,-0.014627169,-0.05343431606888771,-0.007248061243444681,-1.2690964937210083,1017.24756,
2021.02.11 15:32:59,79.0,11.0,22.92,5.7599998,-26.099998,0.076616794,0.49800915,9.629773,-0.0048698178,0.0023762658,-5.7726767E-4,-0.05166790261864662,-0.007956072688102722,-1.2732927799224854,1017.24365,
2021.02.11 15:32:59,79.0,11.0,23.16,5.3399997,-25.92,0.20351335,0.5602603,9.754275,-0.0036480871,0.007263188,0.017137825,-0.057361915707588196,-0.020860988646745682,-1.2917547225952148,1017.24365,
2021.02.11 15:32:59,79.0,11.0,23.34,5.04,-26.039999,0.23224466,0.5985687,9.62259,0.004293161,-0.0031215216,0.014083498,-0.06210644543170929,-0.024130674079060555,-1.301590085029602,1017.24316,
2021.02.11 15:32:59,79.0,11.0,23.4,5.1,-25.92,0.13886794,0.46927786,9.670476,0.023840848,-6.719518E-5,0.006753115,-0.04848382994532585,-0.01435900293290615,-1.3103824853897095,1017.24316,
2021.02.11 15:32:59,79.0,11.0,23.58,5.3399997,-25.68,0.12689656,0.5411061,9.598648,0.011012679,0.010317515,-0.006075055,-0.056308645755052567,-0.013219483196735382,-1.2953763008117676,1017.249,
2021.02.11 15:32:59,79.0,11.0,22.98,5.16,-25.74,0.22027329,0.5913859,9.730332,0.005514892,0.007874053,0.0024770587,-0.060687385499477386,-0.022633930668234825,-1.2944908142089844,1017.2539,
2021.02.11 15:32:59,79.0,11.0,22.74,5.04,-25.439999,0.102953814,0.57223165,9.634562,0.01467787,0.0127609745,-0.00790765,-0.059320561587810516,-0.010685478337109089,-1.2944892644882202,1017.2539,
2021.02.11 15:32:59,79.0,11.0,22.8,5.04,-25.56,0.20590763,0.57223165,9.665688,0.016510466,0.01215011,6.444628E-4,-0.05911996588110924,-0.021299725398421288,-1.2986854314804077,1017.2605,
2021.02.11 15:33:00,79.0,11.0,22.74,4.62,-25.8,0.18914771,0.6249057,9.553157,0.011623544,0.0145935705,-5.7726767E-4,-0.06530770659446716,-0.019796909764409065,-1.3075780868530273,1017.2605,
2021.02.11 15:33:00,79.0,11.0,23.22,5.1,-25.74,0.090982445,0.6201172,9.6896305,-5.9376104E-4,0.007874053,-0.012794573,-0.06390805542469025,-0.009389394894242287,-1.2918496131896973,1017.2573,
2021.02.11 15:33:00,79.0,11.0,23.16,5.22,-25.56,0.12689656,0.60335726,9.711179,0.010401813,0.0042088614,-0.003631594,-0.0620451346039772,-0.013066316954791546,-1.2899830341339111,1017.24927,
2021.02.11 15:33:00,79.0,11.0,23.22,4.92,-25.8,0.20351335,0.70870537,9.63935,0.02506258,0.0017654005,-0.015238034,-0.07337377220392227,-0.021109631285071373,-1.2935339212417603,1017.24927,
2021.02.11 15:33:00,79.0,11.0,23.34,4.98,-25.5,0.11253092,0.6608198,9.526819,0.017732197,0.011539245,-0.03356399,-0.06924841552972794,-0.01181146502494812,-1.294095754623413,1017.2532,
2021.02.11 15:33:00,79.0,11.0,23.16,4.62,-25.439999,0.019154198,0.5794145,9.57231,0.01712133,-0.02144748,-0.017681494,-0.06045638024806976,-0.002000998007133603,-1.3119537830352783,1017.2532,
2021.02.11 15:33:00,79.0,11.0,23.16,4.5,-25.68,0.16281068,0.69194543,9.809344,-0.005480683,-0.0031215216,-0.0054641897,-0.07041309773921967,-0.016595985740423203,-1.3110064268112183,1017.2488,
2021.02.11 15:33:00,79.0,11.0,23.279999,4.74,-25.26,0.076616794,0.679974,9.715967,0.01467787,0.005430592,0.003698789,-0.06986912339925766,-0.007885495200753212,-1.3015414476394653,1017.2566,
2021.02.11 15:33:00,79.0,11.0,23.1,4.8599997,-25.56,0.20111908,0.69912827,9.344854,0.02628431,0.02864347,0.013472633,-0.07465790957212448,-0.021518584340810776,-1.2940683364868164,1017.2566,
2021.02.11 15:33:00,79.0,11.0,23.1,4.98,-25.8,0.06943397,0.69194543,9.699207,-0.056793362,-0.0037323865,-0.012183707,-0.07121793180704117,-0.007158604450523853,-1.2869929075241089,1017.25586,
2021.02.11 15:33:00,79.0,11.0,23.039999,5.04,-25.859999,0.27055305,0.67279124,10.180456,-0.06962153,-0.05076901,0.012250902,-0.0659673660993576,-0.02656947448849678,-1.2957760095596313,1017.25586,
2021.02.11 15:33:00,79.0,11.0,22.8,4.98,-26.16,0.19633053,0.7326481,9.368797,0.049497187,0.14898391,-0.0072967852,-0.0780249834060669,-0.020952722057700157,-1.2807822227478027,1017.2473,
