Time,X-cord,Y-cord,Mag_x,Mag_y,Mag_z,Acc_x,Acc_y,Acc_z,Gyro_x,Gyro_y,Gyro_z,Orn_x,Orn_y,Orn_z,Pressure,
2021.02.11 15:29:28,74.0,24.0,24.72,6.8399997,-20.1,-0.2753416,0.2944958,9.435837,0.08431651,0.11355374,0.035463784,-0.03118695691227913,0.029172133654356003,-1.2699087858200073,1017.3384,
2021.02.11 15:29:28,74.0,24.0,24.66,6.66,-19.92,0.18914771,0.40223816,9.536397,-0.012811066,-0.055655934,0.060509257,-0.0421459935605526,-0.019831694662570953,-1.28089439868927,1017.3384,
2021.02.11 15:29:29,74.0,24.0,24.359999,6.66,-20.279999,0.011971374,0.25379312,9.859624,-0.048852116,-0.045882087,0.016526958,-0.025734946131706238,-0.001214180956594646,-1.2844829559326172,1017.3362,
2021.02.11 15:29:29,74.0,24.0,24.06,6.3599997,-20.039999,-0.21069619,0.18675344,9.517242,-0.021974044,-0.0067867124,0.032409456,-0.01961531862616539,0.022134749218821526,-1.2918579578399658,1017.3362,
2021.02.11 15:29:29,74.0,24.0,24.24,6.24,-19.859999,-0.031125572,0.29928434,9.636956,-0.031137023,-0.019614883,0.06539618,-0.031045759096741676,0.003229802241548896,-1.2944657802581787,1017.3345,
2021.02.11 15:29:29,74.0,24.0,24.18,6.54,-20.039999,0.1340794,0.32562137,9.897932,-0.02258491,-0.0263344,0.05989839,-0.032883044332265854,-0.013545374386012554,-1.2849879264831543,1017.3296,
2021.02.11 15:29:29,74.0,24.0,24.119999,6.18,-19.98,0.24900457,0.23942748,9.852441,-5.9376104E-4,-0.06359718,6.444628E-4,-0.024288801476359367,-0.025268010795116425,-1.3070145845413208,1017.3296,
2021.02.11 15:29:29,74.0,24.0,23.88,6.06,-19.8,-0.105348095,0.21069619,9.457385,0.01345614,-0.01472796,-0.04883562,-0.022273417562246323,0.01113878097385168,-1.302452564239502,1017.3367,
2021.02.11 15:29:29,74.0,24.0,23.82,5.8199997,-19.74,-0.19393626,0.42378664,9.050359,-0.012200201,-0.01350623,-0.024401013,-0.04678049311041832,0.021425291895866394,-1.289453148841858,1017.3367,
2021.02.11 15:29:29,74.0,24.0,23.46,5.64,-19.859999,-0.45970076,0.18914771,9.8237095,-0.058015093,-0.02144748,-0.010351111,-0.019230786710977554,0.0467609167098999,-1.3085386753082275,1017.3367,
2021.02.11 15:29:29,74.0,24.0,23.4,5.4,-19.56,-0.009577099,0.35674694,9.8237095,-0.005480683,0.01703703,0.097161174,-0.03629892319440842,9.748961310833693E-4,-1.3153035640716553,1017.3274,
2021.02.11 15:29:29,74.0,24.0,23.82,5.1,-19.619999,0.021548472,0.36632404,9.462174,0.007347487,0.0457477,0.09166338,-0.03869514539837837,-0.002277323743328452,-1.3302816152572632,1017.3274,
2021.02.11 15:29:29,74.0,24.0,23.88,4.92,-19.56,0.19633053,0.28970724,9.950606,-0.034802217,-0.03794084,0.033631187,-0.029100650921463966,-0.019727950915694237,-1.3489147424697876,1017.3323,
2021.02.11 15:29:29,74.0,24.0,23.88,5.04,-19.619999,0.2083019,0.44533512,9.857229,-0.007924144,-0.029999591,0.006753115,-0.04513776674866676,-0.02112874761223793,-1.3326135873794556,1017.3323,
2021.02.11 15:29:29,74.0,24.0,23.939999,5.4,-20.1,0.011971374,0.42139238,9.411894,0.018953927,-0.0031215216,-0.052500814,-0.0447424091398716,-0.0012719403021037579,-1.3140373229980469,1017.3313,
2021.02.11 15:29:29,74.0,24.0,23.939999,5.8799996,-20.16,-0.21787901,0.2083019,9.727939,0.005514892,-0.028166996,-0.065328985,-0.02140410989522934,0.022393498569726944,-1.307831048965454,1017.3342,
2021.02.11 15:29:29,74.0,24.0,23.88,6.12,-20.34,-0.17238778,0.27055305,9.627379,0.017732197,-0.0061758477,-0.010351111,-0.028090564534068108,0.01790408045053482,-1.2931625843048096,1017.3342,
2021.02.11 15:29:29,74.0,24.0,24.18,6.2999997,-19.92,0.028731298,0.409421,9.534002,0.012234409,0.017647898,0.006753115,-0.0429166816174984,-0.0030135519336909056,-1.2841254472732544,1017.3357,
2021.02.11 15:29:30,74.0,24.0,24.0,6.18,-19.98,-0.03351985,0.31365,9.646533,0.0061257565,0.010317515,6.444628E-4,-0.03250262886285782,0.0034747938625514507,-1.2928264141082764,1017.3357,
2021.02.11 15:29:30,74.0,24.0,23.82,6.06,-20.039999,-0.031125572,0.4166038,9.864412,0.012845274,-0.0104519045,0.007974846,-0.042207714170217514,0.0031553292647004128,-1.2879979610443115,1017.3418,
2021.02.11 15:29:30,74.0,24.0,23.88,6.12,-20.16,-0.035914123,0.35914123,9.692024,0.02506258,-0.0018997908,0.016526958,-0.03703813627362251,0.0037055169232189655,-1.2900079488754272,1017.34595,
2021.02.11 15:29:30,74.0,24.0,23.76,6.18,-20.22,0.016759925,0.31604427,9.574705,0.017732197,5.4367003E-4,0.031187724,-0.032996222376823425,-0.0017504357965663075,-1.2908015251159668,1017.34595,
2021.02.11 15:29:30,74.0,24.0,24.119999,6.42,-20.1,0.028731298,0.30167863,9.483723,0.0024605652,0.005430592,0.024468208,-0.031799279153347015,-0.003029528772458434,-1.2869733572006226,1017.35156,
2021.02.11 15:29:30,74.0,24.0,24.359999,6.48,-20.16,0.10055954,0.31604427,9.730332,-0.0048698178,0.0011545353,0.018359555,-0.03246716782450676,-0.010334277525544167,-1.2886004447937012,1017.35156,
2021.02.11 15:29:30,74.0,24.0,24.3,6.18,-19.859999,0.18914771,0.38068968,9.641745,0.007958353,-0.0049541174,-0.008518515,-0.03945540264248848,-0.019615065306425095,-1.2967413663864136,1017.3496,
2021.02.11 15:29:30,74.0,24.0,24.18,5.7599998,-20.22,0.08140534,0.339987,9.785401,-0.0012046263,-0.022058344,-0.056166004,-0.034729138016700745,-0.008318868465721607,-1.3117679357528687,1017.34595,
2021.02.11 15:29:30,74.0,24.0,23.699999,5.58,-20.64,-0.06464542,0.38068968,9.567522,0.01467787,-0.0025106561,-0.054944273,-0.039767906069755554,0.006756653543561697,-1.305450201034546,1017.34595,
2021.02.11 15:29:30,74.0,24.0,23.46,5.16,-20.58,-0.15323359,0.22745611,9.591465,-0.0042589526,-0.011673635,-0.029287932,-0.023706959560513496,0.015974676236510277,-1.3309863805770874,1017.3496,
2021.02.11 15:29:30,74.0,24.0,23.4,5.58,-21.06,0.05027977,0.35674694,9.60583,-0.0036480871,-0.01106277,0.0030879239,-0.037121012806892395,-0.005234249401837587,-1.306865930557251,1017.3496,
2021.02.11 15:29:30,74.0,24.0,23.4,5.4,-20.76,0.03351985,0.36632404,9.6896305,-0.04335433,-0.016560556,-0.012794573,-0.03778756037354469,-0.0034593387972563505,-1.3134483098983765,1017.34375,
2021.02.11 15:29:30,74.0,24.0,23.88,5.7,-20.22,-0.023942748,0.37111259,9.708784,-0.030526157,0.0023762658,-0.0042424593,-0.038205694407224655,0.00246608629822731,-1.3056652545928955,1017.3413,
2021.02.11 15:29:30,74.0,24.0,24.06,5.8199997,-20.279999,0.043096945,0.3328042,9.668081,-0.016476257,-0.009230174,0.008585712,-0.0344090573489666,-0.004457622766494751,-1.3074707984924316,1017.3413,
2021.02.11 15:29:30,74.0,24.0,24.42,5.8799996,-20.16,0.076616794,0.33519846,9.57231,-0.0060915486,5.4367003E-4,0.012861768,-0.03500208631157875,-0.008003831841051579,-1.3094263076782227,1017.33594,
2021.02.11 15:29:30,74.0,24.0,24.72,6.3599997,-20.64,0.035914123,0.36871833,9.771035,-0.0060915486,-0.0043432517,-0.0030207285,-0.03771769627928734,-0.003675553249195218,-1.2907872200012207,1017.33594,
2021.02.11 15:29:30,74.0,24.0,24.42,5.8799996,-20.64,0.062251143,0.34716985,9.624985,0.01345614,5.4367003E-4,-0.00668592,-0.03605326637625694,-0.0064675710164010525,-1.3076485395431519,1017.3274,
2021.02.11 15:29:31,74.0,24.0,24.42,6.0,-20.699999,0.023942748,0.339987,9.560339,0.0036822958,-0.008008444,-0.0158489,-0.03554714098572731,-0.0025043776258826256,-1.3024312257766724,1017.3259,
2021.02.11 15:29:31,74.0,24.0,24.359999,5.8799996,-20.699999,-0.105348095,0.28970724,9.634562,0.007958353,-0.014117096,-0.0072967852,-0.030058730393648148,0.010933958925306797,-1.3074036836624146,1017.3259,
2021.02.11 15:29:31,74.0,24.0,24.119999,5.7599998,-20.4,-0.0047885496,0.3232271,9.644139,0.015288736,-0.022058344,0.028133398,-0.03350284695625305,4.965242696925998E-4,-1.3097602128982544,1017.3308,
2021.02.11 15:29:31,74.0,24.0,24.359999,6.24,-20.76,0.043096945,0.32801566,9.7135725,0.0018497,-0.0067867124,0.03057686,-0.03375563770532608,-0.004436746705323458,-1.2944951057434082,1017.3308,
2021.02.11 15:29:31,74.0,24.0,24.119999,6.12,-20.699999,0.14605077,0.45251793,9.505271,0.015288736,-0.0025106561,0.02019215,-0.047565530985593796,-0.015364029444754124,-1.288788914680481,1017.33374,
2021.02.11 15:29:31,74.0,24.0,23.88,6.2999997,-20.34,-0.05985687,0.2849187,9.6585045,0.0030714304,-0.007397578,-0.003631594,-0.029490137472748756,0.0061972434632480145,-1.288040280342102,1017.33887,
2021.02.11 15:29:31,74.0,24.0,23.699999,6.3599997,-20.039999,0.026337024,0.34716985,9.636956,-0.0048698178,0.0035979962,0.016526958,-0.03600913658738136,-0.0027329125441610813,-1.2813255786895752,1017.33887,
2021.02.11 15:29:31,74.0,24.0,23.76,6.42,-19.68,0.083799616,0.4285752,9.703996,-0.009145874,-0.009841039,0.014083498,-0.04413449019193649,-0.008635363541543484,-1.2757306098937988,1017.32886,
2021.02.11 15:29:31,74.0,24.0,23.88,6.0,-19.5,0.06943397,0.37829542,9.864412,0.007958353,-0.017171424,-0.0054641897,-0.03832978382706642,-0.007038718555122614,-1.2973352670669556,1017.32886,
2021.02.11 15:29:31,74.0,24.0,24.18,5.7,-19.98,0.0047885496,0.3902668,9.608225,0.02628431,-0.01350623,-0.0017989981,-0.04059566929936409,-4.983802209608257E-4,-1.3080708980560303,1017.3281,
2021.02.11 15:29:31,74.0,24.0,24.24,5.7599998,-20.4,-0.047885496,0.33519846,9.737515,0.0067366217,-0.019004017,0.0030879239,-0.034409407526254654,0.004917589947581291,-1.30921471118927,1017.3374,
2021.02.11 15:29:31,74.0,24.0,24.06,5.16,-20.58,0.15323359,0.44294083,9.668081,0.017732197,-0.022058344,0.018359555,-0.04577700421214104,-0.015848103910684586,-1.326473593711853,1017.3374,
2021.02.11 15:29:31,74.0,24.0,23.82,5.7,-20.58,0.14605077,0.4070267,9.541185,0.023229985,-0.0018997908,0.0061422503,-0.04262913390994072,-0.015306207351386547,-1.3055198192596436,1017.3396,
2021.02.11 15:29:31,74.0,24.0,23.46,5.94,-20.46,0.011971374,0.31365,9.792584,-0.0036480871,-0.016560556,-0.015238034,-0.03201836720108986,-0.0012224932434037328,-1.2971866130828857,1017.3396,
2021.02.11 15:29:31,74.0,24.0,23.82,5.7,-20.46,0.043096945,0.45012367,9.567522,0.004904026,0.006041457,0.0049205194,-0.047011908143758774,-0.004504473879933357,-1.2995405197143555,1017.334,
2021.02.11 15:29:31,74.0,24.0,23.76,5.7599998,-20.1,0.090982445,0.3974496,9.8787775,0.012845274,-0.0067867124,0.0049205194,-0.04020928218960762,-0.009209629148244858,-1.3036001920700073,1017.3386,
2021.02.11 15:29:31,74.0,24.0,23.939999,5.64,-20.16,-0.011971374,0.32562137,9.330489,0.023229985,-0.007397578,0.012250902,-0.03488445281982422,0.0012830374762415886,-1.3116127252578735,1017.3386,
2021.02.11 15:29:32,74.0,24.0,23.76,5.4,-19.98,0.16041641,0.4285752,9.780613,0.004293161,-0.022058344,0.028133398,-0.04378494992852211,-0.01639999821782112,-1.3168081045150757,1017.3396,
2021.02.11 15:29:32,74.0,24.0,23.34,5.3399997,-20.16,0.33759275,0.52674043,9.931452,0.010401813,-0.02755613,0.007974846,-0.052957434207201004,-0.03397919982671738,-1.3119831085205078,1017.3396,
2021.02.11 15:29:32,74.0,24.0,23.519999,5.4,-20.34,0.19154198,0.54828894,9.428655,0.031782098,0.01337184,-0.04517043,-0.058073971420526505,-0.02031208574771881,-1.3038599491119385,1017.3386,
2021.02.11 15:29:32,74.0,24.0,23.34,5.52,-20.58,-0.05985687,0.3519584,9.720756,1.7104227E-5,-0.017171424,-0.052500814,-0.03619040176272392,0.006157557480037212,-1.307134985923767,1017.3467,
2021.02.11 15:29:32,74.0,24.0,23.46,5.3399997,-21.0,-0.057462595,0.48124924,9.660899,-0.012200201,-0.012895366,-0.0030207285,-0.049772102385759354,0.005947885103523731,-1.3037033081054688,1017.3467,
2021.02.11 15:29:32,74.0,24.0,23.76,5.3399997,-20.58,0.09577099,0.4740664,9.73991,-0.015865391,-0.0122845005,0.023857342,-0.04863183572888374,-0.009832524694502354,-1.3128032684326172,1017.3435,
2021.02.11 15:29:32,74.0,24.0,23.76,5.1,-20.699999,0.32801566,0.5770202,9.684841,-0.009756739,-6.719518E-5,0.007974846,-0.0594753623008728,-0.03385603427886963,-1.3196245431900024,1017.3435,
2021.02.11 15:29:32,74.0,24.0,23.76,4.8599997,-20.82,0.10055954,0.505192,9.656111,-0.012200201,-0.0049541174,-0.020124957,-0.052267886698246,-0.010413706302642822,-1.3284015655517578,1017.33716,
2021.02.11 15:29:32,74.0,24.0,23.76,4.92,-20.58,-0.11013664,0.3974496,9.732727,0.011012679,-0.0055649825,-0.0072967852,-0.040811117738485336,0.011315630748867989,-1.3304206132888794,1017.3345,
2021.02.11 15:29:32,74.0,24.0,23.46,5.1,-20.699999,0.07422252,0.409421,9.596253,0.016510466,-0.0104519045,0.03179859,-0.04263753816485405,-0.007734376937150955,-1.3232258558273315,1017.3345,
2021.02.11 15:29:32,74.0,24.0,23.4,5.22,-20.52,0.2561874,0.50040346,9.61062,-0.0012046263,-0.012895366,0.045848493,-0.05200234800577164,-0.026650389656424522,-1.3155381679534912,1017.33105,
2021.02.11 15:29:32,74.0,24.0,23.279999,5.2799997,-20.16,0.21548474,0.54350036,9.799767,-0.006702414,-0.0031215216,0.015305229,-0.05539042502641678,-0.021985219791531563,-1.3088278770446777,1017.33105,
2021.02.11 15:29:32,74.0,24.0,23.46,5.1,-19.859999,0.12929083,0.43096948,9.737515,0.011623544,0.002987131,-0.020124957,-0.04422590881586075,-0.013276820071041584,-1.3246750831604004,1017.32935,
2021.02.11 15:29:32,74.0,24.0,23.76,5.22,-19.859999,0.09337672,0.45730647,9.536397,0.022008253,0.009706649,-0.00668592,-0.04791479557752609,-0.009791300632059574,-1.3193169832229614,1017.3301,
2021.02.11 15:29:32,74.0,24.0,23.279999,5.22,-19.859999,0.026337024,0.45012367,9.603436,6.2796945E-4,0.005430592,3.359759E-5,-0.046836648136377335,-0.0027424513828009367,-1.3134528398513794,1017.3301,
2021.02.11 15:29:32,74.0,24.0,23.46,5.52,-19.859999,0.12210801,0.49800915,9.771035,-0.0048698178,0.004819727,0.011640037,-0.05091986432671547,-0.012496286071836948,-1.302844524383545,1017.33374,
2021.02.11 15:29:33,74.0,24.0,23.58,5.64,-20.16,0.15802214,0.5147691,9.584282,6.2796945E-4,0.005430592,0.0030879239,-0.053650882095098495,-0.016486141830682755,-1.297887921333313,1017.33374,
2021.02.11 15:29:33,74.0,24.0,23.22,5.4,-20.52,-0.0023942748,0.4189981,9.703996,-0.012811066,0.002987131,-0.00668592,-0.04315108805894852,2.467308077029884E-4,-1.3065876960754395,1017.3367,
2021.02.11 15:29:33,74.0,24.0,23.519999,5.3399997,-20.46,0.16759923,0.49800915,9.62259,0.0061257565,0.0035979962,0.022024745,-0.05170020833611488,-0.01741550676524639,-1.3100848197937012,1017.3367,
2021.02.11 15:29:33,74.0,24.0,23.519999,4.92,-20.46,0.10055954,0.44054657,9.519637,-0.0073132785,0.0035979962,0.009807441,-0.04624209553003311,-0.010562986135482788,-1.3291798830032349,1017.3367,
2021.02.11 15:29:33,74.0,24.0,23.34,4.98,-20.1,0.052674048,0.46927786,9.629773,-0.020141449,0.0017654005,0.011640037,-0.0486927255988121,-0.005469861440360546,-1.3224568367004395,1017.33276,
2021.02.11 15:29:33,74.0,24.0,23.46,5.1,-19.74,0.076616794,0.42378664,9.730332,-0.02502837,0.0017654005,0.013472633,-0.04352429881691933,-0.007873852737247944,-1.3241312503814697,1017.33276,
2021.02.11 15:29:33,74.0,24.0,23.279999,5.3399997,-19.859999,0.17238778,0.5363176,9.5794935,-0.0024263568,-0.0043432517,0.026300803,-0.05591858550906181,-0.017993558198213577,-1.3056272268295288,1017.3345,
2021.02.11 15:29:33,74.0,24.0,23.519999,5.58,-20.1,0.03351985,0.40463245,9.703996,-0.015254527,-0.008008444,0.00736398,-0.041673120111227036,-0.0034542179200798273,-1.3055028915405273,1017.3435,
2021.02.11 15:29:33,74.0,24.0,23.58,5.4,-20.1,0.06943397,0.38308397,9.725544,6.2796945E-4,-0.0025106561,0.012861768,-0.03936811164021492,-0.007139219436794519,-1.3159422874450684,1017.3435,
2021.02.11 15:29:33,74.0,24.0,23.699999,5.58,-20.4,0.08619389,0.40223816,9.61062,6.2796945E-4,0.0042088614,0.01897042,-0.04182741791009903,-0.008968369103968143,-1.308213233947754,1017.33545,
2021.02.11 15:29:33,74.0,24.0,24.06,5.16,-20.58,0.009577099,0.35674694,9.646533,-0.009145874,0.006652322,0.022024745,-0.0369650200009346,-9.9280197173357E-4,-1.3298845291137695,1017.33545,
2021.02.11 15:29:33,74.0,24.0,23.939999,4.92,-20.58,0.05506832,0.37111259,9.694419,0.0012388347,0.0023762658,0.03668551,-0.03826176002621651,-0.005680353380739689,-1.3382068872451782,1017.33105,
2021.02.11 15:29:33,74.0,24.0,23.82,5.04,-20.82,0.10774237,0.38787252,9.5794935,-0.0060915486,0.002987131,0.03485292,-0.04046521708369255,-0.011246713809669018,-1.3315356969833374,1017.3345,
2021.02.11 15:29:33,74.0,24.0,23.699999,4.92,-20.22,0.13886794,0.3974496,9.680053,-0.011589335,-0.0018997908,0.01897042,-0.04103134945034981,-0.01434479933232069,-1.3362675905227661,1017.3345,
2021.02.11 15:29:33,74.0,24.0,23.82,5.04,-20.22,0.12929083,0.44294083,9.61062,0.004293161,-6.719518E-5,0.01774869,-0.046051934361457825,-0.013452102430164814,-1.3286247253417969,1017.3259,
2021.02.11 15:29:33,74.0,24.0,24.06,5.46,-20.22,0.12450229,0.3974496,9.677659,-0.0042589526,0.0023762658,-0.006075055,-0.04104231670498848,-0.012864206917583942,-1.3183718919754028,1017.3259,
2021.02.11 15:29:33,74.0,24.0,24.24,5.4,-20.1,0.06464542,0.39505535,9.749487,0.0018497,-6.780604E-4,-0.0054641897,-0.04049758240580559,-0.006630551069974899,-1.3215882778167725,1017.32983,
2021.02.11 15:29:34,74.0,24.0,24.3,5.22,-20.52,0.13168511,0.41181526,9.648928,-0.007924144,-0.0018997908,-0.02073582,-0.042650047689676285,-0.013646794483065605,-1.3284422159194946,1017.334,
2021.02.11 15:29:34,74.0,24.0,24.18,4.92,-20.52,0.10774237,0.39505535,9.60583,0.011012679,0.009095783,-0.018903226,-0.04110087454319,-0.011215881444513798,-1.3395272493362427,1017.334,
2021.02.11 15:29:34,74.0,24.0,23.4,4.74,-20.4,0.12450229,0.4644893,9.7135725,-0.0060915486,-0.0037323865,-0.03600745,-0.04777827113866806,-0.012816650792956352,-1.3346037864685059,1017.33203,
2021.02.11 15:29:34,74.0,24.0,23.1,4.62,-20.34,-0.03351985,0.32801566,9.634562,0.012234409,0.0035979962,-0.03600745,-0.03403237834572792,0.0034791112411767244,-1.3440909385681152,1017.33203,
2021.02.11 15:29:34,74.0,24.0,23.039999,4.92,-20.34,0.0,0.36392978,9.553157,-0.007924144,0.0023762658,-0.0072967852,-0.03807682916522026,1.0E-6,-1.3286492824554443,1017.3252,
2021.02.11 15:29:34,74.0,24.0,22.92,5.16,-19.98,0.05985687,0.42139238,9.677659,-0.009756739,-6.780604E-4,-0.0054641897,-0.04351448267698288,-0.006184977944940329,-1.3153367042541504,1017.3335,
2021.02.11 15:29:34,74.0,24.0,23.34,5.04,-19.619999,-0.0047885496,0.33519846,9.747093,-0.007924144,-0.0104519045,-0.010961977,-0.034376028925180435,4.912797594442964E-4,-1.3306987285614014,1017.3335,
2021.02.11 15:29:34,74.0,24.0,23.22,5.4,-19.859999,0.023942748,0.4668836,9.522031,0.0030714304,0.002987131,0.005531385,-0.048992544412612915,-0.0025144529063254595,-1.303866982460022,1017.3291,
2021.02.11 15:29:34,74.0,24.0,23.34,5.4,-19.619999,0.035914123,0.37829542,9.814133,-0.009756739,-0.008008444,-5.7726767E-4,-0.03852665424346924,-0.003659412730485201,-1.313974142074585,1017.3291,
2021.02.11 15:29:34,74.0,24.0,22.98,5.7599998,-19.859999,0.09337672,0.409421,9.543579,0.01345614,-0.0055649825,0.014083498,-0.04287181422114372,-0.009783932939171791,-1.2934828996658325,1017.32983,
2021.02.11 15:29:34,74.0,24.0,23.1,5.7599998,-20.16,0.14365649,0.4166038,9.694419,-0.014643662,-0.007397578,-0.006075055,-0.042942434549331665,-0.014817388728260994,-1.295631766319275,1017.3379,
2021.02.11 15:29:34,74.0,24.0,23.64,5.58,-19.8,-0.0071828244,0.38787252,9.749487,-0.0036480871,0.0017654005,-0.010961977,-0.03976291045546532,7.367386133410037E-4,-1.3076952695846558,1017.3379,
2021.02.11 15:29:34,74.0,24.0,23.46,5.04,-20.1,0.057462595,0.4070267,9.526819,0.022008253,0.01703703,0.0049205194,-0.04269756004214287,-0.006031593307852745,-1.3261326551437378,1017.333,
2021.02.11 15:29:34,74.0,24.0,23.82,4.62,-20.16,0.028731298,0.34716985,9.452597,0.038501613,0.020091359,0.005531385,-0.03671078756451607,-0.003039504401385784,-1.3502438068389893,1017.333,
2021.02.11 15:29:34,74.0,24.0,23.82,4.44,-20.22,0.08140534,0.5458947,9.522031,0.06110363,0.005430592,0.031187724,-0.05726487189531326,-0.008548949845135212,-1.3423489332199097,1017.3396,
2021.02.11 15:29:34,74.0,24.0,23.939999,4.5,-20.34,0.05985687,0.40463245,9.5483675,0.026895177,0.005430592,0.0049205194,-0.04235096275806427,-0.006268724333494902,-1.352027416229248,1017.3342,
2021.02.11 15:29:34,74.0,24.0,24.18,4.98,-20.22,0.062251143,0.48843205,9.464568,1.7104227E-5,0.05674327,-0.006075055,-0.05155951902270317,-0.006577188149094582,-1.3285634517669678,1017.3342,
2021.02.11 15:29:35,74.0,24.0,24.359999,5.04,-20.16,0.13168511,0.5506832,9.660899,6.2796945E-4,-0.0067867124,-0.0030207285,-0.05693434551358223,-0.013629886321723461,-1.3257455825805664,1017.34204,
2021.02.11 15:29:35,74.0,24.0,24.48,5.22,-20.16,-0.13647367,0.35914123,9.660899,-0.018308854,-0.0018997908,-0.01829236,-0.037153907120227814,0.014125455170869827,-1.328549861907959,1017.34204,
2021.02.11 15:29:35,74.0,24.0,24.359999,5.58,-20.279999,0.0047885496,0.5363176,9.687236,-0.027471833,0.011539245,0.0024770587,-0.05530685558915138,-4.943152889609337E-4,-1.3028079271316528,1017.345,
2021.02.11 15:29:35,74.0,24.0,24.48,5.52,-20.279999,0.016759925,0.46927786,9.526819,6.2796945E-4,0.007263188,-0.0024098635,-0.04921874776482582,-0.0017592343501746655,-1.311281681060791,1017.34106,
2021.02.11 15:29:35,74.0,24.0,24.539999,5.4,-19.98,-0.045491222,0.4166038,9.668081,-0.01097847,0.0017654005,-0.0072967852,-0.04306352511048317,0.004705265164375305,-1.3201019763946533,1017.34106,
2021.02.11 15:29:35,74.0,24.0,24.359999,5.46,-19.68,-0.06943397,0.43815228,9.586677,1.7104227E-5,0.016426167,0.0030879239,-0.045671314001083374,0.007242630701512098,-1.3139365911483765,1017.33154,
2021.02.11 15:29:35,74.0,24.0,24.18,5.16,-19.98,-0.057462595,0.4285752,9.656111,0.012845274,-0.0122845005,0.010418306,-0.04435393586754799,0.0059508346021175385,-1.3245655298233032,1017.33154,
2021.02.11 15:29:35,74.0,24.0,24.119999,5.4,-19.74,0.03351985,0.4668836,9.663293,0.010401813,-0.008008444,0.017137825,-0.04827733710408211,-0.003468767274171114,-1.3143644332885742,1017.3379,
2021.02.11 15:29:35,74.0,24.0,24.06,5.52,-19.56,-0.019154198,0.44772938,9.60583,-0.003037222,-0.015338826,0.006753115,-0.0465763695538044,0.00199401518329978,-1.3093637228012085,1017.33545,
2021.02.11 15:29:35,74.0,24.0,24.06,5.52,-19.74,-0.09337672,0.39266106,9.632168,-0.0012046263,-0.0055649825,0.0024770587,-0.040741123259067535,0.009693955071270466,-1.3115941286087036,1017.33545,
2021.02.11 15:29:35,74.0,24.0,24.06,5.3399997,-19.199999,-0.20111908,0.2777359,8.667274,-0.08916922,-0.14300966,0.025689937,-0.032024625688791275,0.023200256749987602,-1.323120355606079,1017.3362,
