Time,X-cord,Y-cord,Mag_x,Mag_y,Mag_z,Acc_x,Acc_y,Acc_z,Gyro_x,Gyro_y,Gyro_z,Orn_x,Orn_y,Orn_z,Pressure,
2021.02.11 15:26:41,59.0,24.0,23.46,4.44,-22.14,-0.5698374,0.19154198,8.954588,0.09714468,0.13432316,-0.006075055,-0.021343953907489777,0.0635506734251976,-1.3498767614364624,1017.3728,
2021.02.11 15:26:41,59.0,24.0,23.88,4.62,-21.96,0.071828246,0.33519846,9.620196,0.052551515,0.05613241,0.045848493,-0.03482814133167267,-0.007466262672096491,-1.350832223892212,1017.3728,
2021.02.11 15:26:41,59.0,24.0,24.48,4.44,-22.199999,0.057462595,0.30167863,9.586677,-0.038467407,-0.04404949,0.04096157,-0.03145758435130119,-0.005993933882564306,-1.3652534484863281,1017.36475,
2021.02.11 15:26:41,59.0,24.0,25.26,3.6599998,-21.779999,-0.10774237,0.117319465,9.668081,-0.023195775,-0.03794084,0.03179859,-0.012133372016251087,0.011143670417368412,-1.4150707721710205,1017.3623,
2021.02.11 15:26:41,59.0,24.0,25.439999,3.36,-21.359999,0.0071828244,0.21787901,9.577099,-0.026860965,-0.025112672,0.036074646,-0.022746071219444275,-7.499999483115971E-4,-1.4209034442901611,1017.3623,
2021.02.11 15:26:41,59.0,24.0,24.96,2.8799999,-21.9,0.038308397,0.22745611,9.787795,-0.007924144,-0.02266921,0.025689937,-0.02323438785970211,-0.00391387427225709,-1.4364275932312012,1017.364,
2021.02.11 15:26:41,59.0,24.0,25.14,2.8799999,-21.9,0.0,0.22985038,9.562734,6.2796945E-4,0.010317515,0.012250902,-0.02403142675757408,1.0E-6,-1.4361581802368164,1017.364,
2021.02.11 15:26:41,59.0,24.0,25.019999,3.54,-21.72,-0.028731298,0.18196489,9.627379,0.008569217,0.0035979962,-0.00790765,-0.018898436799645424,0.0029843233060091734,-1.4137662649154663,1017.3662,
2021.02.11 15:26:41,59.0,24.0,24.779999,3.6599998,-22.199999,-0.10774237,0.17957062,9.727939,0.0067366217,5.4367003E-4,-0.0072967852,-0.01845603995025158,0.011075107380747795,-1.40622878074646,1017.35986,
2021.02.11 15:26:41,59.0,24.0,25.08,3.84,-22.199999,0.045491222,0.31604427,9.648928,0.023229985,0.007263188,0.022635613,-0.032742273062467575,-0.004714605398476124,-1.3916412591934204,1017.35986,
2021.02.11 15:26:41,59.0,24.0,24.66,3.8999999,-22.14,-0.045491222,0.28252444,9.644139,0.0158996,-6.780604E-4,0.003698789,-0.029286231845617294,0.0047169458121061325,-1.3875770568847656,1017.3594,
2021.02.11 15:26:41,59.0,24.0,24.48,3.6,-22.38,-0.09577099,0.21548474,9.687236,0.0030714304,-0.0104519045,0.006753115,-0.022239437326788902,0.009885985404253006,-1.403273344039917,1017.3594,
2021.02.11 15:26:41,59.0,24.0,24.48,3.8999999,-22.439999,-0.026337024,0.33519846,9.727939,-0.0012046263,-0.015949693,0.02019215,-0.03444354236125946,0.002707352628931403,-1.3817269802093506,1017.3596,
2021.02.11 15:26:41,59.0,24.0,24.3,3.72,-22.26,0.009577099,0.28013015,9.629773,0.0036822958,-0.0012889256,0.027522534,-0.029081787914037704,-9.945298079401255E-4,-1.3932207822799683,1017.36035,
2021.02.11 15:26:41,59.0,24.0,24.6,3.78,-22.199999,-0.047885496,0.2657645,9.766247,-0.0042589526,-0.0031215216,0.02019215,-0.027205513790249825,0.004903123248368502,-1.3935970067977905,1017.36035,
2021.02.11 15:26:41,59.0,24.0,24.18,3.6599998,-22.439999,0.045491222,0.3328042,9.6585045,-0.0024263568,-0.0012889256,0.021413881,-0.03444310650229454,-0.004709931090474129,-1.3904997110366821,1017.3611,
2021.02.11 15:26:42,59.0,24.0,24.0,3.3,-22.38,-0.057462595,0.25379312,9.562734,-0.007924144,-0.007397578,0.0012553281,-0.0265331007540226,0.00600894121453166,-1.40895676612854,1017.3611,
2021.02.11 15:26:42,59.0,24.0,24.06,3.6,-22.199999,0.06943397,0.37350687,9.699207,-0.012811066,-0.0122845005,0.017137825,-0.03848900645971298,-0.007158604450523853,-1.3892805576324463,1017.3638,
2021.02.11 15:26:42,59.0,24.0,23.82,3.3,-22.14,0.026337024,0.30646718,9.821315,-0.0024263568,-0.0104519045,0.0030879239,-0.031194061040878296,-0.002681612502783537,-1.4053606986999512,1017.3667,
2021.02.11 15:26:42,59.0,24.0,24.0,3.48,-22.439999,0.105348095,0.31843856,9.517242,0.021397388,-6.780604E-4,-0.0024098635,-0.033444594591856,-0.011068729683756828,-1.3985003232955933,1017.3667,
2021.02.11 15:26:42,59.0,24.0,24.0,3.36,-22.199999,-0.10774237,0.29689008,9.708784,-0.005480683,-0.0055649825,-0.022568416,-0.03056812286376953,0.011096956208348274,-1.4021130800247192,1017.3694,
2021.02.11 15:26:42,59.0,24.0,24.119999,3.3,-22.199999,0.038308397,0.31843856,9.79019,-0.011589335,-0.02266921,0.006753115,-0.03251458331942558,-0.003912916872650385,-1.4063538312911987,1017.3694,
2021.02.11 15:26:42,59.0,24.0,24.42,3.24,-21.96,0.105348095,0.25379312,9.648928,0.008569217,-0.02266921,0.011029172,-0.026295097544789314,-0.010917681269347668,-1.4175280332565308,1017.3738,
2021.02.11 15:26:42,59.0,24.0,24.6,3.4199998,-21.779999,0.11492519,0.28013015,9.553157,1.7104227E-5,0.0017654005,-5.7726767E-4,-0.02931278757750988,-0.0120294950902462,-1.4093765020370483,1017.37085,
2021.02.11 15:26:42,59.0,24.0,25.26,3.6,-21.84,0.009577099,0.34477556,9.780613,-0.021974044,-0.0049541174,-0.014627169,-0.03523630648851395,-9.791917400434613E-4,-1.3997753858566284,1017.37085,
2021.02.11 15:26:42,59.0,24.0,25.14,3.4199998,-22.14,-0.009577099,0.24900457,9.560339,0.005514892,-0.0018997908,-5.7726767E-4,-0.02603968046605587,0.0010017527965828776,-1.4130301475524902,1017.3696,
2021.02.11 15:26:42,59.0,24.0,24.84,3.72,-22.619999,0.05985687,0.2777359,9.735122,-5.9376104E-4,-0.0018997908,0.012250902,-0.028520992025732994,-0.0061484710313379765,-1.3980199098587036,1017.3696,
2021.02.11 15:26:42,59.0,24.0,25.32,3.72,-22.199999,0.08858817,0.26097596,9.663293,-0.012811066,0.009095783,0.009807441,-0.02699924260377884,-0.009167236275970936,-1.4034403562545776,1017.3633,
2021.02.11 15:26:42,59.0,24.0,24.72,3.4199998,-22.5,0.021548472,0.2561874,9.670476,-0.016476257,0.0011545353,0.0012553281,-0.026485444977879524,-0.002228270750492811,-1.4101742506027222,1017.36816,
2021.02.11 15:26:42,59.0,24.0,24.6,3.36,-22.5,0.0047885496,0.19633053,9.718362,-0.017697988,-0.0025106561,0.0043096542,-0.02019926905632019,-4.927321569994092E-4,-1.4170674085617065,1017.36816,
2021.02.11 15:26:42,59.0,24.0,24.42,2.8799999,-22.5,0.05506832,0.19393626,9.672871,-0.010367605,-0.0067867124,0.011640037,-0.020046496763825417,-0.005693007726222277,-1.4360593557357788,1017.3611,
2021.02.11 15:26:42,59.0,24.0,23.76,2.52,-22.859999,0.11253092,0.24900457,9.627379,-0.0048698178,-0.0061758477,0.00736398,-0.025856681168079376,-0.011688102036714554,-1.4423550367355347,1017.3611,
2021.02.11 15:26:42,59.0,24.0,23.82,2.8799999,-22.74,0.0047885496,0.26337022,9.826104,-0.01097847,0.006652322,-0.0024098635,-0.026796696707606316,-4.8732938012108207E-4,-1.4254672527313232,1017.365,
2021.02.11 15:26:43,59.0,24.0,23.88,3.1799998,-23.039999,0.016759925,0.19154198,9.814133,6.2796945E-4,0.0017654005,-0.017070629,-0.019514448940753937,-0.001707731862552464,-1.4202595949172974,1017.36475,
2021.02.11 15:26:43,59.0,24.0,24.48,3.54,-23.1,0.047885496,0.24182175,9.608225,0.009790948,-0.0025106561,-0.012183707,-0.025162579491734505,-0.0049837613478302956,-1.404941201210022,1017.36475,
2021.02.11 15:26:43,59.0,24.0,24.84,3.72,-23.1,-0.04070267,0.23224466,9.629773,0.004904026,0.0017654005,-0.011572842,-0.024112466722726822,0.00422672787681222,-1.3995704650878906,1017.36255,
2021.02.11 15:26:43,59.0,24.0,24.84,3.6,-23.039999,-0.09577099,0.22985038,9.809344,0.012234409,-0.0012889256,6.444628E-4,-0.023426374420523643,0.009762930683791637,-1.4039859771728516,1017.36255,
2021.02.11 15:26:43,59.0,24.0,24.779999,3.1799998,-22.56,0.019154198,0.26337022,9.653716,0.019564793,0.005430592,0.015305229,-0.027274921536445618,-0.00198412430472672,-1.4191886186599731,1017.3733,
2021.02.11 15:26:43,59.0,24.0,24.66,3.54,-22.08,-0.05506832,0.2370332,9.759064,0.007958353,-0.0037323865,0.011640037,-0.024283356964588165,0.005642727483063936,-1.406072735786438,1017.3684,
2021.02.11 15:26:43,59.0,24.0,24.42,3.6599998,-22.14,0.0071828244,0.2753416,9.682447,0.009180083,0.007874053,0.025689937,-0.02842952124774456,-7.418396417051554E-4,-1.397114872932434,1017.3684,
2021.02.11 15:26:43,59.0,24.0,24.66,3.84,-22.14,-0.0071828244,0.24421602,9.653716,-5.9376104E-4,-0.0018997908,0.026911668,-0.02529221773147583,7.440474582836032E-4,-1.3941457271575928,1017.36865,
2021.02.11 15:26:43,59.0,24.0,24.539999,3.78,-22.199999,0.009577099,0.2777359,9.718362,1.7104227E-5,-0.0067867124,0.031187724,-0.02857067622244358,-9.854640811681747E-4,-1.3930656909942627,1017.36865,
2021.02.11 15:26:43,59.0,24.0,24.66,3.4199998,-22.32,0.10055954,0.27294734,9.680053,-0.0036480871,-0.0037323865,0.026911668,-0.028187895193696022,-0.01038795243948698,-1.4098708629608154,1017.3679,
2021.02.11 15:26:43,59.0,24.0,24.779999,3.1799998,-22.08,0.011971374,0.25139886,9.687236,-0.0048698178,-0.0049541174,0.017137825,-0.025945713743567467,-0.0012357878731563687,-1.4207292795181274,1017.3728,
2021.02.11 15:26:43,59.0,24.0,24.779999,3.0,-22.32,0.0071828244,0.28731298,9.677659,0.016510466,-0.009230174,0.016526958,-0.029679546132683754,-7.422066410072148E-4,-1.4242342710494995,1017.3728,
2021.02.11 15:26:43,59.0,24.0,24.779999,3.1799998,-22.74,0.05027977,0.27294734,9.727939,0.0158996,-0.015338826,0.011640037,-0.02805035561323166,-0.005168548319488764,-1.418830156326294,1017.3655,
2021.02.11 15:26:43,59.0,24.0,24.42,3.12,-22.74,0.05985687,0.29689008,9.677659,0.01712133,-0.014117096,0.00736398,-0.030667677521705627,-0.006184977479279041,-1.4168477058410645,1017.3655,
2021.02.11 15:26:43,59.0,24.0,24.0,3.36,-23.1,0.038308397,0.28252444,9.648928,0.011012679,-0.0025106561,0.0030879239,-0.02927180379629135,-0.003970202524214983,-1.404977560043335,1017.37256,
2021.02.11 15:26:43,59.0,24.0,23.64,3.4199998,-23.1,0.026337024,0.28013015,9.814133,0.0018497,-0.011673635,3.359759E-5,-0.028535692021250725,-0.0026835747994482517,-1.4004976749420166,1017.37427,
2021.02.11 15:26:43,59.0,24.0,23.519999,3.4199998,-22.98,0.0670397,0.32083282,9.696813,0.009180083,0.0042088614,0.009807441,-0.03307356312870979,-0.006913471035659313,-1.396365761756897,1017.37427,
2021.02.11 15:26:44,59.0,24.0,23.58,3.3,-23.1,0.043096945,0.29689008,9.708784,0.01345614,-0.0055649825,0.0012553281,-0.03056970424950123,-0.004438934847712517,-1.4034196138381958,1017.3777,
2021.02.11 15:26:44,59.0,24.0,23.34,3.24,-23.039999,-0.026337024,0.28252444,9.641745,0.023840848,-0.0018997908,0.005531385,-0.029293721541762352,0.002731555374339223,-1.404151201248169,1017.3777,
2021.02.11 15:26:44,59.0,24.0,23.76,3.06,-22.74,0.05027977,0.3304099,9.687236,0.009790948,-0.0086193085,0.00736398,-0.034094084054231644,-0.0051902648992836475,-1.4117848873138428,1017.36865,
2021.02.11 15:26:44,59.0,24.0,23.82,2.8799999,-22.5,0.09577099,0.36392978,9.682447,0.01467787,-0.0067867124,0.011640037,-0.037567030638456345,-0.009890873916447163,-1.4175187349319458,1017.36914,
2021.02.11 15:26:44,59.0,24.0,23.279999,3.06,-22.439999,0.047885496,0.32562137,9.680053,0.0158996,-0.008008444,0.0012553281,-0.033625297248363495,-0.004946781322360039,-1.409379243850708,1017.36914,
2021.02.11 15:26:44,59.0,24.0,23.34,3.0,-22.32,0.08140534,0.35914123,9.687236,0.01467787,-0.0043432517,0.0024770587,-0.037055373191833496,-0.008403163403272629,-1.4099347591400146,1017.36475,
2021.02.11 15:26:44,59.0,24.0,22.8,2.9399998,-22.56,0.052674048,0.3328042,9.613013,0.007958353,0.0011545353,-0.0024098635,-0.034605834633111954,-0.005479397252202034,-1.410153865814209,1017.36475,
2021.02.11 15:26:44,59.0,24.0,22.859999,2.9399998,-22.68,0.057462595,0.35674694,9.720756,-0.0012046263,0.0042088614,-0.003631594,-0.03668240085244179,-0.005911261308938265,-1.4085034132003784,1017.36475,
2021.02.11 15:26:44,59.0,24.0,23.46,2.8799999,-22.32,0.090982445,0.39266106,9.648928,0.0030714304,0.0042088614,-0.00790765,-0.04067053645849228,-0.00942900124937296,-1.4125944375991821,1017.36304,
2021.02.11 15:26:44,59.0,24.0,23.76,2.8799999,-22.199999,0.04070267,0.32801566,9.646533,0.012234409,5.4367003E-4,-0.013405438,-0.033990077674388885,-0.004219384398311377,-1.419802188873291,1017.36304,
2021.02.11 15:26:44,59.0,24.0,23.82,2.76,-22.08,0.009577099,0.36632404,9.754275,-0.0018154916,0.007263188,-0.016459765,-0.03753757104277611,-9.818357648327947E-4,-1.4215141534805298,1017.3655,
2021.02.11 15:26:44,59.0,24.0,23.519999,3.0,-22.08,0.06464542,0.40223816,9.512454,0.011623544,-6.719518E-5,-0.012183707,-0.04225927218794823,-0.006795767229050398,-1.406534194946289,1017.3655,
2021.02.11 15:26:44,59.0,24.0,23.34,3.24,-22.56,0.031125572,0.37111259,9.907509,-0.00853501,-0.007397578,-0.013405438,-0.037440020591020584,-0.003141604131087661,-1.3982740640640259,1017.3635,
2021.02.11 15:26:44,59.0,24.0,23.34,3.3,-22.56,0.10774237,0.38787252,9.507666,0.01467787,0.007263188,-0.0024098635,-0.04077054560184479,-0.01133167278021574,-1.3943870067596436,1017.35645,
2021.02.11 15:26:44,59.0,24.0,23.4,3.54,-22.38,0.06464542,0.37590113,9.785401,-0.00853501,-0.0061758477,-0.017070629,-0.03839476779103279,-0.006606216076761484,-1.3864587545394897,1017.35645,
2021.02.11 15:26:44,59.0,24.0,23.64,3.4199998,-22.439999,0.03351985,0.38068968,9.620196,6.2796945E-4,-0.0086193085,-0.015238034,-0.03955104947090149,-0.003484306624159217,-1.3913923501968384,1017.355,
2021.02.11 15:26:45,59.0,24.0,23.64,3.4199998,-22.38,0.035914123,0.34716985,9.641745,0.0067366217,-0.008008444,-0.014016303,-0.03599115461111069,-0.0037248400039970875,-1.3947560787200928,1017.355,
2021.02.11 15:26:45,59.0,24.0,23.82,3.0,-22.26,0.07901107,0.41420954,9.620196,0.0030714304,-0.0086193085,-0.012183707,-0.043028220534324646,-0.008212856017053127,-1.407839298248291,1017.35693,
2021.02.11 15:26:45,59.0,24.0,23.58,3.1799998,-22.619999,0.043096945,0.39266106,9.665688,-5.9376104E-4,-0.0067867124,-0.018903226,-0.040601495653390884,-0.00445872638374567,-1.399717092514038,1017.3589,
2021.02.11 15:26:45,59.0,24.0,23.519999,3.36,-22.98,-0.009577099,0.40463245,9.735122,-0.009756739,-0.0086193085,-0.01829236,-0.04154026135802269,9.83767444267869E-4,-1.3892900943756104,1017.3589,
2021.02.11 15:26:45,59.0,24.0,23.46,2.9399998,-23.1,-0.016759925,0.37829542,9.787795,-0.006702414,-0.01350623,-0.010351111,-0.038630422204732895,0.0017123271245509386,-1.4086363315582275,1017.375,
2021.02.11 15:26:45,59.0,24.0,22.92,3.48,-23.64,0.098165266,0.39505535,9.5483675,0.0067366217,5.4367003E-4,0.0061422503,-0.04134835675358772,-0.010280479677021503,-1.3812146186828613,1017.375,
2021.02.11 15:26:45,59.0,24.0,22.859999,3.3,-23.4,-0.0023942748,0.37590113,9.696813,-0.0073132785,-0.0012889256,-0.00668592,-0.038746029138565063,2.469135797582567E-4,-1.3888741731643677,1017.3679,
2021.02.11 15:26:45,59.0,24.0,22.859999,3.12,-23.16,0.0047885496,0.41181526,9.718362,0.004904026,-0.0037323865,0.007974846,-0.04234962910413742,-4.927321569994092E-4,-1.393533706665039,1017.35864,
2021.02.11 15:26:45,59.0,24.0,22.619999,3.12,-22.92,0.035914123,0.36871833,9.783007,0.004904026,0.0011545353,0.011029172,-0.037671588361263275,-0.0036710558924824,-1.397350549697876,1017.35864,
2021.02.11 15:26:45,59.0,24.0,22.98,2.52,-22.68,0.052674048,0.41420954,9.5244255,0.009180083,0.009706649,0.013472633,-0.043461136519908905,-0.005530361086130142,-1.4205644130706787,1017.36035,
2021.02.11 15:26:45,59.0,24.0,23.22,2.28,-22.5,0.023942748,0.34716985,9.727939,-0.006702414,0.002987131,0.007974846,-0.03567266836762428,-0.0024612306151539087,-1.4392750263214111,1017.36035,
2021.02.11 15:26:45,59.0,24.0,23.279999,2.22,-22.32,0.05985687,0.3902668,9.648928,-0.006702414,0.0042088614,0.014083498,-0.040423840284347534,-0.006203394383192062,-1.4385827779769897,1017.3552,
2021.02.11 15:26:45,59.0,24.0,23.58,2.46,-22.8,0.083799616,0.37590113,9.598648,-0.007924144,0.0023762658,0.012250902,-0.03914039209485054,-0.00873013399541378,-1.4311535358428955,1017.3574,
2021.02.11 15:26:45,59.0,24.0,23.16,2.6399999,-22.56,0.062251143,0.37350687,9.711179,-0.016476257,0.0011545353,6.444628E-4,-0.03844179958105087,-0.00641016848385334,-1.421749472618103,1017.3574,
2021.02.11 15:26:45,59.0,24.0,23.22,2.76,-23.16,0.10774237,0.3902668,9.715967,-0.0042589526,-0.0055649825,-5.7726767E-4,-0.04014352336525917,-0.011088752187788486,-1.415432333946228,1017.36035,
2021.02.11 15:26:45,59.0,24.0,23.1,3.0,-23.22,0.057462595,0.36632404,9.615408,0.0012388347,-0.0025106561,-0.009740246,-0.038078512996435165,-0.005976024083793163,-1.4055025577545166,1017.36035,
2021.02.11 15:26:45,59.0,24.0,23.34,3.0,-22.98,0.05985687,0.35435268,9.629773,-0.007924144,0.006041457,-0.012183707,-0.03678031265735626,-0.0062157330103218555,-1.4088020324707031,1017.3635,
2021.02.11 15:26:46,59.0,24.0,23.58,3.4199998,-23.4,0.047885496,0.35914123,9.751882,-0.0073132785,-0.012895366,-0.008518515,-0.03681080788373947,-0.004910346120595932,-1.3923126459121704,1017.36255,
2021.02.11 15:26:46,59.0,24.0,23.699999,3.6,-23.039999,0.07901107,0.33759275,9.534002,0.0061257565,0.0035979962,-0.003631594,-0.03539334237575531,-0.008287102915346622,-1.3884155750274658,1017.36255,
2021.02.11 15:26:46,59.0,24.0,24.0,3.24,-22.92,0.009577099,0.36871833,9.759064,-0.009145874,-0.0025106561,-0.011572842,-0.037764161825180054,-9.81353921815753E-4,-1.4016647338867188,1017.353,
2021.02.11 15:26:46,59.0,24.0,23.699999,3.4199998,-22.26,-0.009577099,0.36871833,9.608225,0.0036822958,0.006041457,-0.0054641897,-0.038356438279151917,9.967602090910077E-4,-1.3922947645187378,1017.353,
2021.02.11 15:26:46,59.0,24.0,23.279999,3.12,-22.26,0.019154198,0.33759275,9.699207,-0.0060915486,0.010928379,6.444628E-4,-0.034792106598615646,-0.0019748182967305183,-1.4055012464523315,1017.3523,
2021.02.11 15:26:46,59.0,24.0,23.4,3.4199998,-21.96,0.05985687,0.3902668,9.466963,0.0061257565,0.006041457,0.008585712,-0.041199926286935806,-0.006322626955807209,-1.3894720077514648,1017.35864,
2021.02.11 15:26:46,59.0,24.0,23.16,3.6599998,-21.66,-0.009577099,0.31125572,9.816526,-0.014032797,-0.0122845005,-0.0048533245,-0.031696684658527374,9.756094077602029E-4,-1.3851654529571533,1017.35864,
2021.02.11 15:26:46,59.0,24.0,23.279999,3.78,-21.96,0.047885496,0.34477556,9.644139,6.2796945E-4,-0.0025106561,3.359759E-5,-0.03573409095406532,-0.004965202417224646,-1.378328561782837,1017.36426,
2021.02.11 15:26:46,59.0,24.0,23.76,4.14,-21.6,0.07901107,0.3519584,9.608225,0.007347487,-6.719518E-5,0.0030879239,-0.0366133414208889,-0.008223088458180428,-1.3680497407913208,1017.36426,
2021.02.11 15:26:46,59.0,24.0,23.519999,3.84,-22.02,0.023942748,0.36632404,9.663293,-0.0042589526,-0.0012889256,0.0018661933,-0.037890564650297165,-0.002477695932611823,-1.3752659559249878,1017.3596,
2021.02.11 15:26:46,59.0,24.0,23.699999,3.6599998,-22.32,-0.014365649,0.28970724,9.749487,0.0018497,-0.0043432517,-0.008518515,-0.029706353321671486,0.0014734762953594327,-1.3901550769805908,1017.3679,
2021.02.11 15:26:46,59.0,24.0,23.4,3.3,-22.439999,0.0071828244,0.339987,9.450203,0.007958353,-0.0061758477,0.0049205194,-0.03596116602420807,-7.600708049722016E-4,-1.3973004817962646,1017.3679,
2021.02.11 15:26:46,59.0,24.0,23.46,3.36,-22.56,0.117319465,0.3902668,9.687236,-0.0048698178,-0.01106277,0.0030879239,-0.04026198387145996,-0.012110134586691856,-1.3934310674667358,1017.3628,
2021.02.11 15:26:46,59.0,24.0,23.34,3.36,-22.32,0.028731298,0.34956414,9.811738,-0.009756739,-0.0031215216,-0.010961977,-0.035611920058727264,-0.0029282495379447937,-1.395304560661316,1017.3628,
2021.02.11 15:26:46,59.0,24.0,23.16,3.3,-22.14,-0.047885496,0.31125572,9.529214,0.012234409,0.008484919,-5.7726767E-4,-0.03265129402279854,0.00502508319914341,-1.3979159593582153,1017.36694,
2021.02.11 15:26:46,59.0,24.0,23.279999,3.24,-22.199999,0.014365649,0.33759275,9.783007,-0.0042589526,-0.0055649825,0.015916094,-0.03449435159564018,-0.0014684278285130858,-1.4007649421691895,1017.3679,
2021.02.11 15:26:46,59.0,24.0,23.34,2.8799999,-22.439999,0.11492519,0.45491222,9.481328,0.009180083,0.006041457,0.021413881,-0.047939516603946686,-0.012120618484914303,-1.405509114265442,1017.3679,
2021.02.11 15:26:47,59.0,24.0,23.16,2.7,-22.32,-0.03351985,0.3232271,9.785401,-0.0042589526,-0.0049541174,3.359759E-5,-0.03301936760544777,0.0034254821948707104,-1.4229449033737183,1017.36914,
2021.02.11 15:26:47,59.0,24.0,23.16,2.6399999,-22.32,0.09337672,0.4070267,9.684841,0.007958353,0.0042088614,0.018359555,-0.042000528424978256,-0.009641233831644058,-1.4194256067276,1017.36914,
2021.02.11 15:26:47,59.0,24.0,23.1,2.9399998,-22.32,-0.035914123,0.36392978,9.593859,0.005514892,0.006041457,-0.0011881329,-0.037915170192718506,0.0037434317637234926,-1.4077123403549194,1017.3606,
2021.02.11 15:26:47,59.0,24.0,22.68,3.3,-22.14,-0.021548472,0.34716985,9.648928,0.0012388347,-0.0055649825,0.010418306,-0.035964544862508774,0.0022332468070089817,-1.3917499780654907,1017.3616,
2021.02.11 15:26:47,59.0,24.0,23.22,3.6,-22.56,0.13647367,0.40223816,9.634562,-0.0024263568,-0.0043432517,0.025689937,-0.04172109439969063,-0.014164064079523087,-1.380905270576477,1017.3616,
2021.02.11 15:26:47,59.0,24.0,23.279999,3.78,-22.56,0.06943397,0.34716985,9.684841,-0.005480683,-0.008008444,0.005531385,-0.035830460488796234,-0.007169222459197044,-1.3778549432754517,1017.3657,
2021.02.11 15:26:47,59.0,24.0,23.46,3.6599998,-22.5,-0.035914123,0.35435268,9.732727,-0.009145874,-0.0104519045,0.0049205194,-0.03639204427599907,0.003690020414069295,-1.381475567817688,1017.3657,
2021.02.11 15:26:47,59.0,24.0,23.76,3.24,-22.74,0.083799616,0.35435268,9.632168,-0.0018154916,-0.0086193085,0.010418306,-0.03677049279212952,-0.008699755184352398,-1.402670979499817,1017.36523,
2021.02.11 15:26:47,59.0,24.0,23.76,3.0,-22.5,0.05985687,0.37590113,9.545974,0.0018497,-0.0025106561,0.0061422503,-0.03935686871409416,-0.006270296406000853,-1.4099797010421753,1017.3657,
2021.02.11 15:26:47,59.0,24.0,23.76,3.0,-22.619999,0.05506832,0.43815228,9.720756,-0.006702414,-6.719518E-5,6.444628E-4,-0.04504268243908882,-0.00566496467217803,-1.4045029878616333,1017.3657,
2021.02.11 15:26:47,59.0,24.0,23.58,2.7,-22.74,0.0670397,0.4166038,9.615408,0.024451714,0.008484919,-0.006075055,-0.04329855740070343,-0.006971998605877161,-1.4172155857086182,1017.3667,
2021.02.11 15:26:47,59.0,24.0,23.519999,2.58,-22.26,-0.0023942748,0.37111259,9.711179,0.012234409,0.008484919,-0.013405438,-0.03819639980792999,2.4654832668602467E-4,-1.4260177612304688,1017.3667,
2021.02.11 15:26:47,59.0,24.0,23.519999,2.76,-22.32,0.08858817,0.43575802,9.718362,0.01712133,-0.0012889256,-0.003631594,-0.04480675607919693,-0.009115293622016907,-1.4141252040863037,1017.3667,
2021.02.11 15:26:47,59.0,24.0,23.22,2.52,-22.5,0.090982445,0.48124924,9.917087,0.009790948,-0.0049541174,-0.020124957,-0.04848720505833626,-0.009174054488539696,-1.4184268712997437,1017.3594,
2021.02.11 15:26:47,59.0,24.0,23.279999,2.76,-22.32,0.40223816,0.5554718,10.43425,-0.045186926,-0.17416379,0.012861768,-0.05314582213759422,-0.03853071108460426,-1.4107816219329834,1017.3594,
2021.02.11 15:26:47,59.0,24.0,23.279999,3.0,-22.439999,0.15323359,0.56744313,10.59706,-0.10749518,-0.08864266,6.444628E-4,-0.05349054932594299,-0.014459001831710339,-1.395619511604309,1017.3584,
