Time,X-cord,Y-cord,Mag_x,Mag_y,Mag_z,Acc_x,Acc_y,Acc_z,Gyro_x,Gyro_y,Gyro_z,Orn_x,Orn_y,Orn_z,Pressure,
2021.02.11 15:21:30,45.0,18.0,7.7999997,-19.619999,-23.46,-0.20111908,0.3328042,8.8636055,0.031171232,0.03902818,-0.12885897,-0.037519991397857666,0.022686542943120003,-2.771355628967285,1017.4563,
2021.02.11 15:21:30,45.0,18.0,8.16,-19.68,-23.58,0.24900457,0.2777359,9.862018,-0.06962153,-0.16194649,-0.052500814,-0.028145771473646164,-0.02524348348379135,-2.710200071334839,1017.45825,
2021.02.11 15:21:30,45.0,18.0,8.5199995,-19.92,-23.22,0.32083282,0.36632404,9.613013,-0.054349903,-0.033053916,0.009196576,-0.03806748986244202,-0.033362459391355515,-2.6875228881835938,1017.45825,
2021.02.11 15:21:30,45.0,18.0,8.34,-19.74,-22.98,0.2083019,0.27055305,9.754275,-0.06290202,-0.02755613,-0.0017989981,-0.027723440900444984,-0.021351687610149384,-2.7086191177368164,1017.458,
2021.02.11 15:21:30,45.0,18.0,8.4,-19.74,-23.4,0.29689008,0.339987,9.747093,-0.03907827,-0.020836612,0.025079073,-0.034850575029850006,-0.03044993057847023,-2.6929574012756348,1017.458,
2021.02.11 15:21:30,45.0,18.0,8.22,-19.8,-23.519999,0.27055305,0.3040729,9.608225,-0.031137023,0.004819727,0.029965993,-0.03162406012415886,-0.028151044622063637,-2.705530881881714,1017.4436,
2021.02.11 15:21:30,45.0,18.0,8.28,-19.68,-23.939999,0.2681588,0.2944958,9.763853,-0.009756739,-0.0086193085,0.047681086,-0.03014134056866169,-0.02745754085481167,-2.701174736022949,1017.4634,
2021.02.11 15:21:30,45.0,18.0,8.28,-19.68,-23.88,0.30646718,0.29689008,9.72315,0.011012679,-0.016560556,0.05745493,-0.030509723350405693,-0.03150889649987221,-2.6969990730285645,1017.4634,
2021.02.11 15:21:30,45.0,18.0,8.16,-19.619999,-23.939999,0.39266106,0.30886146,9.567522,0.040945075,-0.017171424,0.094106846,-0.03224395215511322,-0.04101802036166191,-2.690324068069458,1017.4592,
2021.02.11 15:21:30,45.0,18.0,7.8599997,-19.68,-23.64,0.3974496,0.41181526,9.787795,0.02628431,-0.033664785,0.085554734,-0.04201497882604599,-0.04058435559272766,-2.7008628845214844,1017.4592,
2021.02.11 15:21:30,45.0,18.0,7.62,-19.92,-23.46,0.41420954,0.4166038,9.73991,0.007958353,-0.0018997908,0.028133398,-0.042708247900009155,-0.04250142723321915,-2.714430570602417,1017.46265,
2021.02.11 15:21:30,45.0,18.0,7.74,-20.039999,-23.64,0.3423813,0.31365,9.809344,0.018953927,-0.0018997908,0.007974846,-0.031944286078214645,-0.03488942235708237,-2.7238309383392334,1017.4697,
2021.02.11 15:21:30,45.0,18.0,7.7999997,-20.1,-23.22,0.38547826,0.33759275,9.694419,0.03911248,0.0023762658,0.020803018,-0.03478188067674637,-0.03974197059869766,-2.717226505279541,1017.4697,
2021.02.11 15:21:30,45.0,18.0,7.62,-20.1,-22.74,0.31604427,0.35914123,9.522031,0.029949501,0.006652322,0.020803018,-0.037678275257349014,-0.0331786684691906,-2.7312331199645996,1017.4751,
2021.02.11 15:21:30,45.0,18.0,7.44,-19.98,-22.74,0.23942748,0.3423813,10.012857,0.008569217,-0.02389094,0.031187724,-0.03417108580470085,-0.02390744723379612,-2.747581958770752,1017.4751,
2021.02.11 15:21:30,45.0,18.0,7.14,-19.92,-22.5,0.40463245,0.51955765,9.373586,0.050108057,0.002987131,0.05745493,-0.05531977489590645,-0.04314052686095238,-2.731957197189331,1017.4634,
2021.02.11 15:21:31,45.0,18.0,6.8399997,-20.46,-22.68,0.2466103,0.33519846,9.703996,-0.006702414,-0.019614883,0.02019215,-0.034517448395490646,-0.025407804176211357,-2.7811641693115234,1017.4568,
2021.02.11 15:21:31,45.0,18.0,6.8999996,-20.82,-22.8,0.3423813,0.5411061,9.5483675,-0.0018154916,0.006041457,0.044626758,-0.056573182344436646,-0.03584221750497818,-2.765172243118286,1017.4568,
2021.02.11 15:21:31,45.0,18.0,7.08,-20.58,-23.039999,0.23942748,0.4070267,9.725544,-0.0036480871,-0.012895366,0.033631187,-0.04181424528360367,-0.02461344376206398,-2.769808769226074,1017.4558,
2021.02.11 15:21:31,45.0,18.0,7.2,-20.82,-22.98,0.33519846,0.45491222,9.656111,-0.0042589526,0.007263188,0.046459354,-0.04704822599887848,-0.03469967469573021,-2.7566604614257812,1017.4558,
2021.02.11 15:21:31,45.0,18.0,7.2,-20.46,-22.98,0.31125572,0.43815228,9.670476,0.0018497,0.009095783,0.050124545,-0.04525388032197952,-0.032175078988075256,-2.75350022315979,1017.4619,
2021.02.11 15:21:31,45.0,18.0,7.56,-20.16,-23.58,0.3232271,0.409421,9.96976,0.01345614,-0.0067867124,0.048902817,-0.04102169722318649,-0.03240939974784851,-2.732424736022949,1017.4658,
2021.02.11 15:21:31,45.0,18.0,7.3799996,-20.76,-23.46,0.4070267,0.43815228,9.4142885,0.033003826,0.082399614,0.037907243,-0.04646429046988487,-0.04320808872580528,-2.7384579181671143,1017.4658,
2021.02.11 15:21:31,45.0,18.0,7.2,-21.0,-23.699999,0.21069619,0.21309046,9.553157,0.005514892,0.050023753,-0.008518515,-0.022296646609902382,-0.02205156348645687,-2.7809150218963623,1017.4675,
2021.02.11 15:21:31,45.0,18.0,7.14,-21.18,-23.58,0.28013015,0.24182175,9.70639,0.030560365,0.02742174,0.022024745,-0.02489815093576908,-0.028852375224232674,-2.7787680625915527,1017.4675,
2021.02.11 15:21:31,45.0,18.0,6.96,-21.0,-23.22,0.38308397,0.28252444,9.591465,-0.019530585,0.0042088614,-0.0017989981,-0.029423857107758522,-0.039918869733810425,-2.77154541015625,1017.4656,
2021.02.11 15:21:31,45.0,18.0,6.96,-20.52,-22.92,0.19633053,0.2777359,9.751882,-0.029915292,0.0145935705,-0.0011881329,-0.02846677415072918,-0.020129859447479248,-2.7840962409973145,1017.4575,
2021.02.11 15:21:31,45.0,18.0,7.3799996,-20.46,-22.619999,0.20111908,0.29689008,9.864412,-0.012811066,5.4367003E-4,-0.00668592,-0.03008175641298294,-0.02038552425801754,-2.764162063598633,1017.4575,
2021.02.11 15:21:31,45.0,18.0,7.68,-20.58,-22.98,0.20590763,0.35914123,9.337671,0.0061257565,0.03353039,0.012861768,-0.0384332612156868,-0.022047709673643112,-2.7476158142089844,1017.45605,
2021.02.11 15:21:31,45.0,18.0,7.8599997,-20.64,-22.98,0.32562137,0.33519846,9.967366,-0.03785654,-0.0055649825,-0.0042424593,-0.03359901160001755,-0.032657135277986526,-2.732778549194336,1017.45605,
2021.02.11 15:21:31,45.0,18.0,8.099999,-20.52,-23.22,0.1699935,0.44533512,9.828498,-0.014032797,0.020091359,-0.009129381,-0.045272864401340485,-0.017294256016612053,-2.729658842086792,1017.45996,
2021.02.11 15:21:31,45.0,18.0,7.98,-20.279999,-22.8,0.13886794,0.45251793,9.749487,0.0030714304,-0.0018997908,-0.022568416,-0.0463765487074852,-0.014242652803659439,-2.7335150241851807,1017.46484,
2021.02.11 15:21:32,45.0,18.0,8.099999,-20.039999,-22.26,0.15083931,0.45251793,9.8237095,0.011623544,-0.0018997908,-0.011572842,-0.046025898307561874,-0.015353412367403507,-2.7235372066497803,1017.46484,
2021.02.11 15:21:32,45.0,18.0,8.4,-20.039999,-22.26,0.19393626,0.24421602,9.596253,0.056216706,-6.719518E-5,0.015305229,-0.025438416749238968,-0.02020682953298092,-2.7150816917419434,1017.46436,
2021.02.11 15:21:32,45.0,18.0,8.22,-20.16,-22.08,0.17478207,0.17717634,9.684841,0.046442863,-0.033664785,0.025689937,-0.018289173021912575,-0.018045013770461082,-2.730287551879883,1017.46436,
2021.02.11 15:21:32,45.0,18.0,7.68,-20.22,-22.5,0.28252444,0.2777359,9.435837,0.031782098,0.0011545353,0.03485292,-0.029412485659122467,-0.029932698234915733,-2.73806095123291,1017.47,
2021.02.11 15:21:32,45.0,18.0,7.74,-20.34,-22.68,0.20351335,0.81644773,9.14613,0.01712133,0.020702222,0.012250902,-0.0890091136097908,-0.022247638553380966,-2.7175567150115967,1017.46655,
2021.02.11 15:21:32,45.0,18.0,7.56,-20.52,-23.039999,-0.11492519,0.67279124,10.072714,-0.054349903,-0.018393151,-0.053722546,-0.06669005751609802,0.011409061029553413,-2.773747444152832,1017.46655,
2021.02.11 15:21:32,45.0,18.0,8.04,-20.52,-22.92,-0.08858817,0.31843856,9.869201,-0.0024263568,0.006041457,-0.008518515,-0.03225340321660042,0.008975984528660774,-2.7642831802368164,1017.4607,
2021.02.11 15:21:32,45.0,18.0,8.46,-20.58,-22.859999,0.3902668,0.60335726,9.565128,0.034836423,-0.017171424,0.07272656,-0.06294315308332443,-0.04077838361263275,-2.685385227203369,1017.4607,
2021.02.11 15:21:32,45.0,18.0,8.34,-20.52,-23.039999,0.42139238,0.7015225,9.603436,0.015288736,-0.0018997908,0.025689937,-0.07284974306821823,-0.043851204216480255,-2.6807730197906494,1017.46533,
2021.02.11 15:21:32,45.0,18.0,8.22,-20.4,-22.859999,0.17238778,0.4764607,9.73991,0.007958353,0.011539245,-0.049446486,-0.048871781677007675,-0.01769726537168026,-2.7207484245300293,1017.46826,
2021.02.11 15:21:32,45.0,18.0,7.68,-20.64,-22.98,0.17717634,0.5123748,9.617802,0.019564793,-0.007397578,-0.031731397,-0.053214266896247864,-0.018419627100229263,-2.7459146976470947,1017.46826,
2021.02.11 15:21:32,45.0,18.0,7.68,-21.06,-23.039999,0.2083019,0.5794145,9.761458,0.0061257565,-0.022058344,-0.024401013,-0.0592743419110775,-0.021335981786251068,-2.747896671295166,1017.47144,
2021.02.11 15:21:32,45.0,18.0,7.8599997,-21.119999,-23.279999,0.22985038,0.55786604,9.620196,0.012234409,-0.014117096,-0.028677069,-0.05790768563747406,-0.023887939751148224,-2.7388346195220947,1017.47144,
2021.02.11 15:21:32,45.0,18.0,7.62,-21.539999,-23.16,0.17478207,0.52674043,9.629773,0.0024605652,-0.0055649825,-0.028677069,-0.05463571473956108,-0.018148183822631836,-2.7636992931365967,1017.4656,
2021.02.11 15:21:32,45.0,18.0,7.98,-21.06,-23.279999,0.16281068,0.52674043,9.744699,-0.010367605,-0.0025106561,-0.026844474,-0.05399397388100624,-0.016706062480807304,-2.741386651992798,1017.4656,
2021.02.11 15:21:32,45.0,18.0,8.04,-20.699999,-23.16,0.18435916,0.5147691,9.5483675,-0.00853501,0.006041457,-0.018903226,-0.05384957790374756,-0.019305527210235596,-2.729870080947876,1017.4656,
2021.02.11 15:21:32,45.0,18.0,8.16,-20.52,-22.439999,0.20351335,0.50040346,9.754275,-0.01097847,-0.012895366,-0.017681494,-0.051244866102933884,-0.020860988646745682,-2.722283363342285,1017.4629,
2021.02.11 15:21:33,45.0,18.0,8.88,-20.34,-22.56,0.31365,0.6177229,9.538791,-0.00853501,-0.0067867124,-0.012794573,-0.06463391333818436,-0.03286968544125557,-2.6700615882873535,1017.4629,
2021.02.11 15:21:33,45.0,18.0,8.82,-20.82,-22.38,0.13886794,0.4956149,9.797373,-0.015865391,0.0042088614,-0.022568416,-0.050538353621959686,-0.014173049479722977,-2.706749677658081,1017.45605,
2021.02.11 15:21:33,45.0,18.0,8.7,-20.46,-22.74,0.21309046,0.5147691,9.636956,0.0024605652,0.0023762658,-0.0054641897,-0.05335241183638573,-0.022108199074864388,-2.6953094005584717,1017.44946,
2021.02.11 15:21:33,45.0,18.0,8.639999,-20.76,-22.98,0.29210153,0.53392327,9.680053,-0.0042589526,0.0035979962,-0.01829236,-0.05507620796561241,-0.03016646020114422,-2.6949267387390137,1017.44946,
2021.02.11 15:21:33,45.0,18.0,8.4,-20.939999,-23.039999,0.25139886,0.531529,9.677659,0.007347487,-0.0049541174,-0.0072967852,-0.054849714040756226,-0.025971397757530212,-2.712433338165283,1017.44385,
2021.02.11 15:21:33,45.0,18.0,8.5199995,-20.52,-23.16,0.18675344,0.5363176,9.632168,0.0030714304,-0.020225748,-0.0011881329,-0.0556119829416275,-0.019386086612939835,-2.7048585414886475,1017.44385,
2021.02.11 15:21:33,45.0,18.0,8.5199995,-20.88,-22.8,0.21548474,0.4956149,9.617802,-0.0018154916,-0.0012889256,0.0024770587,-0.051472555845975876,-0.022401032969355583,-2.7116518020629883,1017.44653,
2021.02.11 15:21:33,45.0,18.0,8.5199995,-20.64,-22.74,0.24182175,0.50040346,9.653716,0.0012388347,0.008484919,0.011029172,-0.05177275463938713,-0.025044364854693413,-2.7044789791107178,1017.4414,
2021.02.11 15:21:33,45.0,18.0,8.46,-20.16,-22.859999,0.21309046,0.4956149,9.613013,-0.003037222,-0.012895366,0.007974846,-0.051498427987098694,-0.02216324582695961,-2.7000622749328613,1017.4414,
2021.02.11 15:21:33,45.0,18.0,7.98,-20.52,-22.619999,0.17957062,0.49082634,9.715967,-0.014032797,-0.0043432517,0.007974846,-0.05046598240733147,-0.018479907885193825,-2.7323760986328125,1017.4358,
2021.02.11 15:21:33,45.0,18.0,8.28,-20.46,-22.98,0.3328042,0.6105401,9.596253,0.004293161,-0.0122845005,0.010418306,-0.06349904090166092,-0.034666746854782104,-2.6957316398620605,1017.4358,
2021.02.11 15:21:33,45.0,18.0,7.8599997,-20.46,-23.279999,0.20111908,0.47885495,9.70639,0.004904026,-0.01350623,-0.0054641897,-0.0492834635078907,-0.020717311650514603,-2.7336132526397705,1017.4419,
2021.02.11 15:21:33,45.0,18.0,7.44,-20.279999,-22.98,0.22266756,0.49082634,9.629773,-0.005480683,0.0035979962,3.359759E-5,-0.05091201514005661,-0.023118704557418823,-2.7461912631988525,1017.4436,
2021.02.11 15:21:33,45.0,18.0,7.9199996,-19.92,-23.34,0.2681588,0.56265455,9.711179,-0.0073132785,0.008484919,-0.009129381,-0.05785214900970459,-0.02760639786720276,-2.709204912185669,1017.4436,
2021.02.11 15:21:33,45.0,18.0,7.68,-19.98,-23.279999,0.22506183,0.47885495,9.636956,1.7104227E-5,-0.008008444,-0.010351111,-0.04963509365916252,-0.023349791765213013,-2.7295279502868652,1017.4502,
2021.02.11 15:21:33,45.0,18.0,7.62,-19.98,-22.859999,0.22985038,0.50758624,9.598648,-0.0036480871,-0.009230174,-0.0042424593,-0.052816689014434814,-0.02394154481589794,-2.730990171432495,1017.4502,
2021.02.11 15:21:33,45.0,18.0,8.16,-20.16,-23.039999,0.23224466,0.5506832,9.627379,-0.0018154916,-0.0037323865,-0.0042424593,-0.057120855897665024,-0.02411867305636406,-2.708066463470459,1017.4453,
2021.02.11 15:21:34,45.0,18.0,8.099999,-20.22,-22.92,0.15323359,0.42139238,9.785401,-0.0012046263,0.0017654005,0.0024770587,-0.043031513690948486,-0.015658127143979073,-2.727055788040161,1017.45386,
2021.02.11 15:21:34,45.0,18.0,8.34,-20.279999,-22.8,0.23224466,0.52913475,9.562734,0.008569217,0.0042088614,0.017137825,-0.055260371416807175,-0.024281656369566917,-2.7039358615875244,1017.45386,
2021.02.11 15:21:34,45.0,18.0,8.76,-20.16,-22.8,0.25858167,0.47167215,9.660899,-0.0042589526,-0.01106277,0.009196576,-0.04876662418246269,-0.02675940841436386,-2.684323787689209,1017.45825,
2021.02.11 15:21:34,45.0,18.0,8.58,-20.279999,-22.26,0.28970724,0.52913475,9.624985,-5.9376104E-4,-6.780604E-4,0.012861768,-0.054895032197237015,-0.030090415850281715,-2.689589262008667,1017.45825,
2021.02.11 15:21:34,45.0,18.0,8.639999,-20.039999,-22.26,0.25139886,0.49800915,9.632168,-0.003037222,-0.007397578,-5.7726767E-4,-0.05163915082812309,-0.026094000786542892,-2.687326192855835,1017.4597,
2021.02.11 15:21:34,45.0,18.0,8.28,-20.039999,-22.02,0.1987248,0.4644893,9.711179,0.0030714304,-0.0043432517,-0.0042424593,-0.04778395965695381,-0.02046065591275692,-2.710414409637451,1017.4512,
2021.02.11 15:21:34,45.0,18.0,8.16,-20.46,-21.779999,0.28013015,0.52913475,9.512454,0.0030714304,-0.0018997908,-0.0030207285,-0.0555441789329052,-0.029440268874168396,-2.71258807182312,1017.4512,
2021.02.11 15:21:34,45.0,18.0,8.04,-20.699999,-22.08,0.25858167,0.52674043,9.778218,-0.003037222,-0.01350623,-0.00668592,-0.05379796773195267,-0.026438498869538307,-2.7252283096313477,1017.45654,
2021.02.11 15:21:34,45.0,18.0,7.62,-21.06,-22.08,0.21309046,0.50758624,9.536397,0.009790948,-0.009230174,-0.014627169,-0.05316277965903282,-0.022341247648000717,-2.7539541721343994,1017.45654,
2021.02.11 15:21:34,45.0,18.0,7.9199996,-20.88,-22.439999,0.1987248,0.4860378,9.699207,-0.00853501,-0.0049541174,-0.012794573,-0.05005871504545212,-0.020485900342464447,-2.740203380584717,1017.46265,
2021.02.11 15:21:34,45.0,18.0,8.04,-20.76,-22.8,0.30646718,0.5794145,9.567522,-0.0042589526,-6.719518E-5,-0.0017989981,-0.06045575439929962,-0.03202108293771744,-2.7164440155029297,1017.45557,
2021.02.11 15:21:34,45.0,18.0,7.7999997,-20.46,-22.859999,0.18435916,0.46927786,9.665688,-0.006702414,-0.0025106561,-0.012794573,-0.048503998667001724,-0.01907125674188137,-2.7389707565307617,1017.45557,
2021.02.11 15:21:34,45.0,18.0,7.98,-20.46,-23.34,0.2466103,0.5219519,9.550762,0.0012388347,0.007263188,0.0024770587,-0.05457782372832298,-0.025815270841121674,-2.72072696685791,1017.4546,
2021.02.11 15:21:34,45.0,18.0,7.5,-20.52,-23.34,0.21309046,0.5123748,9.58907,-0.0018154916,-0.0037323865,-0.0042424593,-0.053369294852018356,-0.02221856638789177,-2.7470760345458984,1017.4546,
2021.02.11 15:21:34,45.0,18.0,7.56,-20.34,-23.519999,0.23942748,0.50758624,9.632168,-0.010367605,-0.007397578,-5.7726767E-4,-0.052632059901952744,-0.024851951748132706,-2.738342523574829,1017.4524,
2021.02.11 15:21:34,45.0,18.0,8.04,-20.4,-23.34,0.2777359,0.50758624,9.596253,-0.016476257,-0.008008444,-0.0054641897,-0.052822887897491455,-0.028934041038155556,-2.714688539505005,1017.4575,
2021.02.11 15:21:35,45.0,18.0,8.22,-20.52,-22.859999,0.13886794,0.45970076,9.90272,-0.011589335,-0.012895366,-0.0024098635,-0.0463838092982769,-0.014022291637957096,-2.7277486324310303,1017.4575,
2021.02.11 15:21:35,45.0,18.0,8.46,-20.46,-22.8,0.23463893,0.5411061,9.620196,0.008569217,0.0035979962,0.005531385,-0.05617101117968559,-0.02438540942966938,-2.701873779296875,1017.4575,
2021.02.11 15:21:35,45.0,18.0,8.639999,-20.4,-22.74,0.21787901,0.47885495,9.703996,-5.9376104E-4,-0.0031215216,0.0030879239,-0.04929376393556595,-0.02244873344898224,-2.6982462406158447,1017.4575,
2021.02.11 15:21:35,45.0,18.0,8.5199995,-20.58,-23.039999,0.25139886,0.5602603,9.591465,0.011012679,-0.0043432517,0.016526958,-0.05832609906792641,-0.026204684749245644,-2.69842267036438,1017.448,
2021.02.11 15:21:35,45.0,18.0,7.9199996,-20.46,-23.039999,0.1987248,0.41420954,9.763853,0.004293161,-0.0086193085,0.009807441,-0.042388565838336945,-0.020350303500890732,-2.7348835468292236,1017.4512,
2021.02.11 15:21:35,45.0,18.0,7.7999997,-20.76,-23.22,0.22985038,0.5554718,9.462174,0.0024605652,0.005430592,0.015305229,-0.0586199015378952,-0.024286720901727676,-2.734182834625244,1017.4512,
2021.02.11 15:21:35,45.0,18.0,7.5,-20.88,-22.74,0.18196489,0.505192,9.751882,-5.9376104E-4,-0.007397578,0.0049205194,-0.051749300211668015,-0.018657298758625984,-2.758913993835449,1017.4558,
2021.02.11 15:21:35,45.0,18.0,7.56,-20.699999,-22.74,0.21787901,0.52674043,9.641745,0.009790948,-0.0122845005,0.024468208,-0.05456308275461197,-0.022593623027205467,-2.748013973236084,1017.4558,
2021.02.11 15:21:35,45.0,18.0,8.16,-20.52,-22.98,0.28970724,0.531529,9.63935,0.0012388347,-0.0061758477,0.027522534,-0.0550609827041626,-0.030045602470636368,-2.710580825805664,1017.45166,
2021.02.11 15:21:35,45.0,18.0,8.7,-20.58,-22.56,0.2466103,0.50040346,9.665688,-0.009756739,-0.016560556,0.01897042,-0.05170814320445061,-0.02550845965743065,-2.6956918239593506,1017.4512,
2021.02.11 15:21:35,45.0,18.0,8.58,-20.58,-23.16,0.2753416,0.5458947,9.735122,-0.014643662,-0.01106277,0.020803018,-0.055993761867284775,-0.028275784105062485,-2.694755792617798,1017.4512,
2021.02.11 15:21:35,45.0,18.0,8.16,-20.76,-23.22,0.30646718,0.55307746,9.6585045,-0.006702414,-0.0104519045,0.014694364,-0.057172078639268875,-0.03171965107321739,-2.7120907306671143,1017.4463,
2021.02.11 15:21:35,45.0,18.0,8.16,-20.88,-23.46,0.28252444,0.49082634,9.562734,0.004293161,-0.0122845005,0.0030879239,-0.051259662955999374,-0.029535725712776184,-2.7187087535858154,1017.4463,
2021.02.11 15:21:35,45.0,18.0,7.68,-20.76,-23.76,0.22745611,0.4956149,9.830893,-0.014643662,-0.017171424,-0.0017989981,-0.05035792663693428,-0.023132745176553726,-2.743190288543701,1017.4553,
2021.02.11 15:21:35,45.0,18.0,7.68,-20.76,-23.519999,0.2466103,0.52674043,9.744699,0.0012388347,-0.0061758477,0.008585712,-0.05398424342274666,-0.025301724672317505,-2.7398452758789062,1017.45996,
2021.02.11 15:21:35,45.0,18.0,7.7999997,-20.76,-23.4,0.2561874,0.52913475,9.5483675,-5.9376104E-4,0.008484919,-0.0017989981,-0.0553397536277771,-0.02682405710220337,-2.732762098312378,1017.45996,
2021.02.11 15:21:35,45.0,18.0,7.56,-20.939999,-23.16,0.21548474,0.46209505,9.787795,1.7104227E-5,-0.0104519045,-0.0030207285,-0.0471649095416069,-0.022012101486325264,-2.755241870880127,1017.4524,
2021.02.11 15:21:36,45.0,18.0,7.44,-21.42,-23.1,0.35674694,0.5650489,9.624985,0.0036822958,-0.0104519045,6.444628E-4,-0.058599021285772324,-0.03704771399497986,-2.749464988708496,1017.4524,
2021.02.11 15:21:36,45.0,18.0,7.3199997,-21.3,-22.92,0.23463893,0.45730647,9.5794935,0.0030714304,-0.008008444,-0.010961977,-0.04768756777048111,-0.02448897808790207,-2.769559144973755,1017.4463,
2021.02.11 15:21:36,45.0,18.0,7.56,-20.88,-22.8,0.2561874,0.4932206,9.682447,-0.005480683,-0.009230174,-0.014627169,-0.050877895206213,-0.02645278163254261,-2.748948812484741,1017.4575,
2021.02.11 15:21:36,45.0,18.0,7.68,-21.0,-22.56,0.37350687,0.44772938,9.696813,0.0030714304,-0.018393151,-0.017681494,-0.04610592499375343,-0.038499489426612854,-2.7370541095733643,1017.4575,
2021.02.11 15:21:36,45.0,18.0,7.98,-20.4,-22.74,0.38547826,0.4932206,9.632168,0.0036822958,-0.03183219,-0.02073582,-0.051120031625032425,-0.03999854251742363,-2.708833694458008,1017.46094,
2021.02.11 15:21:36,45.0,18.0,7.8599997,-20.76,-22.8,0.31125572,0.52674043,9.569917,-0.0048698178,-0.02266921,-0.021957552,-0.054956793785095215,-0.032512933015823364,-2.726184129714966,1017.46094,
2021.02.11 15:21:36,45.0,18.0,7.62,-21.42,-23.1,0.35674694,0.6273,9.205987,-0.025639236,-0.034886513,-0.035396587,-0.06798440217971802,-0.038732245564460754,-2.7361292839050293,1017.4519,
2021.02.11 15:21:36,45.0,18.0,7.2,-21.42,-23.34,0.36632404,0.5027977,9.656111,-0.037245676,-0.022058344,-0.05188995,-0.05198610574007034,-0.037918832153081894,-2.7609875202178955,1017.4492,
2021.02.11 15:21:36,45.0,18.0,7.14,-21.119999,-22.98,0.20590763,0.4070267,10.075109,-0.0024263568,0.021313088,-0.051279083,-0.040368858724832535,-0.020434414967894554,-2.7810847759246826,1017.4492,
2021.02.11 15:21:36,45.0,18.0,7.14,-20.76,-23.34,0.10055954,0.42139238,9.6585045,0.065990545,0.09583864,-0.01951409,-0.043599143624305725,-0.010411125607788563,-2.783477783203125,1017.4524,
2021.02.11 15:21:36,45.0,18.0,7.3199997,-20.64,-22.68,0.36392978,0.6081458,9.323306,0.075764395,0.09034086,0.03851811,-0.06508684903383255,-0.039014607667922974,-2.736884832382202,1017.4524,
2021.02.11 15:21:36,45.0,18.0,7.56,-20.64,-22.56,0.39505535,0.62251145,9.522031,0.046442863,0.029865202,0.01774869,-0.06522706151008606,-0.04146478325128555,-2.724295139312744,1017.448,
2021.02.11 15:21:36,45.0,18.0,7.7999997,-21.0,-22.68,0.19154198,0.6560313,9.888355,0.009180083,0.020702222,-0.011572842,-0.06623435765504837,-0.019368037581443787,-2.7412049770355225,1017.4551,
2021.02.11 15:21:36,45.0,18.0,7.9199996,-21.359999,-22.619999,0.32083282,0.42378664,9.895537,-0.08916922,-0.1845485,0.0018661933,-0.04277743399143219,-0.03241061419248581,-2.7403297424316406,1017.4551,
2021.02.11 15:21:36,45.0,18.0,7.74,-21.6,-23.16,0.38547826,0.5554718,10.573117,-0.012200201,0.031086933,-0.032342263,-0.05245319753885269,-0.036442194133996964,-2.7430222034454346,1017.4546,
