Time,X-cord,Y-cord,Mag_x,Mag_y,Mag_z,Acc_x,Acc_y,Acc_z,Gyro_x,Gyro_y,Gyro_z,Orn_x,Orn_y,Orn_z,Pressure,
2021.02.11 15:23:03,47.0,21.0,-6.2999997,27.96,-30.179998,0.3304099,0.53392327,10.101445,0.06415795,0.07995615,-0.11664166,-0.05277881398797035,-0.032697517424821854,0.17795580625534058,1017.4187,
2021.02.11 15:23:03,47.0,21.0,-6.48,28.26,-30.72,0.31843856,0.4956149,9.184438,0.022008253,-0.017782288,0.003698789,-0.05387786403298378,-0.03465764969587326,0.17914430797100067,1017.4192,
2021.02.11 15:23:03,47.0,21.0,-6.54,28.619999,-30.96,0.17717634,0.2370332,9.462174,-0.0060915486,-0.036108244,-0.009129381,-0.02504098042845726,-0.01872250810265541,0.20005767047405243,1017.4192,
2021.02.11 15:23:03,47.0,21.0,-6.24,28.38,-30.96,0.32083282,0.44054657,9.596253,-0.05190644,-0.020225748,0.032409456,-0.04585039243102074,-0.033420681953430176,0.17294777929782867,1017.4199,
2021.02.11 15:23:03,47.0,21.0,-6.54,28.56,-31.019999,0.3328042,0.4836435,9.799767,-0.037245676,-0.015949693,0.058065794,-0.049284178763628006,-0.03394737467169762,0.18041002750396729,1017.42065,
2021.02.11 15:23:03,47.0,21.0,-6.66,28.199999,-30.84,0.32083282,0.44772938,9.900327,-0.015254527,-0.0055649825,0.0721157,-0.045169223099946976,-0.03239494934678078,0.1890275776386261,1017.42065,
2021.02.11 15:23:03,47.0,21.0,-6.8399997,27.9,-30.539999,0.38308397,0.44054657,9.586677,-0.014643662,0.026810875,0.07333743,-0.04588517174124718,-0.0399387925863266,0.18945525586605072,1017.41504,
2021.02.11 15:23:03,47.0,21.0,-7.14,28.019999,-30.599998,0.2849187,0.32083282,9.555551,-0.011589335,-0.0122845005,0.059287526,-0.033548034727573395,-0.029808256775140762,0.21117743849754333,1017.41504,
2021.02.11 15:23:03,47.0,21.0,-6.8399997,28.08,-30.599998,0.25858167,0.409421,9.567522,-0.006702414,0.0042088614,0.041572433,-0.04275111109018326,-0.027020446956157684,0.20187248289585114,1017.4133,
2021.02.11 15:23:04,47.0,21.0,-6.2999997,28.14,-30.06,0.24900457,0.5219519,9.433443,0.008569217,0.021313088,0.046459354,-0.055254384875297546,-0.02638980932533741,0.18286532163619995,1017.4099,
2021.02.11 15:23:04,47.0,21.0,-5.8799996,28.38,-30.42,0.12689656,0.47885495,9.725544,-0.017697988,0.03291953,0.040350705,-0.049192920327186584,-0.013047019019722939,0.18167658150196075,1017.4099,
2021.02.11 15:23:04,47.0,21.0,-5.52,28.56,-30.42,0.2370332,0.40223816,9.876384,0.020175658,0.03780645,0.06478532,-0.04069306701421738,-0.02399539202451706,0.1594381332397461,1017.41113,
2021.02.11 15:23:04,47.0,21.0,-5.3399997,28.26,-30.359999,0.3232271,0.45251793,9.634562,0.02628431,0.044525966,0.061120123,-0.046907346695661545,-0.03353613242506981,0.1446012407541275,1017.41113,
2021.02.11 15:23:04,47.0,21.0,-5.3399997,28.08,-30.72,0.4956149,0.56265455,9.763853,0.01467787,0.046358563,0.005531385,-0.05748876929283142,-0.050716646015644073,0.12598253786563873,1017.4087,
2021.02.11 15:23:04,47.0,21.0,-5.58,27.9,-30.599998,0.5458947,0.4285752,9.93624,1.7104227E-5,0.0158153,-0.04455957,-0.043040987104177475,-0.05488458648324013,0.13253042101860046,1017.4155,
2021.02.11 15:23:04,47.0,21.0,-5.58,27.539999,-30.779999,0.09337672,0.4189981,9.402317,0.05194065,0.057354137,-0.09526138,-0.04453162103891373,-0.009930918924510479,0.18059664964675903,1017.4155,
2021.02.11 15:23:04,47.0,21.0,-5.8199997,27.779999,-30.72,0.009577099,0.20590763,9.668081,0.026895177,-0.0061758477,-0.075713694,-0.02129444293677807,-9.905891492962837E-4,0.20091000199317932,1017.4104,
2021.02.11 15:23:04,47.0,21.0,-5.8199997,27.96,-31.14,-0.03351985,0.30167863,9.742304,0.0030714304,0.0017654005,-0.0024098635,-0.030955765396356583,0.003440635744482279,0.20221853256225586,1017.4104,
2021.02.11 15:23:04,47.0,21.0,-5.8799996,27.96,-31.32,0.05985687,0.52913475,9.694419,0.0012388347,0.0023762658,0.03485292,-0.05452623963356018,-0.006174285430461168,0.18962863087654114,1017.4165,
2021.02.11 15:23:04,47.0,21.0,-5.94,27.84,-31.199999,0.20590763,0.531529,9.799767,0.020786522,-0.02755613,0.058065794,-0.05417391657829285,-0.021008390933275223,0.1772450953722,1017.4221,
2021.02.11 15:23:04,47.0,21.0,-5.7599998,27.42,-31.32,0.31843856,0.52913475,9.648928,0.028116906,-0.020836612,0.05134628,-0.05475408956408501,-0.032990507781505585,0.16091270744800568,1017.4221,
2021.02.11 15:23:04,47.0,21.0,-5.8799996,27.3,-30.9,0.32083282,0.46927786,9.447808,0.017732197,-0.01472796,0.021413881,-0.04960121959447861,-0.033945392817258835,0.16604876518249512,1017.41284,
2021.02.11 15:23:04,47.0,21.0,-5.22,27.48,-31.199999,0.24182175,0.4166038,9.60583,-0.006702414,-0.039773438,0.003698789,-0.04332901909947395,-0.025169160217046738,0.15267318487167358,1017.41284,
2021.02.11 15:23:04,47.0,21.0,-5.16,27.9,-31.439999,0.28013015,0.50040346,9.651321,-0.042743463,-0.039773438,0.009807441,-0.05178002640604973,-0.02901691012084484,0.14295408129692078,1017.4092,
2021.02.11 15:23:04,47.0,21.0,-5.22,28.14,-31.619999,0.31843856,0.4740664,9.917087,-0.050684713,-0.042827763,0.0030879239,-0.04774206131696701,-0.03209906443953514,0.14092057943344116,1017.4072,
2021.02.11 15:23:05,47.0,21.0,-5.3399997,28.38,-31.859999,0.42139238,0.54350036,9.586677,0.0012388347,-0.01350623,0.019581286,-0.05657816678285599,-0.04392777010798454,0.1298149675130844,1017.4072,
2021.02.11 15:23:05,47.0,21.0,-5.3399997,28.38,-31.439999,0.26337022,0.47167215,9.692024,-0.02136318,-0.0037323865,-0.0042424593,-0.04860972985625267,-0.027167225256562233,0.14895211160182953,1017.40063,
2021.02.11 15:23:05,47.0,21.0,-5.64,28.08,-31.38,0.27055305,0.44054657,9.481328,-0.005480683,-0.0049541174,0.011029172,-0.0464123860001564,-0.02852761186659336,0.1593366265296936,1017.40063,
2021.02.11 15:23:05,47.0,21.0,-5.7,27.96,-31.26,0.32083282,0.40223816,9.759064,0.004904026,-0.016560556,0.012250902,-0.041171349585056305,-0.03286353498697281,0.15842165052890778,1017.4055,
2021.02.11 15:23:05,47.0,21.0,-5.64,28.019999,-31.14,0.45970076,0.52913475,9.510059,0.01345614,-0.0012889256,0.008585712,-0.05551747977733612,-0.04830077290534973,0.13808661699295044,1017.3965,
2021.02.11 15:23:05,47.0,21.0,-5.94,27.66,-31.14,0.29689008,0.45491222,9.749487,-0.0042589526,-0.01106277,-0.01829236,-0.04660472273826599,-0.030442461371421814,0.16987253725528717,1017.3965,
2021.02.11 15:23:05,47.0,21.0,-5.7599998,28.14,-31.08,0.30167863,0.40223816,9.653716,0.019564793,-0.0122845005,-0.003631594,-0.041622281074523926,-0.031239833682775497,0.16130246222019196,1017.3989,
2021.02.11 15:23:05,47.0,21.0,-5.4,28.32,-31.019999,0.4668836,0.50998056,9.500483,-0.007924144,0.006652322,-0.021346685,-0.053563449531793594,-0.049103643745183945,0.1285233348608017,1017.3989,
2021.02.11 15:23:05,47.0,21.0,-5.46,28.439999,-31.199999,0.30886146,0.47167215,9.677659,-5.9376104E-4,-0.0067867124,-0.032342263,-0.048674967139959335,-0.03190406784415245,0.14798060059547424,1017.3999,
2021.02.11 15:23:05,47.0,21.0,-5.8199997,28.5,-31.199999,0.28731298,0.43336374,9.720756,0.0067366217,0.006652322,-0.020124957,-0.04453235864639282,-0.029548048973083496,0.16246767342090607,1017.405,
2021.02.11 15:23:05,47.0,21.0,-5.8799996,28.199999,-31.14,0.2657645,0.4668836,9.663293,0.012234409,0.005430592,-0.009740246,-0.04825940355658531,-0.027495548129081726,0.16762535274028778,1017.405,
2021.02.11 15:23:05,47.0,21.0,-6.06,28.08,-31.14,0.37590113,0.47885495,9.423865,0.01345614,-0.016560556,-0.0054641897,-0.05072907358407974,-0.03986707702279091,0.16104407608509064,1017.4121,
2021.02.11 15:23:05,47.0,21.0,-5.8199997,27.66,-30.9,0.29689008,0.4740664,9.608225,-0.011589335,-0.022058344,-0.016459765,-0.049276188015937805,-0.03088974766433239,0.16526389122009277,1017.4121,
2021.02.11 15:23:05,47.0,21.0,-5.58,27.66,-30.84,0.3423813,0.531529,9.857229,-0.006702414,-0.028166996,-0.009740246,-0.05383818596601486,-0.03472007438540459,0.1526525914669037,1017.4121,
2021.02.11 15:23:05,47.0,21.0,-5.46,27.84,-30.779999,0.37590113,0.5698374,9.550762,0.024451714,-0.02144748,-0.0017989981,-0.059547435492277145,-0.03933792933821678,0.14228945970535278,1017.4133,
2021.02.11 15:23:05,47.0,21.0,-5.8799996,27.9,-30.599998,0.25379312,0.42618093,9.624985,0.018343061,-0.02144748,-0.0011881329,-0.044234346598386765,-0.02636205032467842,0.1717759668827057,1017.4133,
2021.02.11 15:23:05,47.0,21.0,-6.24,27.9,-30.48,0.3615355,0.4836435,9.541185,0.028116906,-0.016560556,0.01897042,-0.05061047896742821,-0.037873972207307816,0.1710485965013504,1017.41284,
2021.02.11 15:23:06,47.0,21.0,-6.42,28.14,-30.179998,0.43815228,0.5602603,9.5483675,-0.012811066,-0.0122845005,6.444628E-4,-0.05854736268520355,-0.04585549980401993,0.16680826246738434,1017.41284,
2021.02.11 15:23:06,47.0,21.0,-6.48,27.66,-30.42,0.42378664,0.5698374,9.742304,-0.014032797,-0.014117096,-0.011572842,-0.058369386941194534,-0.043472226709127426,0.17345945537090302,1017.417,
2021.02.11 15:23:06,47.0,21.0,-6.18,27.599998,-30.539999,0.38787252,0.5554718,9.42626,-0.02380664,-0.018393151,-0.02073582,-0.05881040170788765,-0.04112488031387329,0.1660008281469345,1017.4226,
2021.02.11 15:23:06,47.0,21.0,-5.8799996,28.26,-30.96,0.2561874,0.38787252,9.826104,-0.042132597,-0.025723536,-0.016459765,-0.03943980857729912,-0.026066219434142113,0.17043909430503845,1017.4226,
2021.02.11 15:23:06,47.0,21.0,-5.7599998,28.5,-31.019999,0.33519846,0.4764607,9.555551,-0.04335433,0.0042088614,0.016526958,-0.049790360033512115,-0.03506455197930336,0.15430472791194916,1017.42017,
2021.02.11 15:23:06,47.0,21.0,-5.7,28.8,-31.019999,0.2849187,0.37111259,10.010463,-0.04701952,-6.780604E-4,0.022024745,-0.03704051300883293,-0.028454409912228584,0.15949006378650665,1017.42017,
2021.02.11 15:23:06,47.0,21.0,-6.0,28.74,-31.199999,0.54828894,0.5363176,9.416683,-0.009756739,0.0316978,0.04340503,-0.05679653584957123,-0.05815960839390755,0.1361628621816635,1017.4114,
2021.02.11 15:23:06,47.0,21.0,-6.06,28.68,-31.08,0.5123748,0.5794145,9.737515,-0.04579779,0.013982705,0.0049205194,-0.05935133248567581,-0.0525701567530632,0.14391730725765228,1017.4109,
2021.02.11 15:23:06,47.0,21.0,-5.94,28.38,-31.26,0.35674694,0.600963,9.859624,-0.018919718,-0.007397578,-0.017681494,-0.06083689257502556,-0.03616683557629585,0.15760405361652374,1017.4109,
2021.02.11 15:23:06,47.0,21.0,-6.06,28.439999,-31.32,0.29210153,0.4860378,9.718362,0.01712133,-0.007397578,-0.018903226,-0.049948159605264664,-0.030047615990042686,0.1690477877855301,1017.4055,
2021.02.11 15:23:06,47.0,21.0,-6.0,28.74,-30.9,0.21309046,0.31843856,9.718362,0.016510466,0.029865202,-0.024401013,-0.03274710848927498,-0.021923068910837173,0.17704808712005615,1017.4055,
2021.02.11 15:23:06,47.0,21.0,-5.94,28.26,-31.019999,0.37350687,0.43575802,9.42626,0.036058154,0.018869627,0.015916094,-0.046159036457538605,-0.03960335999727249,0.1573343276977539,1017.4082,
2021.02.11 15:23:06,47.0,21.0,-6.0,28.14,-30.84,0.44054657,0.43336374,9.814133,-0.009756739,0.015204436,-0.014627169,-0.044084109365940094,-0.04485888034105301,0.1551416516304016,1017.4048,
2021.02.11 15:23:06,47.0,21.0,-6.3599997,28.14,-30.72,0.42378664,0.4956149,9.581888,0.004904026,0.030476067,-0.0298988,-0.05162770301103592,-0.044199079275131226,0.16666533052921295,1017.4048,
2021.02.11 15:23:06,47.0,21.0,-6.24,27.9,-30.9,0.23942748,0.3974496,9.737515,0.01345614,-0.007397578,-0.03845091,-0.04078137129545212,-0.02458319440484047,0.18582382798194885,1017.3999,
2021.02.11 15:23:06,47.0,21.0,-6.7799997,28.08,-30.599998,0.16281068,0.42378664,9.402317,0.010401813,-6.719518E-5,0.005531385,-0.04503534734249115,-0.017314286902546883,0.20920401811599731,1017.3999,
2021.02.11 15:23:06,47.0,21.0,-6.66,28.08,-30.66,0.20590763,0.38787252,9.948212,-0.029915292,-0.0122845005,6.444628E-4,-0.03896109759807587,-0.020695000886917114,0.2030581384897232,1017.40063,
2021.02.11 15:23:07,47.0,21.0,-6.06,27.66,-30.84,0.28970724,0.5363176,9.682447,-0.0018154916,-0.0061758477,0.033631187,-0.05530945956707001,-0.029911944642663002,0.17330756783485413,1017.4099,
2021.02.11 15:23:07,47.0,21.0,-6.3599997,27.84,-30.96,0.2944958,0.48843205,9.828498,0.01467787,-0.025112672,0.039128974,-0.04963240027427673,-0.029954496771097183,0.18293367326259613,1017.4099,
2021.02.11 15:23:07,47.0,21.0,-6.06,27.66,-31.26,0.31125572,0.4668836,9.517242,0.01467787,-0.023280075,0.03729638,-0.04899115487933159,-0.03269274905323982,0.17094342410564423,1017.40356,
2021.02.11 15:23:07,47.0,21.0,-6.24,27.599998,-31.26,0.25379312,0.42378664,9.632168,0.0030714304,-0.009841039,0.029965993,-0.04395342618227005,-0.026342399418354034,0.18486951291561127,1017.40356,
2021.02.11 15:23:07,47.0,21.0,-6.66,27.599998,-31.32,0.34477556,0.43815228,9.608225,0.0030714304,0.006041457,0.037907243,-0.045540954917669296,-0.03586798906326294,0.18846744298934937,1017.4048,
2021.02.11 15:23:07,47.0,21.0,-6.3599997,27.539999,-31.32,0.42378664,0.54828894,9.641745,-0.0036480871,-6.780604E-4,0.03729638,-0.056750304996967316,-0.04392504692077637,0.16838721930980682,1017.4094,
2021.02.11 15:23:07,47.0,21.0,-5.94,27.72,-31.32,0.31604427,0.45012367,9.663293,0.0036822958,0.007263188,0.007974846,-0.04652228578925133,-0.03269399702548981,0.16694681346416473,1017.4094,
2021.02.11 15:23:07,47.0,21.0,-5.7599998,27.9,-31.32,0.37111259,0.4764607,9.634562,0.004904026,-6.780604E-4,0.008585712,-0.0493764691054821,-0.0384998545050621,0.1534397304058075,1017.4153,
2021.02.11 15:23:07,47.0,21.0,-5.22,28.08,-31.08,0.4166038,0.50998056,9.804555,0.0018497,-0.0018997908,-0.020124957,-0.0519210584461689,-0.042465295642614365,0.13058069348335266,1017.4153,
2021.02.11 15:23:07,47.0,21.0,-5.46,27.84,-31.08,0.39505535,0.53871185,9.557945,0.01345614,0.007263188,-0.017070629,-0.05625522881746292,-0.04130915179848671,0.14022968709468842,1017.4148,
2021.02.11 15:23:07,47.0,21.0,-5.7,27.779999,-30.96,0.22266756,0.4644893,9.6896305,0.0018497,-0.0055649825,-0.030509664,-0.04788745194673538,-0.022975942119956017,0.16895833611488342,1017.41504,
2021.02.11 15:23:07,47.0,21.0,-5.8799996,27.72,-30.72,0.2944958,0.4956149,9.761458,-0.005480683,0.002987131,-0.025011877,-0.050706032663583755,-0.030160091817378998,0.16767580807209015,1017.41504,
2021.02.11 15:23:07,47.0,21.0,-6.3599997,27.539999,-30.9,0.38787252,0.51955765,9.536397,0.009180083,0.004819727,-0.02073582,-0.05438286438584328,-0.04065044969320297,0.17292894423007965,1017.4133,
2021.02.11 15:23:07,47.0,21.0,-6.42,27.84,-31.08,0.3040729,0.5411061,9.70639,-0.0073132785,-0.0043432517,-0.027455337,-0.05566251650452614,-0.031316839158535004,0.1822594404220581,1017.4133,
2021.02.11 15:23:07,47.0,21.0,-6.48,28.019999,-31.08,0.3304099,0.531529,9.5244255,0.009790948,0.01215011,-0.028677069,-0.055715665221214294,-0.034676894545555115,0.17969569563865662,1017.41406,
2021.02.11 15:23:07,47.0,21.0,-6.54,28.019999,-31.56,0.25379312,0.48843205,9.763853,-0.012200201,0.0023762658,-0.034174856,-0.049966003745794296,-0.025987278670072556,0.19100983440876007,1017.4075,
2021.02.11 15:23:08,47.0,21.0,-6.06,28.439999,-31.56,0.25379312,0.5027977,9.632168,0.0012388347,-0.0031215216,-0.014016303,-0.05213445425033569,-0.026342401280999184,0.17218738794326782,1017.4075,
2021.02.11 15:23:08,47.0,21.0,-5.7599998,28.56,-31.08,0.19393626,0.4764607,9.720756,-0.0048698178,-0.0031215216,-0.012794573,-0.048965852707624435,-0.019948091357946396,0.16936054825782776,1017.3987,
2021.02.11 15:23:08,47.0,21.0,-5.7599998,28.439999,-31.019999,0.2561874,0.47885495,9.634562,-0.0042589526,5.4367003E-4,0.007974846,-0.04964340478181839,-0.026584193110466003,0.16324876248836517,1017.3987,
2021.02.11 15:23:08,47.0,21.0,-5.3399997,28.26,-30.66,0.3328042,0.55307746,9.694419,-0.009145874,-0.0049541174,0.021413881,-0.056955866515636444,-0.034315988421440125,0.14201679825782776,1017.4077,
2021.02.11 15:23:08,47.0,21.0,-5.58,28.08,-30.3,0.31365,0.4740664,9.694419,-0.003037222,-0.0055649825,0.013472633,-0.04883652552962303,-0.03234238922595978,0.15442274510860443,1017.40454,
2021.02.11 15:23:08,47.0,21.0,-5.4,27.779999,-30.599998,0.30886146,0.50040346,9.567522,0.0012388347,-0.0018997908,0.012250902,-0.05222753435373306,-0.03227107599377632,0.14914627373218536,1017.40454,
2021.02.11 15:23:08,47.0,21.0,-4.7999997,27.779999,-30.599998,0.2849187,0.4189981,9.775824,-0.012200201,-0.01472796,0.003698789,-0.04281626641750336,-0.029136989265680313,0.13358329236507416,1017.4082,
2021.02.11 15:23:08,47.0,21.0,-4.7999997,27.84,-30.48,0.40463245,0.53871185,9.629773,0.011623544,-0.007397578,0.013472633,-0.05583490431308746,-0.04199419170618057,0.11860302090644836,1017.4082,
2021.02.11 15:23:08,47.0,21.0,-4.44,27.779999,-31.019999,0.31125572,0.47167215,9.718362,-0.0012046263,-0.0049541174,-0.0158489,-0.048471253365278244,-0.03201664611697197,0.11720313131809235,1017.40796,
2021.02.11 15:23:08,47.0,21.0,-4.5,27.84,-30.599998,0.37829542,0.52674043,9.335278,0.005514892,-0.0043432517,-0.018903226,-0.05631883069872856,-0.040501050651073456,0.10987171530723572,1017.4055,
2021.02.11 15:23:08,47.0,21.0,-4.98,27.48,-30.66,0.19154198,0.36632404,9.897932,-0.016476257,-0.011673635,-0.029287932,-0.03698635846376419,-0.01934930309653282,0.15217505395412445,1017.4055,
2021.02.11 15:23:08,47.0,21.0,-5.04,27.539999,-30.84,0.32562137,0.50040346,9.502876,-0.003037222,-6.719518E-5,-0.020124957,-0.05257871747016907,-0.03425215557217598,0.13581503927707672,1017.4072,
2021.02.11 15:23:08,47.0,21.0,-5.22,27.539999,-30.66,0.31125572,0.4764607,9.744699,-0.016476257,-0.0025106561,-0.009129381,-0.04883057251572609,-0.03193017467856407,0.145073801279068,1017.4072,
2021.02.11 15:23:08,47.0,21.0,-5.1,27.72,-30.539999,0.2753416,0.4740664,9.763853,-0.0060915486,-0.0043432517,-0.00668592,-0.04849586263298988,-0.02819262631237507,0.14422520995140076,1017.41016,
2021.02.11 15:23:08,47.0,21.0,-5.3399997,27.9,-30.779999,0.32801566,0.50040346,9.60583,0.0012388347,0.0011545353,6.444628E-4,-0.05201641097664833,-0.03413429856300354,0.14443251490592957,1017.4158,
2021.02.11 15:23:08,47.0,21.0,-5.4,27.779999,-30.84,0.3304099,0.4836435,9.75667,-0.006702414,-0.0037323865,-0.0048533245,-0.049501679837703705,-0.033852092921733856,0.14758987724781036,1017.4158,
2021.02.11 15:23:08,47.0,21.0,-5.4,27.779999,-30.539999,0.31604427,0.51955765,9.613013,0.004293161,0.0023762658,-0.0054641897,-0.05396568775177002,-0.03286487236618996,0.14836552739143372,1017.4131,
2021.02.11 15:23:09,47.0,21.0,-5.94,27.66,-30.96,0.21548474,0.44533512,9.771035,-0.0036480871,-0.0037323865,-0.01829236,-0.045534487813711166,-0.02204984426498413,0.17901422083377838,1017.4131,
2021.02.11 15:23:09,47.0,21.0,-6.24,27.779999,-30.9,0.3304099,0.46209505,9.60583,0.014067005,-0.0025106561,-0.003631594,-0.04804026335477829,-0.03438325226306915,0.17513178288936615,1017.4099,
2021.02.11 15:23:09,47.0,21.0,-6.6,27.66,-30.96,0.29928434,0.52674043,9.620196,0.004904026,-6.780604E-4,-0.00790765,-0.05467258766293526,-0.031099971383810043,0.18983949720859528,1017.4038,
2021.02.11 15:23:09,47.0,21.0,-7.2599998,27.359999,-30.9,0.2681588,0.50998056,9.644139,0.0024605652,-0.0031215216,-0.011572842,-0.05281025916337967,-0.027798200026154518,0.21742255985736847,1017.4038,
2021.02.11 15:23:09,47.0,21.0,-7.3799996,27.539999,-30.9,0.2849187,0.4740664,9.79019,-0.007924144,0.0017654005,-0.0048533245,-0.04836435988545418,-0.029094256460666656,0.21968725323677063,1017.40845,
2021.02.11 15:23:09,47.0,21.0,-7.14,27.66,-30.779999,0.32801566,0.531529,9.620196,0.0012388347,0.0011545353,-0.0024098635,-0.05516326054930687,-0.03408336266875267,0.20464661717414856,1017.40845,
2021.02.11 15:23:09,47.0,21.0,-7.02,27.72,-30.9,0.2370332,0.44294083,9.7135725,-0.0048698178,0.0017654005,-0.014627169,-0.04555508866906166,-0.02439742721617222,0.2119850516319275,1017.4033,
2021.02.11 15:23:09,47.0,21.0,-6.42,28.199999,-31.14,0.3423813,0.55786604,9.70639,-0.0036480871,-6.780604E-4,-0.0054641897,-0.057375334203243256,-0.0352591834962368,0.1757330298423767,1017.40576,
2021.02.11 15:23:09,47.0,21.0,-6.24,28.019999,-31.08,0.30646718,0.5027977,9.699207,1.7104227E-5,-0.0043432517,-0.00668592,-0.051766905933618546,-0.031586628407239914,0.17571386694908142,1017.40576,
2021.02.11 15:23:09,47.0,21.0,-6.0,27.72,-30.9,0.32562137,0.5411061,9.586677,0.0012388347,-0.0031215216,-0.00790765,-0.05635129660367966,-0.0339529775083065,0.1665743738412857,1017.4065,
2021.02.11 15:23:09,47.0,21.0,-5.94,27.72,-30.66,0.28013015,0.50040346,9.648928,-0.0036480871,-0.0049541174,-0.015238034,-0.05179284140467644,-0.02902410551905632,0.17072705924510956,1017.4065,
2021.02.11 15:23:09,47.0,21.0,-6.2999997,27.42,-31.14,0.2370332,0.4860378,9.763853,-0.009145874,0.0011545353,-0.017070629,-0.04972361400723457,-0.024271836504340172,0.18921563029289246,1017.40405,
2021.02.11 15:23:09,47.0,21.0,-6.72,27.18,-31.619999,0.32801566,0.531529,9.701602,-0.0024263568,-0.0018997908,-0.0030207285,-0.05470184609293938,-0.03379758819937706,0.1931225061416626,1017.40356,
2021.02.11 15:23:09,47.0,21.0,-6.72,27.3,-31.92,0.3304099,0.49800915,9.60583,0.0012388347,-0.009841039,-0.0024098635,-0.051767535507678986,-0.03438325598835945,0.19185525178909302,1017.40356,
2021.02.11 15:23:09,47.0,21.0,-6.8999996,27.359999,-31.8,0.2657645,0.46927786,9.804555,-0.019530585,-0.0067867124,-0.013405438,-0.04780921712517738,-0.027099594473838806,0.20619092881679535,1017.4077,
2021.02.11 15:23:09,47.0,21.0,-6.72,27.539999,-31.14,0.29928434,0.5219519,9.5794935,-0.009145874,-0.0049541174,-0.009129381,-0.0544060617685318,-0.03123202919960022,0.19422197341918945,1017.4077,
2021.02.11 15:23:09,47.0,21.0,-6.2999997,27.72,-30.72,0.35914123,0.5027977,9.63935,-0.009756739,-0.0012889256,-0.009129381,-0.05207766219973564,-0.03724060207605362,0.17409537732601166,1017.41284,
2021.02.11 15:23:10,47.0,21.0,-6.48,27.66,-30.96,0.25139886,0.51955765,9.364009,-0.005480683,0.008484919,-0.00668592,-0.055407773703336716,-0.026840906590223312,0.19012795388698578,1017.4099,
2021.02.11 15:23:10,47.0,21.0,-6.54,27.779999,-31.5,0.10774237,0.3304099,9.763853,-0.012811066,-0.031221323,-0.022568416,-0.03382515162229538,-0.011034372262656689,0.2115505337715149,1017.4099,
2021.02.11 15:23:10,47.0,21.0,-6.72,27.9,-31.38,0.50040346,0.4740664,9.651321,-0.009756739,-0.0403843,-0.003631594,-0.049014151096343994,-0.05180179700255394,0.17119546234607697,1017.4043,
2021.02.11 15:23:10,47.0,21.0,-6.66,27.9,-31.019999,0.5650489,0.600963,9.646533,0.0061257565,0.013982705,0.023246476,-0.0621117427945137,-0.05850847437977791,0.16087663173675537,1017.4043,
2021.02.11 15:23:10,47.0,21.0,-7.08,27.9,-30.539999,0.38068968,0.5243462,9.783007,0.007347487,-0.0043432517,-0.0072967852,-0.053505994379520416,-0.03889373689889908,0.19693149626255035,1017.4109,
2021.02.11 15:23:10,47.0,21.0,-6.96,27.72,-30.3,0.28970724,0.3998439,9.435837,0.020786522,0.006041457,-0.040894374,-0.04232977330684662,-0.03069322556257248,0.20500361919403076,1017.41187,
2021.02.11 15:23:10,47.0,21.0,-6.7799997,27.66,-30.779999,0.53392327,0.5458947,10.822123,-0.029304428,-0.07703622,-0.024401013,-0.050338633358478546,-0.0492963083088398,0.17812871932983398,1017.41187,
