Time,X-cord,Y-cord,Mag_x,Mag_y,Mag_z,Acc_x,Acc_y,Acc_z,Gyro_x,Gyro_y,Gyro_z,Orn_x,Orn_y,Orn_z,Pressure,
2021.02.11 15:30:37,78.0,22.0,5.58,-32.16,-21.6,-0.46927786,0.22027329,9.5483675,-0.026250102,0.08728654,-0.052500814,-0.023037320002913475,0.049107931554317474,-2.9999496936798096,1017.3257,
2021.02.11 15:30:37,78.0,22.0,5.3399997,-32.04,-21.48,-0.15802214,0.043096945,9.39274,-0.020752314,-0.0049541174,0.03302032,-0.004587643779814243,0.016822272911667824,-2.986987829208374,1017.30054,
2021.02.11 15:30:37,78.0,22.0,5.64,-32.28,-21.9,0.057462595,-0.043096945,9.799767,-0.085504025,-0.07642535,0.069672234,0.004397647920995951,-0.005863602738827467,-2.965275526046753,1017.30054,
2021.02.11 15:30:38,78.0,22.0,5.16,-32.399998,-21.96,0.20111908,0.22985038,9.598648,-0.06962153,-0.02755613,0.08799819,-0.02393629215657711,-0.020949790254235268,-2.9670677185058594,1017.3013,
2021.02.11 15:30:38,78.0,22.0,5.22,-32.34,-21.6,0.10055954,0.25858167,9.981731,-0.063512884,-0.039162572,0.060509257,-0.025898387655615807,-0.010074017569422722,-2.9720945358276367,1017.3013,
2021.02.11 15:30:38,78.0,22.0,4.92,-32.52,-21.84,0.038308397,-0.052674048,9.737515,-0.0018154916,-0.03183219,0.05501147,0.005409298464655876,-0.003934083506464958,-2.989400625228882,1017.3013,
2021.02.11 15:30:38,78.0,22.0,4.56,-32.16,-21.84,0.18675344,0.083799616,9.648928,0.029338636,-0.0037323865,0.09655031,-0.008683018386363983,-0.019352423027157784,-2.987009048461914,1017.30615,
2021.02.11 15:30:38,78.0,22.0,4.56,-32.16,-21.84,0.31843856,0.12689656,9.828498,0.030560365,-0.020836612,0.095939435,-0.012903595343232155,-0.03238818421959877,-2.977911949157715,1017.30615,
2021.02.11 15:30:38,78.0,22.0,4.2,-32.399998,-22.08,0.30646718,0.21787901,9.560339,0.05866017,-0.02755613,0.05501147,-0.022774245589971542,-0.03204512596130371,-2.9889800548553467,1017.3135,
2021.02.11 15:30:38,78.0,22.0,4.2,-32.399998,-22.14,0.17957062,0.10055954,9.615408,0.038501613,-0.01472796,0.020803018,-0.01045596320182085,-0.01867312751710415,-2.999168634414673,1017.3135,
2021.02.11 15:30:38,78.0,22.0,4.14,-32.88,-21.9,0.13647367,0.22506183,9.656111,0.028116906,-0.019004017,0.0012553281,-0.02330116555094719,-0.014132457785308361,-3.004971742630005,1017.31616,
2021.02.11 15:30:38,78.0,22.0,4.08,-32.64,-22.26,0.2370332,0.22266756,9.553157,0.031782098,-0.012895366,0.014083498,-0.023296881467103958,-0.02480693720281124,-2.9983832836151123,1017.32007,
2021.02.11 15:30:38,78.0,22.0,3.8999999,-32.46,-22.199999,0.09337672,0.14844504,9.833286,0.0158996,-0.019614883,-0.003631594,-0.015094350092113018,-0.009495696984231472,-3.0143144130706787,1017.32007,
2021.02.11 15:30:38,78.0,22.0,3.48,-32.52,-22.199999,0.19393626,0.28252444,9.356826,0.029338636,0.0023762658,0.010418306,-0.030178824439644814,-0.020723747089505196,-3.0184879302978516,1017.3203,
2021.02.11 15:30:38,78.0,22.0,3.6,-31.98,-21.96,-0.043096945,0.13886794,9.703996,-0.0018154916,-0.009230174,-0.0158489,-0.014309270307421684,0.004441125318408012,-3.0314218997955322,1017.3203,
2021.02.11 15:30:38,78.0,22.0,3.84,-32.399998,-21.48,0.15802214,0.26337022,9.615408,0.017732197,-0.009230174,0.011640037,-0.027379892766475677,-0.016432782635092735,-3.0105173587799072,1017.3113,
2021.02.11 15:30:38,78.0,22.0,4.02,-32.34,-21.539999,0.098165266,0.24900457,9.797373,1.7104227E-5,-0.020225748,-0.003631594,-0.025408698245882988,-0.010019214823842049,-3.009108304977417,1017.3152,
2021.02.11 15:30:38,78.0,22.0,4.38,-32.219997,-21.3,0.15802214,0.28013015,9.653716,0.0012388347,-0.011673635,-0.0011881329,-0.029005831107497215,-0.016367584466934204,-2.9930310249328613,1017.3152,
2021.02.11 15:30:38,78.0,22.0,4.68,-32.579998,-21.66,0.05506832,0.18914771,9.555551,0.0067366217,-0.017782288,-0.009129381,-0.019791625440120697,-0.005762903019785881,-2.99322247505188,1017.31396,
2021.02.11 15:30:39,78.0,22.0,4.44,-32.399998,-21.96,0.15083931,0.22745611,9.61062,-0.0060915486,-0.017782288,0.0024770587,-0.023659836500883102,-0.015693778172135353,-2.992607355117798,1017.31396,
2021.02.11 15:30:39,78.0,22.0,4.14,-32.76,-21.96,0.15083931,0.27055305,9.821315,-0.018308854,-0.019004017,0.006753115,-0.027537327259778976,-0.015357155352830887,-3.0032145977020264,1017.3115,
2021.02.11 15:30:39,78.0,22.0,4.14,-33.059998,-21.9,0.15802214,0.2561874,9.63935,-0.0073132785,-0.02144748,3.359759E-5,-0.026567427441477776,-0.016391975805163383,-3.0039219856262207,1017.3096,
2021.02.11 15:30:39,78.0,22.0,3.84,-32.82,-21.42,0.13168511,0.23224466,9.7135725,-0.0012046263,-0.0043432517,0.006753115,-0.023902541026473045,-0.013555984944105148,-3.014418601989746,1017.3096,
2021.02.11 15:30:39,78.0,22.0,3.72,-32.88,-21.42,0.18914771,0.30886146,9.634562,0.0030714304,0.008484919,0.012861768,-0.032040514051914215,-0.019629687070846558,-3.0136501789093018,1017.31226,
2021.02.11 15:30:39,78.0,22.0,3.72,-32.76,-21.42,0.22985038,0.21787901,9.763853,-0.0042589526,0.007874053,0.0043096542,-0.02230498008430004,-0.023536603897809982,-3.0114898681640625,1017.31226,
2021.02.11 15:30:39,78.0,22.0,3.54,-32.46,-21.6,0.21069619,0.32562137,9.601042,0.012234409,0.0023762658,0.009196576,-0.03389406204223633,-0.021941615268588066,-3.0157158374786377,1017.312,
2021.02.11 15:30:39,78.0,22.0,3.54,-32.64,-21.9,0.10774237,0.17478207,9.802161,6.2796945E-4,-0.0025106561,-0.0054641897,-0.01782800443470478,-0.010991252958774567,-3.024883270263672,1017.3147,
2021.02.11 15:30:39,78.0,22.0,3.84,-32.7,-21.66,0.15562786,0.25379312,9.627379,0.0067366217,0.008484919,-5.7726767E-4,-0.0263520535081625,-0.016163723543286324,-3.011888027191162,1017.3147,
2021.02.11 15:30:39,78.0,22.0,3.8999999,-32.579998,-21.539999,0.18914771,0.25379312,9.591465,0.009790948,-0.0043432517,0.0030879239,-0.026448996737599373,-0.019717862829566002,-3.0072877407073975,1017.3147,
2021.02.11 15:30:39,78.0,22.0,3.84,-32.579998,-21.42,0.13886794,0.24421602,9.727939,-0.0042589526,-0.0067867124,-0.006075055,-0.025096772238612175,-0.01427419763058424,-3.012901782989502,1017.3147,
2021.02.11 15:30:39,78.0,22.0,3.8999999,-32.82,-21.42,0.19154198,0.28731298,9.77343,1.7104227E-5,-0.011673635,-0.0030207285,-0.029383253306150436,-0.01959572732448578,-3.0081727504730225,1017.3186,
2021.02.11 15:30:39,78.0,22.0,3.48,-32.82,-21.779999,0.15802214,0.24421602,9.624985,0.010401813,-0.0061758477,-0.0017989981,-0.02536427415907383,-0.016416436061263084,-3.0232019424438477,1017.3164,
2021.02.11 15:30:39,78.0,22.0,3.6599998,-32.82,-21.66,0.15802214,0.27055305,9.569917,0.007958353,-0.009230174,0.003698789,-0.028259823098778725,-0.01651088334619999,-3.0174660682678223,1017.3164,
2021.02.11 15:30:39,78.0,22.0,3.84,-33.3,-22.02,0.1340794,0.26097596,9.761458,-0.0018154916,-0.009841039,3.359759E-5,-0.026726456359028816,-0.013734727166593075,-3.015599250793457,1017.3064,
2021.02.11 15:30:39,78.0,22.0,3.8999999,-33.18,-21.84,0.16041641,0.2370332,9.6896305,0.010401813,-0.009841039,0.009807441,-0.024454336613416672,-0.016553958877921104,-3.011772632598877,1017.3064,
2021.02.11 15:30:39,78.0,22.0,3.8999999,-33.239998,-21.539999,0.13886794,0.23942748,9.586677,0.018953927,-0.0067867124,0.019581286,-0.024967215955257416,-0.014484502375125885,-3.0134778022766113,1017.3137,
2021.02.11 15:30:40,78.0,22.0,4.2599998,-33.3,-22.02,0.18675344,0.25139886,9.627379,0.012234409,0.006041457,0.024468208,-0.026102066040039062,-0.019395725801587105,-2.9993205070495605,1017.3108,
2021.02.11 15:30:40,78.0,22.0,4.08,-33.059998,-21.779999,0.16520496,0.34956414,9.787795,-0.018308854,5.4367003E-4,3.359759E-5,-0.03569403663277626,-0.01687706634402275,-3.0046255588531494,1017.3108,
2021.02.11 15:30:40,78.0,22.0,4.14,-32.76,-21.66,0.18675344,0.28252444,9.60583,0.0012388347,-0.0037323865,0.0061422503,-0.029397739097476006,-0.019439226016402245,-3.000523805618286,1017.3086,
2021.02.11 15:30:40,78.0,22.0,4.2599998,-32.52,-21.539999,0.20590763,0.2466103,9.682447,1.7104227E-5,-0.0086193085,0.005531385,-0.025458572432398796,-0.021262865513563156,-2.9950757026672363,1017.3086,
2021.02.11 15:30:40,78.0,22.0,4.14,-32.52,-20.76,0.21787901,0.2849187,9.636956,-0.0018154916,0.0011545353,0.011640037,-0.02954905852675438,-0.022604843601584435,-2.998107671737671,1017.3113,
2021.02.11 15:30:40,78.0,22.0,4.3199997,-32.64,-20.88,0.16759923,0.2849187,9.833286,-0.0042589526,-0.019004017,-0.0072967852,-0.02896261215209961,-0.01704242080450058,-2.9966256618499756,1017.302,
2021.02.11 15:30:40,78.0,22.0,4.14,-32.82,-21.42,0.23463893,0.25858167,9.543579,0.014067005,0.018258762,0.0049205194,-0.027080025523900986,-0.024581098929047585,-2.997847318649292,1017.302,
2021.02.11 15:30:40,78.0,22.0,4.5,-32.82,-21.18,0.105348095,0.20590763,9.830893,-0.015254527,-0.0049541174,-0.017070629,-0.020940693095326424,-0.010715615004301071,-2.9965980052948,1017.3071,
2021.02.11 15:30:40,78.0,22.0,4.44,-33.0,-21.24,0.25139886,0.35914123,9.469357,-0.0036480871,-0.0031215216,-0.0011881329,-0.037895165383815765,-0.026542438194155693,-2.9873673915863037,1017.3071,
2021.02.11 15:30:40,78.0,22.0,4.38,-32.46,-20.939999,0.0670397,0.17478207,9.751882,-0.0042589526,-0.011673635,-0.017070629,-0.017920564860105515,-0.006874431390315294,-3.0014991760253906,1017.302,
2021.02.11 15:30:40,78.0,22.0,4.62,-32.579998,-20.76,0.17957062,0.30167863,9.581888,-0.0060915486,-0.0012889256,0.0030879239,-0.031468335539102554,-0.018738437443971634,-2.9859325885772705,1017.3098,
2021.02.11 15:30:40,78.0,22.0,4.56,-32.52,-21.359999,0.1987248,0.25858167,9.727939,6.2796945E-4,-0.0055649825,0.012861768,-0.02656954526901245,-0.02042541466653347,-2.9864704608917236,1017.3098,
2021.02.11 15:30:40,78.0,22.0,4.44,-32.52,-21.9,0.15083931,0.28013015,9.656111,-0.0018154916,-0.0012889256,0.0043096542,-0.02899898961186409,-0.015619855374097824,-2.992687225341797,1017.3179,
2021.02.11 15:30:40,78.0,22.0,4.2,-33.059998,-22.26,0.15562786,0.26337022,9.701602,-5.9376104E-4,0.0035979962,0.012861768,-0.02713693119585514,-0.016040083020925522,-3.002070665359497,1017.3179,
2021.02.11 15:30:40,78.0,22.0,4.08,-33.059998,-22.32,0.20590763,0.29928434,9.737515,0.0036822958,-0.007397578,0.011029172,-0.030718650668859482,-0.021142655983567238,-3.0018808841705322,1017.3142,
2021.02.11 15:30:40,78.0,22.0,4.02,-33.3,-22.08,0.18914771,0.2657645,9.663293,0.005514892,0.006652322,0.014694364,-0.02749028615653515,-0.01957133784890175,-3.0062272548675537,1017.31104,
2021.02.11 15:30:40,78.0,22.0,3.78,-33.36,-21.9,0.15323359,0.2849187,9.703996,-0.0036480871,-0.01350623,0.006753115,-0.02934887818992138,-0.01578945852816105,-3.016117811203003,1017.31104,
2021.02.11 15:30:41,78.0,22.0,3.78,-33.42,-21.9,0.21309046,0.32562137,9.557945,0.018343061,-0.0055649825,0.018359555,-0.034046512097120285,-0.022290896624326706,-3.0116665363311768,1017.30884,
2021.02.11 15:30:41,78.0,22.0,3.48,-33.36,-21.48,0.031125572,0.20590763,9.79019,0.004293161,-0.01106277,-0.008518515,-0.021028829738497734,-0.003179250517860055,-3.0341615676879883,1017.30884,
2021.02.11 15:30:41,78.0,22.0,3.54,-33.42,-21.72,0.19154198,0.3423813,9.452597,0.01712133,0.004819727,0.014694364,-0.03619762137532234,-0.020260652527213097,-3.020183563232422,1017.30005,
2021.02.11 15:30:41,78.0,22.0,3.6599998,-33.36,-21.539999,0.19393626,0.32083282,9.783007,0.0024605652,-0.0067867124,0.009807441,-0.03277672082185745,-0.01982119306921959,-3.017045736312866,1017.3069,
2021.02.11 15:30:41,78.0,22.0,3.6,-32.82,-21.48,0.2083019,0.36871833,9.581888,0.015288736,0.0035979962,0.008585712,-0.03845270723104477,-0.02173570543527603,-3.0151026248931885,1017.3069,
2021.02.11 15:30:41,78.0,22.0,3.72,-32.88,-21.779999,0.14605077,0.25858167,9.6585045,-0.0012046263,-0.009230174,0.0030879239,-0.026762979105114937,-0.015120315365493298,-3.016840934753418,1017.3096,
2021.02.11 15:30:41,78.0,22.0,3.54,-32.82,-21.72,0.18196489,0.32801566,9.60583,-0.0024263568,-0.0043432517,0.010418306,-0.03412817418575287,-0.01894090697169304,-3.0189895629882812,1017.3096,
2021.02.11 15:30:41,78.0,22.0,3.4199998,-32.64,-21.72,0.20111908,0.3328042,9.677659,-0.0018154916,-0.0067867124,0.0043096542,-0.03436795622110367,-0.020778799429535866,-3.0207629203796387,1017.3115,
2021.02.11 15:30:41,78.0,22.0,3.48,-32.94,-21.42,0.17957062,0.3304099,9.672871,-0.006702414,0.007263188,-0.0024098635,-0.03413926064968109,-0.01856222376227379,-3.0217368602752686,1017.32153,
2021.02.11 15:30:41,78.0,22.0,3.72,-32.94,-21.3,0.15323359,0.32083282,9.584282,-0.0060915486,0.011539245,-0.012794573,-0.033458128571510315,-0.015986647456884384,-3.016209602355957,1017.32153,
2021.02.11 15:30:41,78.0,22.0,3.84,-32.76,-21.18,0.22745611,0.37590113,9.838076,-0.00853501,-0.0055649825,-0.012183707,-0.03818003833293915,-0.023115860298275948,-3.0068564414978027,1017.31885,
2021.02.11 15:30:41,78.0,22.0,3.84,-33.12,-20.88,0.21069619,0.3615355,9.670476,0.0061257565,0.0145935705,-0.030509664,-0.03735923022031784,-0.02178412489593029,-3.0095114707946777,1017.31885,
2021.02.11 15:30:41,78.0,22.0,3.72,-33.239998,-21.0,0.13647367,0.27294734,9.629773,0.014067005,0.004819727,-0.03356399,-0.02833367884159088,-0.014171106740832329,-3.0191073417663574,1017.3247,
2021.02.11 15:30:41,78.0,22.0,3.54,-33.6,-21.0,0.08619389,0.2944958,9.727939,0.0067366217,0.005430592,-0.025011877,-0.030262766405940056,-0.008860215544700623,-3.0289933681488037,1017.3237,
2021.02.11 15:30:41,78.0,22.0,3.0,-34.02,-21.119999,0.18435916,0.3423813,9.77343,0.012845274,0.020702222,-0.009129381,-0.035011302679777145,-0.018861064687371254,-3.0397934913635254,1017.3237,
2021.02.11 15:30:41,78.0,22.0,3.0,-33.78,-21.539999,0.14126222,0.33759275,9.584282,0.011623544,0.008484919,-0.015238034,-0.035205207765102386,-0.014737878926098347,-3.0414180755615234,1017.3164,
2021.02.11 15:30:42,78.0,22.0,3.24,-33.54,-21.48,0.15083931,0.33759275,9.60583,0.009180083,0.011539245,-0.0042424593,-0.03512578457593918,-0.015701601281762123,-3.032862424850464,1017.3164,
2021.02.11 15:30:42,78.0,22.0,3.36,-32.94,-21.359999,0.045491222,0.28252444,9.759064,-0.007924144,-0.0018997908,-0.018903226,-0.028941554948687553,-0.004661399405449629,-3.034921169281006,1017.3203,
2021.02.11 15:30:42,78.0,22.0,4.08,-32.399998,-21.24,0.18675344,0.37590113,9.5483675,0.0061257565,-0.0018997908,0.0030879239,-0.039340272545814514,-0.019556183367967606,-3.0000545978546143,1017.3208,
2021.02.11 15:30:42,78.0,22.0,4.38,-32.28,-20.82,0.12929083,0.30646718,9.732727,-0.0018154916,-0.02389094,-0.0048533245,-0.031475137919187546,-0.013283351436257362,-2.995347261428833,1017.3208,
2021.02.11 15:30:42,78.0,22.0,4.5,-32.04,-20.58,0.11253092,0.3423813,9.680053,-0.012811066,0.0011545353,-0.0024098635,-0.03535265102982521,-0.01162450760602951,-2.991304397583008,1017.3157,
2021.02.11 15:30:42,78.0,22.0,4.74,-32.46,-20.699999,0.15323359,0.34956414,9.608225,-0.003037222,0.007874053,-0.0011881329,-0.036361102014780045,-0.01594681479036808,-2.9829599857330322,1017.3157,
2021.02.11 15:30:42,78.0,22.0,4.74,-32.579998,-20.88,0.11492519,0.3232271,9.814133,-0.003037222,-0.015338826,-0.00668592,-0.032920707017183304,-0.011709637939929962,-2.986492156982422,1017.3218,
2021.02.11 15:30:42,78.0,22.0,4.7999997,-32.88,-21.119999,0.18914771,0.34956414,9.608225,0.009790948,-0.0043432517,0.006753115,-0.036358680576086044,-0.0196834784001112,-2.9805171489715576,1017.3159,
2021.02.11 15:30:42,78.0,22.0,4.92,-33.059998,-21.3,0.11253092,0.29689008,9.644139,6.2796945E-4,-0.0061758477,-0.006075055,-0.03077269345521927,-0.01166779175400734,-2.9833693504333496,1017.3159,
2021.02.11 15:30:42,78.0,22.0,4.56,-32.82,-21.18,0.15562786,0.3519584,9.641745,-0.0048698178,0.0035979962,0.0024770587,-0.03648264706134796,-0.016139645129442215,-2.989743232727051,1017.32007,
2021.02.11 15:30:42,78.0,22.0,4.2599998,-33.059998,-20.939999,0.17238778,0.3304099,9.715967,0.0061257565,0.01703703,0.011640037,-0.033988457173109055,-0.017740868031978607,-2.999333620071411,1017.32007,
2021.02.11 15:30:42,78.0,22.0,4.02,-32.64,-20.76,0.15323359,0.30886146,9.656111,-0.0024263568,0.007874053,-0.0030207285,-0.03197119012475014,-0.015867745503783226,-3.0063579082489014,1017.3115,
2021.02.11 15:30:42,78.0,22.0,3.78,-32.64,-20.64,0.17957062,0.32083282,9.593859,0.0024605652,0.0042088614,0.0018661933,-0.03342317044734955,-0.018715061247348785,-3.01188325881958,1017.3164,
2021.02.11 15:30:42,78.0,22.0,4.14,-32.64,-21.0,0.12689656,0.3304099,9.72315,-0.010367605,-0.009230174,-0.011572842,-0.033965811133384705,-0.013050231151282787,-3.004147529602051,1017.3164,
2021.02.11 15:30:42,78.0,22.0,4.38,-32.52,-21.42,0.15562786,0.3615355,9.586677,0.0012388347,0.002987131,-0.012794573,-0.037689462304115295,-0.016232339665293694,-2.9935293197631836,1017.31494,
2021.02.11 15:30:42,78.0,22.0,4.3199997,-32.82,-21.6,0.13886794,0.29928434,9.75667,-0.007924144,-0.0037323865,-0.025011877,-0.03066212497651577,-0.014232167974114418,-2.998631238937378,1017.31494,
2021.02.11 15:30:42,78.0,22.0,4.38,-32.7,-21.6,0.09337672,0.31843856,9.560339,-0.005480683,0.006652322,-0.021957552,-0.03329439461231232,-0.009766782633960247,-2.9989469051361084,1017.3096,
2021.02.11 15:30:43,78.0,22.0,4.2,-33.0,-21.3,0.14844504,0.35914123,9.60583,-0.0060915486,-0.009841039,-0.014016303,-0.037365976721048355,-0.015452410094439983,-3.0017991065979004,1017.3098,
2021.02.11 15:30:43,78.0,22.0,4.3199997,-32.88,-20.939999,0.12689656,0.31125572,9.744699,-0.013421931,-0.012895366,-0.017070629,-0.03192747011780739,-0.01302137691527605,-2.999915599822998,1017.3098,
2021.02.11 15:30:43,78.0,22.0,4.5,-32.46,-21.06,0.105348095,0.35674694,9.727939,-0.011589335,-6.780604E-4,-0.012794573,-0.03665383160114288,-0.010829013772308826,-2.993396043777466,1017.31177,
2021.02.11 15:30:43,78.0,22.0,4.38,-32.88,-21.24,0.15562786,0.30646718,9.620196,0.0036822958,0.007263188,-0.0072967852,-0.0318417102098465,-0.01617579162120819,-2.9959075450897217,1017.31177,
2021.02.11 15:30:43,78.0,22.0,4.2,-32.76,-21.359999,0.071828246,0.3040729,9.804555,-0.0036480871,0.0017654005,-0.012794573,-0.03100266121327877,-0.0073258765041828156,-3.00663423538208,1017.31226,
2021.02.11 15:30:43,78.0,22.0,3.6599998,-33.0,-21.3,0.11971374,0.37590113,9.5483675,0.009790948,0.002987131,0.003698789,-0.03934469819068909,-0.012536955997347832,-3.0200133323669434,1017.32056,
2021.02.11 15:30:43,78.0,22.0,3.72,-33.48,-21.119999,0.028731298,0.23942748,9.720756,-0.0042589526,-0.0012889256,-0.008518515,-0.02462545409798622,-0.0029556562658399343,-3.0273008346557617,1017.32056,
2021.02.11 15:30:43,78.0,22.0,4.08,-33.12,-21.3,0.16041641,0.34716985,9.510059,0.007958353,0.01337184,0.012861768,-0.03648415207862854,-0.016866477206349373,-3.005126953125,1017.3169,
2021.02.11 15:30:43,78.0,22.0,4.02,-33.0,-21.06,-0.014365649,0.23942748,9.759064,-0.0048698178,0.0035979962,-5.7726767E-4,-0.02452891133725643,0.0014720304170623422,-3.0193660259246826,1017.3169,
2021.02.11 15:30:43,78.0,22.0,4.62,-32.82,-21.0,0.17478207,0.35674694,9.668081,0.0018497,0.004819727,0.02019215,-0.036876704543828964,-0.01807628758251667,-2.9867587089538574,1017.3196,
2021.02.11 15:30:43,78.0,22.0,4.74,-32.82,-21.0,0.105348095,0.28013015,9.536397,0.004293161,0.0017654005,0.009807441,-0.029364606365561485,-0.011046500876545906,-2.9883594512939453,1017.31885,
2021.02.11 15:30:43,78.0,22.0,4.62,-32.82,-21.0,0.15083931,0.33519846,9.735122,-0.012200201,-0.0049541174,0.011640037,-0.0344141460955143,-0.015493103303015232,-2.988659620285034,1017.31885,
2021.02.11 15:30:43,78.0,22.0,4.68,-32.88,-21.06,0.15323359,0.34956414,9.617802,-0.0073132785,-6.719518E-5,0.009807441,-0.03632493317127228,-0.015930941328406334,-2.986600399017334,1017.3225,
2021.02.11 15:30:43,78.0,22.0,4.5,-32.7,-21.359999,0.1340794,0.31365,9.651321,-0.01097847,0.002987131,3.359759E-5,-0.032483574002981186,-0.01389144267886877,-2.9927756786346436,1017.3225,
2021.02.11 15:30:43,78.0,22.0,4.56,-32.52,-21.359999,0.11013664,0.32083282,9.692024,-0.009145874,-0.0037323865,-0.0048533245,-0.03308854624629021,-0.011363147757947445,-2.9916934967041016,1017.3196,
2021.02.11 15:30:43,78.0,22.0,4.5,-32.64,-21.359999,0.07422252,0.24421602,9.675264,-0.0073132785,-0.0043432517,-0.0017989981,-0.02523517608642578,-0.007671217899769545,-2.99727725982666,1017.31226,
2021.02.11 15:30:43,78.0,22.0,4.56,-32.399998,-21.24,0.16281068,0.32083282,9.670476,6.2796945E-4,-0.0031215216,0.011640037,-0.03315966948866844,-0.016834259033203125,-2.987619161605835,1017.31226,
2021.02.11 15:30:44,78.0,22.0,4.68,-32.94,-21.24,0.057462595,0.25858167,9.641745,1.7104227E-5,0.006041457,-0.008518515,-0.02681206911802292,-0.005959701258689165,-2.994136333465576,1017.3137,
2021.02.11 15:30:44,78.0,22.0,4.62,-32.94,-21.3,0.07901107,0.31604427,9.490906,-0.0060915486,0.0158153,-0.008518515,-0.03328624367713928,-0.008324732072651386,-2.993764638900757,1017.3137,
2021.02.11 15:30:44,78.0,22.0,4.7999997,-32.64,-21.48,0.062251143,0.23942748,9.976943,0.016510466,-0.016560556,0.010418306,-0.023993007838726044,-0.006239419337362051,-2.9891562461853027,1017.31274,
2021.02.11 15:30:44,78.0,22.0,5.1,-32.82,-21.48,-0.021548472,0.33519846,9.663293,0.023229985,0.05613241,0.01897042,-0.03467382490634918,0.002229926874861121,-2.9852728843688965,1017.3181,
2021.02.11 15:30:44,78.0,22.0,5.04,-32.579998,-21.84,0.15083931,0.61293435,9.1940155,0.106307656,0.052467216,0.053178877,-0.06655924022197723,-0.016404777765274048,-2.9695370197296143,1017.3181,
2021.02.11 15:30:44,78.0,22.0,4.8599997,-32.82,-21.66,0.2681588,0.50998056,9.58907,0.011012679,0.019480493,0.040350705,-0.05311274155974388,-0.02795775979757309,-2.9705541133880615,1017.31274,
2021.02.11 15:30:44,78.0,22.0,4.68,-33.42,-21.18,-0.2753416,0.43815228,8.114198,0.0018497,0.0145935705,-0.009129381,-0.0539148673415184,0.033920299261808395,-3.0193393230438232,1017.31274,
2021.02.11 15:30:44,78.0,22.0,4.38,-33.66,-21.48,0.2466103,0.3902668,9.814133,-0.053739037,-0.09719477,0.01774869,-0.03973232954740524,-0.025122791528701782,-2.9926886558532715,1017.30835,
