Time,X-cord,Y-cord,Mag_x,Mag_y,Mag_z,Acc_x,Acc_y,Acc_z,Gyro_x,Gyro_y,Gyro_z,Orn_x,Orn_y,Orn_z,Pressure,
2021.02.11 15:32:04,78.0,14.0,4.38,-29.279999,-30.48,0.038308397,0.40223816,9.63935,-0.045186926,-0.033053916,0.050735414,-0.041704241186380386,-0.003974147140979767,-2.9821159839630127,1017.2842,
2021.02.11 15:32:04,78.0,14.0,4.3199997,-29.519999,-30.48,-0.0670397,0.19393626,9.991309,-0.09344528,-0.09536217,0.06906137,-0.019407622516155243,0.00670970045030117,-3.0002505779266357,1017.2842,
2021.02.11 15:32:04,78.0,14.0,4.38,-29.16,-30.42,0.06943397,0.34716985,9.648928,-0.046408653,0.010317515,0.11487626,-0.03596370294690132,-0.0071959057822823524,-2.9790804386138916,1017.2905,
2021.02.11 15:32:04,78.0,14.0,4.02,-29.039999,-30.539999,-0.11492519,0.24421602,9.998491,-0.053128175,-0.009841039,0.08127868,-0.024418819695711136,0.011493746191263199,-3.0126051902770996,1017.2886,
2021.02.11 15:32:04,78.0,14.0,3.72,-28.859999,-30.599998,0.22985038,0.35435268,9.60583,0.033003826,0.0023762658,0.12770444,-0.036862075328826904,-0.02392365224659443,-2.982362985610962,1017.2886,
2021.02.11 15:32:05,78.0,14.0,3.6599998,-28.5,-30.779999,0.014365649,0.20111908,9.804555,0.045221135,-0.0031215216,0.09532858,-0.02050992287695408,-0.0014652005629613996,-3.009392261505127,1017.29517,
2021.02.11 15:32:05,78.0,14.0,3.6599998,-28.859999,-31.38,-0.15323359,0.22985038,10.0368,0.02628431,-0.04466036,0.06295272,-0.02289409190416336,0.015265988186001778,-3.0290162563323975,1017.29517,
2021.02.11 15:32:05,78.0,14.0,3.48,-28.56,-31.14,0.11253092,0.3998439,9.457385,0.06415795,-0.03549738,0.101437226,-0.04225033521652222,-0.01189817301928997,-3.0010807514190674,1017.29663,
2021.02.11 15:32:05,78.0,14.0,2.76,-29.34,-30.72,0.13168511,0.14844504,9.574705,0.10691853,0.01703703,0.061120123,-0.015501167625188828,-0.013752570375800133,-3.031776189804077,1017.28906,
2021.02.11 15:32:05,78.0,14.0,2.46,-29.64,-30.66,0.14365649,0.17478207,9.342461,0.09836641,0.0145935705,0.04707022,-0.018703961744904518,-0.01537551824003458,-3.041076183319092,1017.28906,
2021.02.11 15:32:05,78.0,14.0,1.9799999,-29.939999,-30.24,0.28731298,0.5027977,9.481328,0.04888632,-0.012895366,0.0421833,-0.052956413477659225,-0.03029376082122326,-3.039653778076172,1017.2876,
2021.02.11 15:32:05,78.0,14.0,1.62,-30.359999,-30.0,-0.009577099,0.45970076,9.794978,0.031782098,0.0017654005,-0.029287932,-0.046897854655981064,9.77755757048726E-4,-3.0866458415985107,1017.2876,
2021.02.11 15:32:05,78.0,14.0,1.86,-30.48,-30.359999,-0.04070267,0.5889916,9.462174,0.04888632,0.029254338,-0.01951409,-0.062166180461645126,0.004301592241972685,-3.081059694290161,1017.2886,
2021.02.11 15:32:05,78.0,14.0,2.04,-30.66,-30.539999,-0.11492519,0.3232271,9.584282,0.031171232,-6.780604E-4,-0.015238034,-0.033709507435560226,0.011990432627499104,-3.0851335525512695,1017.282,
2021.02.11 15:32:05,78.0,14.0,2.58,-30.96,-30.539999,-0.083799616,0.1987248,9.268238,0.017732197,-6.780604E-4,0.005531385,-0.021437324583530426,0.009041343815624714,-3.0657007694244385,1017.282,
2021.02.11 15:32:05,78.0,14.0,2.3999999,-30.96,-30.84,-0.031125572,0.6081458,9.364009,-0.06595635,-0.0037323865,0.040350705,-0.06485358625650406,0.0033239456824958324,-3.0622503757476807,1017.2822,
2021.02.11 15:32:05,78.0,14.0,2.58,-30.48,-30.48,-0.07422252,0.81165916,9.696813,-0.095277876,-0.0025106561,0.032409456,-0.08350660651922226,0.00765417143702507,-3.05747127532959,1017.2822,
2021.02.11 15:32:05,78.0,14.0,2.34,-30.539999,-30.359999,-0.08140534,0.56744313,10.391152,-0.06534547,-0.038551703,0.016526958,-0.05455244332551956,0.007833940908312798,-3.068828821182251,1017.2805,
2021.02.11 15:32:05,78.0,14.0,2.04,-30.3,-30.42,0.13886794,0.54350036,9.4142885,0.011623544,-0.017171424,0.03729638,-0.05766116455197334,-0.014749693684279919,-3.054494857788086,1017.2805,
2021.02.11 15:32:05,78.0,14.0,2.28,-30.179998,-30.119999,0.0670397,0.43815228,9.481328,-0.021974044,-0.0086193085,-0.006075055,-0.04617810994386673,-0.0070705898106098175,-3.055123805999756,1017.2805,
2021.02.11 15:32:05,78.0,14.0,2.1599998,-30.359999,-30.179998,0.08858817,0.69912827,9.466963,-0.037245676,-0.009841039,-0.01951409,-0.07371223717927933,-0.009357339702546597,-3.054762125015259,1017.27783,
2021.02.11 15:32:06,78.0,14.0,2.46,-29.82,-30.119999,-0.11013664,0.41181526,10.032011,-0.03541308,-0.019614883,-0.07510283,-0.04102461785078049,0.01097807940095663,-3.0671749114990234,1017.27783,
2021.02.11 15:32:06,78.0,14.0,2.34,-29.82,-30.179998,-0.11492519,0.43336374,9.44302,-0.014643662,0.03902818,-0.055555142,-0.04585692659020424,0.012169784866273403,-3.0722577571868896,1017.2749,
2021.02.11 15:32:06,78.0,14.0,2.58,-30.06,-30.599998,-0.071828246,0.4764607,9.684841,-0.03296962,-0.03671911,-0.0054641897,-0.04915555939078331,0.007416428066790104,-3.0592737197875977,1017.28345,
2021.02.11 15:32:06,78.0,14.0,3.06,-30.179998,-30.9,-0.038308397,0.52674043,9.79019,-0.050073843,-0.036108244,-0.0042424593,-0.053750649094581604,0.003912916872650385,-3.038743495941162,1017.28345,
2021.02.11 15:32:06,78.0,14.0,2.9399998,-30.24,-30.3,0.019154198,0.45251793,9.512454,-0.0042589526,0.007263188,-0.0042424593,-0.04753516986966133,-0.002013589022681117,-3.037645101547241,1017.282,
2021.02.11 15:32:06,78.0,14.0,3.6599998,-30.06,-30.539999,-0.071828246,0.38308397,9.620196,-0.015865391,-0.009841039,-0.017070629,-0.039798665791749954,0.007466262672096491,-3.023071050643921,1017.282,
2021.02.11 15:32:06,78.0,14.0,3.36,-30.0,-30.539999,0.0,0.4740664,9.869201,-0.0073132785,-0.034886513,0.02019215,-0.04799804091453552,1.0E-6,-3.024240255355835,1017.28076,
2021.02.11 15:32:06,78.0,14.0,3.06,-29.58,-30.42,0.102953814,0.41420954,9.61062,0.012845274,-0.029999591,0.023246476,-0.043070025742053986,-0.0107120955362916,-3.0222904682159424,1017.2776,
2021.02.11 15:32:06,78.0,14.0,2.8799999,-30.0,-30.72,-0.031125572,0.34477556,9.435837,0.004904026,-0.02144748,0.017137825,-0.03652250021696091,0.003298643045127392,-3.0456013679504395,1017.2776,
2021.02.11 15:32:06,78.0,14.0,2.76,-30.179998,-30.06,0.04070267,0.43096948,9.842864,-0.017087122,-0.045271225,0.03668551,-0.043756645172834396,-0.004135223105549812,-3.041903018951416,1017.27344,
2021.02.11 15:32:06,78.0,14.0,3.06,-29.699999,-29.88,0.16520496,0.4644893,9.727939,0.004904026,-0.028777862,0.060509257,-0.04770486801862717,-0.016980892047286034,-3.015968084335327,1017.27344,
2021.02.11 15:32:06,78.0,14.0,2.8799999,-29.82,-30.06,0.12689656,0.31604427,9.699207,0.016510466,-6.780604E-4,0.046459354,-0.032570235431194305,-0.013082442805171013,-3.028535842895508,1017.26416,
2021.02.11 15:32:06,78.0,14.0,2.8799999,-29.82,-30.3,0.34716985,0.50040346,9.670476,0.01467787,-0.0049541174,0.03729638,-0.051666148006916046,-0.035884562879800797,-3.002004384994507,1017.27026,
2021.02.11 15:32:06,78.0,14.0,2.3999999,-29.64,-31.019999,0.33759275,0.53871185,9.601042,0.029338636,-0.014117096,0.011029172,-0.05601641163229942,-0.035147614777088165,-3.0170345306396484,1017.27026,
2021.02.11 15:32:06,78.0,14.0,2.1,-30.24,-31.14,0.04070267,0.3423813,9.785401,0.029338636,-6.780604E-4,-0.06716158,-0.034974418580532074,-0.004159505944699049,-3.0652127265930176,1017.27,
2021.02.11 15:32:06,78.0,14.0,2.46,-30.359999,-31.199999,0.17238778,0.54828894,9.536397,0.0439994,-6.780604E-4,-0.03600745,-0.05742175877094269,-0.01807485707104206,-3.0359818935394287,1017.27,
2021.02.11 15:32:06,78.0,14.0,2.6399999,-30.3,-30.96,-0.16759923,0.29928434,9.955395,0.019564793,-0.01106277,-0.052500814,-0.030049221590161324,0.01683342643082142,-3.069549560546875,1017.26904,
2021.02.11 15:32:07,78.0,14.0,2.9399998,-30.66,-30.84,0.13886794,0.4668836,9.481328,0.022008253,-0.0037323865,-0.01829236,-0.04919741302728653,-0.014645419083535671,-3.025609016418457,1017.2749,
2021.02.11 15:32:07,78.0,14.0,3.3,-30.42,-30.599998,0.30167863,0.5219519,9.646533,0.022008253,0.006652322,0.0061422503,-0.054028648883104324,-0.0312630794942379,-2.9945600032806396,1017.2749,
2021.02.11 15:32:07,78.0,14.0,3.0,-30.06,-30.179998,0.27055305,0.5818088,9.668081,0.0012388347,-0.0049541174,-0.0158489,-0.060082364827394485,-0.027976850047707558,-3.0061452388763428,1017.272,
2021.02.11 15:32:07,78.0,14.0,2.8799999,-29.939999,-30.3,0.22745611,0.5770202,9.7135725,0.025673445,-0.037329976,-0.032342263,-0.05931755155324936,-0.023412039503455162,-3.014554500579834,1017.272,
2021.02.11 15:32:07,78.0,14.0,2.76,-29.939999,-30.24,-0.045491222,0.46927786,9.730332,0.02750604,-6.719518E-5,-0.06166379,-0.04819048196077347,0.004675162956118584,-3.049802541732788,1017.27,
2021.02.11 15:32:07,78.0,14.0,2.7,-30.0,-30.179998,0.05985687,0.5411061,9.356826,0.008569217,-0.0031215216,-0.040894374,-0.05776457488536835,-0.006397047080099583,-3.0393924713134766,1017.2632,
2021.02.11 15:32:07,78.0,14.0,2.82,-30.179998,-30.359999,-0.014365649,0.5243462,9.926663,-0.03785654,-0.025112672,-0.014016303,-0.052772894501686096,0.0014471769100055099,-3.044616222381592,1017.2632,
2021.02.11 15:32:07,78.0,14.0,2.58,-30.539999,-30.539999,0.090982445,0.6488485,9.445415,-0.0073132785,0.0035979962,0.012250902,-0.06858362257480621,-0.00963214784860611,-3.040656566619873,1017.2656,
2021.02.11 15:32:07,78.0,14.0,2.7,-30.179998,-30.48,0.023942748,0.5770202,9.826104,-0.03296962,0.002987131,0.0049205194,-0.05865566432476044,-0.0024366420693695545,-3.0440173149108887,1017.2656,
2021.02.11 15:32:07,78.0,14.0,2.46,-30.359999,-30.72,0.11253092,0.59378016,9.775824,-0.020141449,0.007263188,0.029965993,-0.06066112220287323,-0.011510636657476425,-3.0430006980895996,1017.2656,
2021.02.11 15:32:07,78.0,14.0,2.58,-30.599998,-30.66,0.19154198,0.48124924,9.522031,-0.0024263568,0.013982705,0.026300803,-0.050487447530031204,-0.02011295221745968,-3.0318877696990967,1017.25806,
2021.02.11 15:32:07,78.0,14.0,2.52,-30.179998,-30.66,0.117319465,0.505192,9.634562,-0.025639236,0.01703703,0.012861768,-0.052383530884981155,-0.012176336720585823,-3.0405490398406982,1017.25806,
2021.02.11 15:32:07,78.0,14.0,2.52,-30.359999,-30.539999,0.090982445,0.5458947,9.72315,-0.037245676,0.002987131,0.025079073,-0.05608247593045235,-0.009357028640806675,-3.0438120365142822,1017.26904,
2021.02.11 15:32:07,78.0,14.0,2.7,-30.06,-30.599998,0.12689656,0.50998056,9.835681,-0.02258491,-0.014117096,0.023857342,-0.05179935321211815,-0.012900939211249352,-3.0331995487213135,1017.26904,
2021.02.11 15:32:07,78.0,14.0,2.7,-30.06,-30.599998,0.21548474,0.53392327,9.668081,0.020786522,-0.0049541174,0.0061422503,-0.05515565350651741,-0.022284572944045067,-3.0228092670440674,1017.2732,
2021.02.11 15:32:07,78.0,14.0,3.0,-30.179998,-30.119999,0.15083931,0.4836435,9.6896305,0.01712133,-0.0086193085,-0.0158489,-0.049866095185279846,-0.015565828420221806,-3.0210893154144287,1017.27026,
2021.02.11 15:32:07,78.0,14.0,2.9399998,-29.939999,-29.939999,0.22266756,0.52913475,9.665688,0.009180083,-0.0086193085,-0.014627169,-0.054674554616212845,-0.023032834753394127,-3.013899803161621,1017.27026,
2021.02.11 15:32:08,78.0,14.0,2.8799999,-30.24,-29.82,0.07422252,0.46927786,9.692024,0.005514892,-0.022058344,-0.028677069,-0.048379771411418915,-0.007657953538000584,-3.033947706222534,1017.2727,
2021.02.11 15:32:08,78.0,14.0,2.9399998,-30.359999,-30.06,0.062251143,0.5123748,9.615408,0.007958353,-0.008008444,-0.028066205,-0.05323539301753044,-0.006474012974649668,-3.0328757762908936,1017.2727,
2021.02.11 15:32:08,78.0,14.0,2.9399998,-30.42,-30.179998,-0.016759925,0.45730647,9.711179,0.0012388347,-0.0086193085,-0.028677069,-0.04705589637160301,0.0017258365405723453,-3.042222738265991,1017.2827,
2021.02.11 15:32:08,78.0,14.0,3.24,-30.66,-30.42,0.18196489,0.6392714,9.469357,0.014067005,0.005430592,0.008585712,-0.06739480048418045,-0.01921381801366806,-3.0084331035614014,1017.2859,
2021.02.11 15:32:08,78.0,14.0,3.3,-30.119999,-30.48,0.16041641,0.5219519,9.6896305,0.009790948,0.006041457,-5.7726767E-4,-0.05380769446492195,-0.016553958877921104,-3.008624792098999,1017.2859,
2021.02.11 15:32:08,78.0,14.0,3.12,-29.88,-30.66,0.019154198,0.52674043,9.866806,-0.011589335,-0.0049541174,-0.025622744,-0.053334373980760574,-0.0019412740366533399,-3.0293314456939697,1017.2859,
2021.02.11 15:32:08,78.0,14.0,3.12,-30.179998,-30.539999,0.06943397,0.52913475,9.663293,0.009180083,0.005430592,-0.00668592,-0.05470115318894386,-0.007185208611190319,-3.024817705154419,1017.2859,
2021.02.11 15:32:08,78.0,14.0,3.24,-29.939999,-30.359999,0.08619389,0.4956149,9.634562,0.0018497,-0.009841039,0.009807441,-0.05139399692416191,-0.008946082554757595,-3.0183260440826416,1017.2771,
2021.02.11 15:32:08,78.0,14.0,3.06,-29.82,-30.24,0.2083019,0.5794145,9.629773,0.0024605652,0.0023762658,0.022024745,-0.06008259579539299,-0.021627657115459442,-3.009535074234009,1017.2783,
2021.02.11 15:32:08,78.0,14.0,3.0,-29.939999,-30.42,0.11492519,0.52913475,9.830893,-0.020752314,-0.01106277,0.009807441,-0.05376812070608139,-0.011689676903188229,-3.0234293937683105,1017.2783,
2021.02.11 15:32:08,78.0,14.0,3.1799998,-29.519999,-30.599998,0.17717634,0.53871185,9.634562,0.0061257565,-0.008008444,0.014694364,-0.0558469258248806,-0.01838758960366249,-3.0076441764831543,1017.2815,
2021.02.11 15:32:08,78.0,14.0,2.7,-29.76,-30.599998,0.1699935,0.5506832,9.708784,-0.006702414,0.0042088614,0.0043096542,-0.05665072426199913,-0.017507458105683327,-3.0264859199523926,1017.2815,
2021.02.11 15:32:08,78.0,14.0,2.52,-30.539999,-30.9,0.1340794,0.5219519,9.783007,-0.014643662,-0.009230174,-0.0042424593,-0.05329737812280655,-0.013704477809369564,-3.0399351119995117,1017.281,
2021.02.11 15:32:08,78.0,14.0,2.7,-30.24,-30.539999,0.1699935,0.4668836,9.596253,0.012234409,0.0035979962,-0.0024098635,-0.0486067458987236,-0.01771271787583828,-3.0292487144470215,1017.2732,
2021.02.11 15:32:08,78.0,14.0,2.58,-30.119999,-30.599998,0.10774237,0.45970076,9.735122,-0.007924144,0.010317515,-0.010961977,-0.047182921320199966,-0.011066935956478119,-3.0400571823120117,1017.2732,
2021.02.11 15:32:08,78.0,14.0,2.52,-30.119999,-30.72,0.1987248,0.5794145,9.522031,1.7104227E-5,0.0158153,-0.00668592,-0.06076175346970558,-0.02086697518825531,-3.029996156692505,1017.27295,
2021.02.11 15:32:09,78.0,14.0,3.12,-29.88,-30.42,0.12210801,0.4070267,9.737515,0.0030714304,0.011539245,-0.015238034,-0.041772253811359406,-0.01253929827362299,-3.0197176933288574,1017.27295,
2021.02.11 15:32:09,78.0,14.0,3.12,-30.179998,-30.3,0.17717634,0.53392327,9.488511,0.0018497,0.004819727,-0.021957552,-0.056201446801424026,-0.01867055334150791,-3.012707233428955,1017.2798,
2021.02.11 15:32:09,78.0,14.0,3.06,-30.48,-30.359999,0.05027977,0.42378664,9.763853,-0.013421931,-0.0055649825,-0.024401013,-0.04337582737207413,-0.005149537231773138,-3.031646966934204,1017.2898,
2021.02.11 15:32:09,78.0,14.0,3.12,-30.24,-30.42,0.15802214,0.51955765,9.553157,-0.0060915486,-0.0031215216,-0.025622744,-0.05432502180337906,-0.016539843752980232,-3.0153632164001465,1017.2898,
2021.02.11 15:32:09,78.0,14.0,2.7,-30.24,-30.3,0.08619389,0.42618093,9.6896305,-0.018308854,-0.0086193085,-0.03356399,-0.04395313560962677,-0.00889524258673191,-3.039135456085205,1017.2947,
2021.02.11 15:32:09,78.0,14.0,2.58,-30.24,-30.119999,0.09337672,0.48124924,9.718362,-0.017697988,-0.007397578,-0.029287932,-0.04947688803076744,-0.009607981890439987,-3.0419998168945312,1017.2947,
2021.02.11 15:32:09,78.0,14.0,2.82,-30.119999,-29.82,0.031125572,0.44294083,9.754275,-0.012811066,-0.0043432517,-0.023179282,-0.045378509908914566,-0.003190956311300397,-3.0404953956604004,1017.2949,
2021.02.11 15:32:09,78.0,14.0,2.7,-30.24,-30.0,0.05985687,0.48124924,9.620196,0.0018497,-0.007397578,-0.010351111,-0.049982257187366486,-0.0062219202518463135,-3.0413661003112793,1017.2888,
2021.02.11 15:32:09,78.0,14.0,2.8799999,-30.3,-30.179998,0.052674048,0.45251793,9.785401,-0.0036480871,-0.01472796,-0.003631594,-0.04621059447526932,-0.005382869392633438,-3.0366122722625732,1017.2888,
2021.02.11 15:32:09,78.0,14.0,3.06,-30.179998,-30.48,0.076616794,0.4764607,9.672871,0.004904026,-0.0043432517,0.0024770587,-0.04921610280871391,-0.007920626550912857,-3.0268502235412598,1017.2844,
2021.02.11 15:32:09,78.0,14.0,2.8799999,-30.06,-30.84,0.105348095,0.4668836,9.596253,0.0061257565,0.002987131,0.00736398,-0.048611439764499664,-0.010977602563798428,-3.0292513370513916,1017.2844,
2021.02.11 15:32:09,78.0,14.0,3.12,-29.88,-30.84,0.035914123,0.49082634,9.718362,0.007347487,-0.014117096,0.005531385,-0.05046182498335838,-0.003695474471896887,-3.0277605056762695,1017.2822,
2021.02.11 15:32:09,78.0,14.0,3.06,-29.64,-31.019999,0.11253092,0.4668836,9.574705,0.011012679,-0.008008444,0.026911668,-0.048720236867666245,-0.011752397753298283,-3.020310878753662,1017.28613,
2021.02.11 15:32:09,78.0,14.0,3.1799998,-29.46,-31.08,0.1340794,0.46927786,9.6585045,-0.009145874,-0.01106277,0.021413881,-0.048544157296419144,-0.013881112448871136,-3.0129663944244385,1017.28613,
2021.02.11 15:32:09,78.0,14.0,3.24,-29.4,-31.019999,0.13886794,0.4668836,9.500483,-5.9376104E-4,-0.0018997908,0.023246476,-0.04909840598702431,-0.014615895226597786,-3.009732723236084,1017.2805,
2021.02.11 15:32:09,78.0,14.0,3.24,-29.64,-30.359999,0.10774237,0.44054657,9.730332,-0.016476257,-0.01350623,0.015305229,-0.04524192586541176,-0.01107238233089447,-3.0156283378601074,1017.2805,
2021.02.11 15:32:09,78.0,14.0,3.48,-29.64,-30.119999,0.2466103,0.5363176,9.636956,-0.0018154916,-0.0037323865,0.026300803,-0.05557667464017868,-0.025584477931261063,-2.990588665008545,1017.28,
2021.02.11 15:32:10,78.0,14.0,3.3,-29.699999,-30.0,0.1699935,0.4956149,9.792584,-0.011589335,0.002987131,0.010418306,-0.050560496747493744,-0.01735766790807247,-3.0067031383514404,1017.2844,
2021.02.11 15:32:10,78.0,14.0,3.6,-30.0,-29.64,0.12689656,0.4764607,9.581888,0.005514892,0.0042088614,-0.00790765,-0.04967986419796944,-0.013242603279650211,-3.0023906230926514,1017.2844,
2021.02.11 15:32:10,78.0,14.0,3.6,-29.939999,-30.06,0.13647367,0.42618093,9.63935,1.7104227E-5,-0.007397578,-0.012183707,-0.04417942836880684,-0.014157028868794441,-3.0017006397247314,1017.2881,
2021.02.11 15:32:10,78.0,14.0,3.24,-29.82,-29.699999,0.10055954,0.5147691,9.651321,-0.009145874,0.004819727,-0.010961977,-0.053283266723155975,-0.010418874211609364,-3.016381025314331,1017.2881,
2021.02.11 15:32:10,78.0,14.0,2.9399998,-29.939999,-29.88,0.08140534,0.41181526,9.737515,-0.007924144,0.0042088614,-0.015238034,-0.04226495325565338,-0.008359775878489017,-3.0307235717773438,1017.2842,
2021.02.11 15:32:10,78.0,14.0,2.76,-30.06,-30.06,0.09337672,0.5411061,9.557945,0.0030714304,-6.719518E-5,-0.011572842,-0.05655016750097275,-0.009769228287041187,-3.0341649055480957,1017.2859,
2021.02.11 15:32:10,78.0,14.0,2.82,-30.06,-30.24,0.11253092,0.45970076,9.5483675,0.004293161,-0.0012889256,-0.012794573,-0.048103947192430496,-0.0117848115041852,-3.030886650085449,1017.2859,
2021.02.11 15:32:10,78.0,14.0,3.24,-30.179998,-30.72,0.011971374,0.43815228,9.766247,-0.0073132785,-0.0043432517,-0.014016303,-0.04483383521437645,-0.0012257900089025497,-3.028167486190796,1017.2815,
2021.02.11 15:32:10,78.0,14.0,3.06,-30.0,-30.72,0.16281068,0.50040346,9.603436,0.0018497,0.011539245,0.0049205194,-0.05205216258764267,-0.016951752826571465,-3.0160298347473145,1017.2815,
2021.02.11 15:32:10,78.0,14.0,2.82,-30.119999,-30.9,0.028731298,0.41420954,9.656111,-0.005480683,0.0042088614,-0.0054641897,-0.04286963492631912,-0.002975443610921502,-3.0407166481018066,1017.2825,
2021.02.11 15:32:10,78.0,14.0,3.06,-30.179998,-30.9,0.090982445,0.49082634,9.608225,0.005514892,5.4367003E-4,0.006753115,-0.05103733018040657,-0.009468941949307919,-3.024768590927124,1017.2832,
2021.02.11 15:32:10,78.0,14.0,3.1799998,-30.24,-30.84,0.08858817,0.47167215,9.701602,-0.0060915486,-0.0037323865,0.011029172,-0.048577696084976196,-0.009131038561463356,-3.0215981006622314,1017.2832,
2021.02.11 15:32:10,78.0,14.0,3.1799998,-30.179998,-30.66,0.16520496,0.4932206,9.648928,-0.0024263568,-0.0031215216,0.015916094,-0.05106469988822937,-0.017119914293289185,-3.012690305709839,1017.2771,
2021.02.11 15:32:10,78.0,14.0,3.24,-29.939999,-30.72,0.043096945,0.47167215,9.668081,1.7104227E-5,0.002987131,0.0043096542,-0.04874739795923233,-0.004457622766494751,-3.0232770442962646,1017.2771,
2021.02.11 15:32:10,78.0,14.0,3.06,-30.06,-30.72,0.12450229,0.50758624,9.735122,-0.009145874,0.004819727,6.444628E-4,-0.05208826810121536,-0.01278828363865614,-3.0207085609436035,1017.2837,
2021.02.11 15:32:10,78.0,14.0,2.58,-30.06,-31.14,0.09337672,0.43096948,9.648928,-0.003037222,0.009706649,0.009196576,-0.04463326185941696,-0.009677116759121418,-3.041335105895996,1017.28174,
2021.02.11 15:32:10,78.0,14.0,2.58,-29.939999,-31.019999,0.16759923,0.47885495,9.591465,6.2796945E-4,0.006652322,0.010418306,-0.04987609013915062,-0.017472010105848312,-3.0319600105285645,1017.28174,
2021.02.11 15:32:11,78.0,14.0,2.7,-30.179998,-30.96,0.09337672,0.45730647,9.660899,0.0012388347,-0.0049541174,-0.0030207285,-0.04729829728603363,-0.009665125980973244,-3.0374135971069336,1017.2737,
2021.02.11 15:32:11,78.0,14.0,2.46,-29.939999,-30.599998,0.05506832,0.4644893,9.747093,-0.0060915486,-0.009230174,-0.0072967852,-0.047617357224226,-0.005649656988680363,-3.049313545227051,1017.2737,
2021.02.11 15:32:11,78.0,14.0,2.6399999,-30.179998,-30.24,0.12929083,0.47885495,9.593859,6.2796945E-4,0.0011545353,-0.0011881329,-0.04986674711108208,-0.013475599698722363,-3.0355823040008545,1017.27686,
2021.02.11 15:32:11,78.0,14.0,3.54,-30.179998,-30.599998,0.05985687,0.44294083,9.727939,-0.00853501,-0.0055649825,-0.014016303,-0.04550057277083397,-0.006153011228889227,-3.0126705169677734,1017.2722,
2021.02.11 15:32:11,78.0,14.0,3.4199998,-30.0,-30.66,0.057462595,0.43575802,9.61062,-0.0042589526,0.009706649,-0.00668592,-0.04530946537852287,-0.005979001522064209,-3.0161845684051514,1017.2722,
2021.02.11 15:32:11,78.0,14.0,3.3,-29.82,-30.779999,-0.076616794,0.4285752,9.845258,0.005514892,-0.0012889256,-0.0024098635,-0.04350234940648079,0.007781944237649441,-3.03444242477417,1017.2678,
2021.02.11 15:32:11,78.0,14.0,3.06,-29.82,-30.779999,0.021548472,0.6703969,9.308941,0.06721228,-0.015338826,0.028744265,-0.071892149746418,-0.0023148104082792997,-3.028350591659546,1017.2678,
2021.02.11 15:32:11,78.0,14.0,2.76,-30.179998,-30.48,0.18914771,0.4932206,9.519637,0.01712133,0.020091359,0.025079073,-0.05175438150763512,-0.01986660063266754,-3.0243372917175293,1017.2627,
2021.02.11 15:32:11,78.0,14.0,2.58,-29.88,-30.179998,0.20351335,0.6177229,9.632168,0.007958353,0.0017654005,0.019581286,-0.06402929127216339,-0.021125366911292076,-3.0267627239227295,1017.2634,
2021.02.11 15:32:11,78.0,14.0,2.76,-30.0,-29.82,-0.05506832,0.48843205,9.677659,0.0012388347,5.4367003E-4,-0.023179282,-0.050426457077264786,0.005690190941095352,-3.0508217811584473,1017.2634,
2021.02.11 15:32:11,78.0,14.0,2.8799999,-30.06,-29.699999,0.071828246,0.5506832,9.775824,-0.0024263568,0.004819727,-0.023790147,-0.05627014860510826,-0.0073474072851240635,-3.03271746635437,1017.27563,
2021.02.11 15:32:11,78.0,14.0,2.58,-30.06,-29.699999,0.11253092,0.51955765,9.656111,0.023840848,-0.017782288,-0.01951409,-0.053750623017549515,-0.011653327383100986,-3.039010763168335,1017.27563,
2021.02.11 15:32:11,78.0,14.0,3.0,-30.42,-29.699999,-0.047885496,0.50040346,9.646533,0.010401813,0.01215011,-0.024401013,-0.051826830953359604,0.004963970277458429,-3.043003797531128,1017.26904,
2021.02.11 15:32:11,78.0,14.0,2.9399998,-30.359999,-29.939999,-0.12210801,0.4956149,9.483723,0.01467787,0.02864347,-0.006075055,-0.052207715809345245,0.012874823994934559,-3.0529937744140625,1017.2732,
2021.02.11 15:32:11,78.0,14.0,3.06,-30.539999,-29.88,0.03351985,0.5027977,9.684841,0.005514892,-6.780604E-4,0.020803018,-0.051869072020053864,-0.003461049636825919,-3.03275465965271,1017.2732,
2021.02.11 15:32:11,78.0,14.0,3.06,-30.539999,-29.88,0.14605077,0.60335726,9.778218,-0.0012046263,0.009095783,0.032409456,-0.06161922216415405,-0.014935227110981941,-3.0198068618774414,1017.2771,
2021.02.11 15:32:12,78.0,14.0,2.6399999,-30.779999,-29.939999,0.19154198,0.47167215,9.665688,0.01712133,0.0158153,0.014694364,-0.0487503781914711,-0.019814101979136467,-3.0316593647003174,1017.2771,
