Time,X-cord,Y-cord,Mag_x,Mag_y,Mag_z,Acc_x,Acc_y,Acc_z,Gyro_x,Gyro_y,Gyro_z,Orn_x,Orn_y,Orn_z,Pressure,
2021.02.11 15:33:24,82.0,11.0,21.06,4.02,-20.22,-0.5411061,0.409421,8.526012,0.11547063,0.17097507,-0.08732013,-0.0478871613740921,0.06338031589984894,-1.3205338716506958,1017.2312,
2021.02.11 15:33:24,82.0,11.0,21.24,3.9599998,-20.52,0.026337024,0.37111259,9.42626,0.08248391,0.0011545353,-0.012183707,-0.03934960067272186,-0.002793998224660754,-1.3508248329162598,1017.23364,
2021.02.11 15:33:24,82.0,11.0,21.0,4.02,-20.699999,0.2083019,0.49800915,9.945818,-0.083671436,-0.11735333,0.009807441,-0.05001947656273842,-0.02094060555100441,-1.3403401374816895,1017.23364,
2021.02.11 15:33:24,82.0,11.0,21.84,4.74,-20.4,0.12450229,0.45970076,9.680053,-0.05984769,-0.08253401,0.009807441,-0.04744992032647133,-0.012861027382314205,-1.3188568353652954,1017.2317,
2021.02.11 15:33:24,82.0,11.0,22.08,4.68,-20.34,0.12689656,0.29689008,9.62259,-0.029304428,-0.050158147,0.011640037,-0.030840985476970673,-0.013186595402657986,-1.3380950689315796,1017.2317,
2021.02.11 15:33:24,82.0,11.0,22.439999,4.56,-20.52,0.18196489,0.33519846,9.5794935,-0.033580482,-0.015338826,0.03057686,-0.03497067838907242,-0.018992967903614044,-1.3443230390548706,1017.23096,
2021.02.11 15:33:24,82.0,11.0,23.039999,4.62,-20.4,0.19633053,0.38787252,9.6896305,-0.03541308,0.004819727,0.025079073,-0.04000008478760719,-0.020259149372577667,-1.3439141511917114,1017.2268,
2021.02.11 15:33:24,82.0,11.0,23.279999,3.84,-20.1,0.22266756,0.41181526,9.660899,-0.018919718,-0.015949693,0.035463784,-0.04258992522954941,-0.023044247180223465,-1.3765681982040405,1017.2268,
2021.02.11 15:33:24,82.0,11.0,23.039999,3.9599998,-19.98,0.14126222,0.40463245,9.814133,-0.02258491,-0.0012889256,0.009196576,-0.041201964020729065,-0.014392760582268238,-1.3692471981048584,1017.2322,
2021.02.11 15:33:24,82.0,11.0,23.46,4.3199997,-19.8,0.20590763,0.4764607,9.670476,-0.020141449,-0.0055649825,-0.009740246,-0.04921867325901985,-0.02128918282687664,-1.353792428970337,1017.2322,
2021.02.11 15:33:24,82.0,11.0,23.1,4.08,-19.92,0.11013664,0.34477556,9.668081,0.010401813,0.0017654005,-0.008518515,-0.0356438048183918,-0.011391285806894302,-1.3687561750411987,1017.23584,
2021.02.11 15:33:25,82.0,11.0,22.8,4.2599998,-20.46,0.117319465,0.409421,9.478934,0.008569217,0.006041457,-0.026844474,-0.04316259175539017,-0.012376230210065842,-1.351958990097046,1017.2395,
2021.02.11 15:33:25,82.0,11.0,23.4,4.44,-20.34,0.057462595,0.34956414,9.512454,0.020175658,0.018258762,0.006753115,-0.03673085197806358,-0.006040702108293772,-1.3540918827056885,1017.2395,
2021.02.11 15:33:25,82.0,11.0,22.92,4.44,-20.34,0.10774237,0.35914123,9.888355,0.012234409,-0.0037323865,0.016526958,-0.03630150109529495,-0.010895452462136745,-1.3511433601379395,1017.22974,
2021.02.11 15:33:25,82.0,11.0,23.1,4.68,-20.22,0.31125572,0.51955765,9.70639,0.01345614,0.02253482,0.040350705,-0.05344892665743828,-0.03205610811710358,-1.3345844745635986,1017.22974,
2021.02.11 15:33:25,82.0,11.0,22.8,4.68,-20.039999,0.16281068,0.5123748,9.888355,0.0024605652,0.010928379,0.00736398,-0.05176268145442009,-0.016463402658700943,-1.3295111656188965,1017.22925,
2021.02.11 15:33:25,82.0,11.0,22.38,4.56,-19.98,0.014365649,0.41181526,9.737515,0.019564793,-0.0061758477,-0.0439487,-0.04226638376712799,-0.0014752879505977035,-1.3343868255615234,1017.21436,
2021.02.11 15:33:25,82.0,11.0,22.5,4.38,-19.8,-0.090982445,0.30167863,9.4932995,0.03544729,-6.780604E-4,-0.03356399,-0.031765908002853394,0.009583565406501293,-1.3497422933578491,1017.21436,
2021.02.11 15:33:25,82.0,11.0,22.56,4.3199997,-19.5,0.04070267,0.42139238,9.627379,0.031782098,-0.0037323865,0.026911668,-0.043741896748542786,-0.004227778874337673,-1.3465462923049927,1017.21606,
2021.02.11 15:33:25,82.0,11.0,22.619999,4.5,-19.38,0.17957062,0.531529,10.005674,6.2796945E-4,-0.02266921,0.04340503,-0.05306434631347656,-0.017944950610399246,-1.3357253074645996,1017.21606,
2021.02.11 15:33:25,82.0,11.0,22.68,4.08,-19.5,0.339987,0.51955765,9.613013,0.029949501,0.0017654005,0.04707022,-0.053961120545864105,-0.03535263612866402,-1.3565430641174316,1017.2195,
2021.02.11 15:33:25,82.0,11.0,22.68,4.2,-19.5,0.15323359,0.36632404,9.399923,0.04827546,-0.022058344,0.011029172,-0.03894608095288277,-0.016300136223435402,-1.3591161966323853,1017.2224,
2021.02.11 15:33:25,82.0,11.0,22.56,4.02,-19.5,0.15802214,0.39266106,9.684841,0.009790948,-0.01106277,-0.0011881329,-0.04051629826426506,-0.016314992681145668,-1.3643165826797485,1017.2224,
2021.02.11 15:33:25,82.0,11.0,22.38,3.84,-19.5,0.14605077,0.38547826,9.766247,-0.02258491,-0.0049541174,-0.00790765,-0.039445579051971436,-0.014953531324863434,-1.370903491973877,1017.2212,
2021.02.11 15:33:25,82.0,11.0,22.56,4.14,-19.98,0.28970724,0.505192,9.754275,-0.017697988,0.0011545353,0.0030879239,-0.051722850650548935,-0.02969180978834629,-1.352563500404358,1017.2212,
2021.02.11 15:33:25,82.0,11.0,22.439999,4.2,-19.98,0.23463893,0.45970076,9.596253,-0.014032797,-6.780604E-4,0.007974846,-0.047853320837020874,-0.02444622665643692,-1.3508511781692505,1017.2175,
2021.02.11 15:33:25,82.0,11.0,22.08,4.08,-20.1,0.19154198,0.39266106,9.694419,-0.0042589526,-0.0012889256,-0.025622744,-0.0404738113284111,-0.019755395129323006,-1.3572977781295776,1017.2178,
2021.02.11 15:33:25,82.0,11.0,22.199999,3.9599998,-20.039999,0.18196489,0.42618093,9.703996,0.0024605652,-0.019614883,-0.025011877,-0.04388217628002167,-0.01874934509396553,-1.3605471849441528,1017.2178,
2021.02.11 15:33:26,82.0,11.0,22.08,4.3199997,-19.68,0.19154198,0.36632404,9.660899,0.011012679,-0.0018997908,-0.02073582,-0.03789261728525162,-0.019823919981718063,-1.3498666286468506,1017.2217,
2021.02.11 15:33:26,82.0,11.0,21.96,4.08,-20.1,0.18675344,0.43815228,9.751882,-0.007924144,-0.0086193085,-0.030509664,-0.044891607016325,-0.01914816163480282,-1.3523728847503662,1017.2217,
2021.02.11 15:33:26,82.0,11.0,22.14,4.44,-19.98,0.15083931,0.4764607,9.47654,-0.0012046263,-0.017171424,-0.030509664,-0.0502292700111866,-0.01591578498482704,-1.3339675664901733,1017.2158,
2021.02.11 15:33:26,82.0,11.0,22.32,4.5,-20.46,0.08858817,0.3998439,9.703996,-0.006702414,-0.020836612,-0.028066205,-0.04117903858423233,-0.009128786623477936,-1.3382513523101807,1017.2229,
2021.02.11 15:33:26,82.0,11.0,22.32,4.56,-20.58,0.16281068,0.45970076,9.574705,-0.00853501,0.0035979962,-0.0158489,-0.04796823114156723,-0.017002610489726067,-1.331782579421997,1017.2229,
2021.02.11 15:33:26,82.0,11.0,22.38,4.7999997,-20.22,0.105348095,0.43336374,9.780613,-0.02136318,-0.007397578,-0.021346685,-0.04427691549062729,-0.010770698077976704,-1.3245501518249512,1017.22314,
2021.02.11 15:33:26,82.0,11.0,22.619999,4.7999997,-20.22,0.16281068,0.4740664,9.646533,-0.014643662,-6.780604E-4,-0.022568416,-0.049097221344709396,-0.016876034438610077,-1.324662446975708,1017.22314,
2021.02.11 15:33:26,82.0,11.0,22.56,5.04,-20.039999,0.05985687,0.37829542,9.680053,6.2796945E-4,0.0035979962,-0.026233608,-0.039059270173311234,-0.00618344871327281,-1.319919228553772,1017.2261,
2021.02.11 15:33:26,82.0,11.0,22.38,4.74,-20.22,0.098165266,0.44294083,9.641745,-0.003037222,0.006652322,-0.017681494,-0.04590524733066559,-0.010180925019085407,-1.3255590200424194,1017.2278,
2021.02.11 15:33:26,82.0,11.0,22.199999,4.74,-20.4,0.08619389,0.37111259,9.885961,-0.012200201,0.0023762658,-0.008518515,-0.037520311772823334,-0.008718596771359444,-1.3300130367279053,1017.2278,
2021.02.11 15:33:26,82.0,11.0,21.96,4.56,-20.279999,0.15323359,0.4644893,9.636956,-0.010367605,0.0017654005,-0.0017989981,-0.04815540462732315,-0.015899281948804855,-1.3281810283660889,1017.2278,
2021.02.11 15:33:26,82.0,11.0,21.96,4.44,-20.039999,0.071828246,0.35674694,9.632168,0.011623544,0.0017654005,0.008585712,-0.03701908886432648,-0.0074569834396243095,-1.3409706354141235,1017.2278,
2021.02.11 15:33:26,82.0,11.0,22.02,4.68,-20.1,0.083799616,0.39266106,9.708784,0.0030714304,0.006041457,6.444628E-4,-0.04042036458849907,-0.008631104603409767,-1.3286811113357544,1017.2317,
2021.02.11 15:33:26,82.0,11.0,22.14,4.8599997,-20.279999,0.13886794,0.4070267,9.780613,-0.0036480871,0.0023762658,0.025689937,-0.041587479412555695,-0.014197331853210926,-1.3224891424179077,1017.2273,
2021.02.11 15:33:26,82.0,11.0,22.26,4.7999997,-20.46,0.16041641,0.43815228,9.60583,-0.00853501,-0.0012889256,0.018359555,-0.04557522386312485,-0.01669834740459919,-1.3233009576797485,1017.2273,
2021.02.11 15:33:26,82.0,11.0,22.26,4.74,-20.64,0.17717634,0.43096948,9.699207,0.0030714304,0.010317515,0.025689937,-0.04439686983823776,-0.01826506480574608,-1.3268630504608154,1017.22314,
2021.02.11 15:33:27,82.0,11.0,22.26,4.5,-20.279999,0.16041641,0.37829542,9.653716,-0.012200201,-0.0012889256,0.011029172,-0.039161067456007004,-0.01661553420126438,-1.3413949012756348,1017.22314,
2021.02.11 15:33:27,82.0,11.0,22.26,4.3199997,-19.98,0.15562786,0.37111259,9.811738,-0.00853501,0.0023762658,0.011029172,-0.03780055418610573,-0.015860065817832947,-1.3503512144088745,1017.22314,
2021.02.11 15:33:27,82.0,11.0,22.439999,4.38,-19.98,0.0071828244,0.36871833,9.330489,-0.02258491,-0.020225748,-0.0011881329,-0.0394970141351223,-7.698227418586612E-4,-1.3447232246398926,1017.2251,
2021.02.11 15:33:27,82.0,11.0,22.74,4.38,-19.74,0.098165266,0.35674694,9.938635,-0.034191348,-0.025112672,0.023857342,-0.035877808928489685,-0.009876816533505917,-1.3529272079467773,1017.2251,
2021.02.11 15:33:27,82.0,11.0,22.74,4.68,-19.859999,0.30886146,0.59378016,9.948212,-0.05496077,-0.048936415,0.036074646,-0.0595877543091774,-0.031036963686347008,-1.3268065452575684,1017.23145,
2021.02.11 15:33:27,82.0,11.0,22.26,4.62,-19.8,0.25858167,0.38068968,9.859624,0.021397388,-0.020836612,0.03485292,-0.03857855126261711,-0.026220310479402542,-1.339727759361267,1017.23145,
2021.02.11 15:33:27,82.0,11.0,21.779999,4.7999997,-19.74,0.2370332,0.37829542,9.778218,0.047053725,-0.03549738,0.009807441,-0.03865693137049675,-0.024236192926764488,-1.3268460035324097,1017.2395,
2021.02.11 15:33:27,82.0,11.0,21.18,4.74,-20.039999,0.20111908,0.3998439,9.352037,0.047053725,0.002987131,-0.025622744,-0.04271884635090828,-0.021502060815691948,-1.3184103965759277,1017.23364,
2021.02.11 15:33:27,82.0,11.0,20.939999,4.7999997,-20.1,0.021548472,0.21069619,9.574705,0.033003826,0.01337184,-0.028066205,-0.022001896053552628,-0.002250558929517865,-1.3260999917984009,1017.23364,
2021.02.11 15:33:27,82.0,11.0,21.18,4.8599997,-20.52,0.05985687,0.42618093,9.785401,-0.04946298,0.0042088614,-0.00790765,-0.043524403125047684,-0.006116879638284445,-1.3075132369995117,1017.23413,
2021.02.11 15:33:27,82.0,11.0,21.359999,4.8599997,-20.52,0.16281068,0.4932206,9.845258,-0.052517306,5.4367003E-4,0.03179859,-0.050048597157001495,-0.016535457223653793,-1.3068846464157104,1017.23413,
2021.02.11 15:33:27,82.0,11.0,21.3,4.98,-20.76,0.3519584,0.4189981,9.6896305,-0.014643662,0.02253482,0.03424205,-0.04318653792142868,-0.03630724176764488,-1.3118699789047241,1017.2346,
2021.02.11 15:33:27,82.0,11.0,21.18,4.74,-20.64,0.28970724,0.45491222,9.771035,-0.006702414,0.01337184,0.028133398,-0.0465032160282135,-0.029640911146998405,-1.316370964050293,1017.2302,
2021.02.11 15:33:27,82.0,11.0,21.18,4.68,-20.58,0.17717634,0.38068968,9.881172,0.0030714304,0.009706649,0.0012553281,-0.038501545786857605,-0.017928780987858772,-1.3228683471679688,1017.2302,
2021.02.11 15:33:27,82.0,11.0,21.42,4.56,-20.82,0.15562786,0.34956414,9.641745,0.023840848,0.02253482,-0.024401013,-0.03623468801379204,-0.016139646992087364,-1.331870198249817,1017.23,
2021.02.11 15:33:27,82.0,11.0,21.42,4.7999997,-20.58,0.07901107,0.38787252,9.797373,0.023229985,0.0017654005,-0.024401013,-0.0395674929022789,-0.00806434080004692,-1.3168058395385742,1017.23,
2021.02.11 15:33:27,82.0,11.0,21.84,4.74,-20.699999,0.12689656,0.40223816,9.550762,0.03422556,0.010928379,-0.0158489,-0.04208723083138466,-0.01328575611114502,-1.3230022192001343,1017.2317,
2021.02.11 15:33:28,82.0,11.0,21.84,5.04,-20.4,-0.011971374,0.28731298,9.747093,0.032392964,0.009095783,-0.016459765,-0.02946823090314865,0.0012281987583264709,-1.3178119659423828,1017.23267,
2021.02.11 15:33:28,82.0,11.0,21.6,4.8599997,-20.4,0.09577099,0.46209505,9.452597,0.014067005,0.010928379,0.0024770587,-0.048844125121831894,-0.010131366550922394,-1.3091378211975098,1017.23267,
2021.02.11 15:33:28,82.0,11.0,21.84,4.68,-20.76,0.12450229,0.4285752,9.857229,0.0061257565,0.002987131,0.016526958,-0.04344743490219116,-0.012629884295165539,-1.324110507965088,1017.229,
2021.02.11 15:33:28,82.0,11.0,21.539999,4.62,-21.0,0.15562786,0.5243462,9.550762,0.007958353,5.4367003E-4,0.016526958,-0.05483865365386009,-0.016293369233608246,-1.3140286207199097,1017.229,
2021.02.11 15:33:28,82.0,11.0,21.779999,4.44,-21.18,0.023942748,0.36632404,9.73991,0.01467787,-0.0037323865,0.016526958,-0.03759278357028961,-0.002458205446600914,-1.3356326818466187,1017.23315,
2021.02.11 15:33:28,82.0,11.0,21.6,4.68,-21.0,0.12450229,0.43815228,9.696813,-0.0042589526,-0.014117096,0.01774869,-0.0451507568359375,-0.012838800437748432,-1.3196501731872559,1017.2307,
2021.02.11 15:33:28,82.0,11.0,21.3,4.44,-20.76,0.22266756,0.55307746,9.560339,0.0024605652,-0.024501804,0.039739836,-0.05777120217680931,-0.023286549374461174,-1.3190056085586548,1017.2307,
2021.02.11 15:33:28,82.0,11.0,21.539999,4.56,-20.34,0.071828246,0.45012367,9.830893,-0.0036480871,-0.015949693,0.006753115,-0.04575347527861595,-0.007306250743567944,-1.3233760595321655,1017.22974,
2021.02.11 15:33:28,82.0,11.0,21.6,4.7999997,-20.34,0.12210801,0.48124924,9.5244255,-0.0018154916,-0.02144748,6.444628E-4,-0.05048082396388054,-0.012819809839129448,-1.3111717700958252,1017.22974,
2021.02.11 15:33:28,82.0,11.0,21.9,4.68,-20.279999,0.16759923,0.50998056,9.77343,-0.00853501,-0.017171424,0.0030879239,-0.05212537199258804,-0.017146775498986244,-1.3195055723190308,1017.23145,
2021.02.11 15:33:28,82.0,11.0,22.08,4.74,-20.1,0.25379312,0.5219519,9.5794935,0.0036822958,0.0011545353,0.011029172,-0.05441349744796753,-0.026487179100513458,-1.3198798894882202,1017.2373,
2021.02.11 15:33:28,82.0,11.0,21.6,4.8599997,-20.22,0.026337024,0.3615355,9.814133,0.019564793,0.0042088614,-0.020124957,-0.03682146593928337,-0.0026835750322788954,-1.3177765607833862,1017.2373,
2021.02.11 15:33:28,82.0,11.0,21.359999,4.38,-20.22,0.17957062,0.5123748,9.60583,0.009790948,-0.0025106561,-0.020124957,-0.053280193358659744,-0.018691742792725563,-1.3260080814361572,1017.23486,
2021.02.11 15:33:28,82.0,11.0,21.24,4.56,-20.1,0.11013664,0.54828894,9.682447,-0.010367605,-0.007397578,-0.0011881329,-0.05656304210424423,-0.011374385096132755,-1.3123397827148438,1017.23486,
2021.02.11 15:33:28,82.0,11.0,21.06,4.68,-20.279999,0.12689656,0.46209505,9.627379,0.0018497,0.006041457,-0.0072967852,-0.04795704036951065,-0.013180036097764969,-1.312531590461731,1017.2224,
2021.02.11 15:33:28,82.0,11.0,21.24,4.5,-20.4,0.21787901,0.46209505,9.718362,-0.0036480871,-0.015338826,-0.003631594,-0.04750095307826996,-0.022415559738874435,-1.325047492980957,1017.22534,
2021.02.11 15:33:28,82.0,11.0,21.119999,4.56,-20.46,0.20351335,0.55307746,9.5794935,0.005514892,-0.0049541174,-0.006075055,-0.05765856057405472,-0.02124149352312088,-1.3119826316833496,1017.22534,
2021.02.11 15:33:29,82.0,11.0,20.699999,4.62,-20.82,0.047885496,0.43336374,9.725544,-0.0060915486,-6.780604E-4,-0.037229184,-0.04452934116125107,-0.004923643544316292,-1.3106249570846558,1017.23,
2021.02.11 15:33:29,82.0,11.0,20.76,4.68,-20.58,0.1699935,0.50998056,9.538791,0.009790948,-0.011673635,-0.031731397,-0.053404536098241806,-0.017819397151470184,-1.3049399852752686,1017.23,
2021.02.11 15:33:29,82.0,11.0,20.64,4.8599997,-20.4,0.14126222,0.49800915,9.701602,0.007347487,-0.0012889256,-0.017681494,-0.05128222703933716,-0.01455968152731657,-1.2968113422393799,1017.23267,
2021.02.11 15:33:29,82.0,11.0,20.76,4.8599997,-20.64,0.105348095,0.4836435,9.601042,-5.9376104E-4,-0.0104519045,-0.012794573,-0.05032849684357643,-0.010972129181027412,-1.2975752353668213,1017.23413,
2021.02.11 15:33:29,82.0,11.0,21.3,4.62,-20.22,0.22027329,0.55786604,9.670476,0.005514892,-0.0086193085,6.444628E-4,-0.057608772069215775,-0.022773977369070053,-1.3124698400497437,1017.23413,
2021.02.11 15:33:29,82.0,11.0,21.24,4.44,-20.279999,0.05985687,0.46209505,9.735122,0.011623544,-0.008008444,6.444628E-4,-0.04743029922246933,-0.0061484710313379765,-1.3236491680145264,1017.23926,
2021.02.11 15:33:29,82.0,11.0,21.42,4.44,-20.4,0.083799616,0.51716334,9.536397,0.004904026,-0.009841039,-0.012183707,-0.05417531728744507,-0.008787119761109352,-1.3202356100082397,1017.23926,
2021.02.11 15:33:29,82.0,11.0,21.24,4.44,-19.859999,0.15562786,0.51955765,9.62259,0.009790948,0.002987131,0.0030879239,-0.053934115916490555,-0.016171766445040703,-1.321635127067566,1017.23926,
2021.02.11 15:33:29,82.0,11.0,21.24,4.3199997,-20.039999,0.23463893,0.55786604,9.60583,0.011012679,-0.0018997908,0.025079073,-0.05799335986375809,-0.02442186512053013,-1.3252499103546143,1017.2366,
2021.02.11 15:33:29,82.0,11.0,21.3,4.62,-20.1,0.17717634,0.54828894,9.634562,-0.0012046263,-6.719518E-5,0.012250902,-0.056837644428014755,-0.01838759146630764,-1.31216299533844,1017.2366,
2021.02.11 15:33:29,82.0,11.0,21.119999,4.62,-20.039999,0.102953814,0.4932206,9.70639,-0.0073132785,0.007874053,-0.0024098635,-0.05076748877763748,-0.01060640998184681,-1.3132072687149048,1017.2373,
2021.02.11 15:33:29,82.0,11.0,21.539999,4.56,-20.4,0.23463893,0.5506832,9.749487,0.0024605652,5.4367003E-4,0.006753115,-0.05640704557299614,-0.024062152951955795,-1.318687915802002,1017.2373,
2021.02.11 15:33:29,82.0,11.0,21.48,4.68,-20.22,0.18435916,0.5554718,9.536397,0.009790948,0.0042088614,0.0024770587,-0.05817096680402756,-0.019329752773046494,-1.3105299472808838,1017.2312,
2021.02.11 15:33:29,82.0,11.0,21.24,4.44,-20.46,0.047885496,0.46209505,9.624985,-0.0024263568,-0.0067867124,-0.01951409,-0.04797251895070076,-0.0049750832840800285,-1.322487711906433,1017.23193,
2021.02.11 15:33:29,82.0,11.0,21.359999,4.38,-20.64,0.25379312,0.59378016,9.672871,-0.012200201,-0.009841039,-0.0042424593,-0.06128816679120064,-0.02623160369694233,-1.320334792137146,1017.23193,
2021.02.11 15:33:29,82.0,11.0,21.06,4.38,-20.52,0.2083019,0.6081458,9.641745,0.009790948,-0.0018997908,0.006753115,-0.06297615170478821,-0.021600812673568726,-1.314501404762268,1017.23193,
2021.02.11 15:33:30,82.0,11.0,21.06,4.44,-20.64,0.10055954,0.505192,9.641745,0.0018497,-0.0031215216,-0.025011877,-0.05234561115503311,-0.010429222136735916,-1.317704677581787,1017.23193,
2021.02.11 15:33:30,82.0,11.0,20.939999,4.2599998,-20.76,0.117319465,0.50998056,9.684841,0.01712133,0.008484919,-0.011572842,-0.05260516330599785,-0.012113128788769245,-1.3242731094360352,1017.2234,
2021.02.11 15:33:30,82.0,11.0,21.0,4.2,-20.64,0.2681588,0.6560313,9.61062,-0.0073132785,-0.014117096,-0.009129381,-0.06812892109155655,-0.02789510414004326,-1.31871497631073,1017.2234,
2021.02.11 15:33:30,82.0,11.0,20.939999,4.5,-20.46,0.11253092,0.51955765,9.627379,0.020175658,0.01215011,-0.01829236,-0.05391070246696472,-0.011688102036714554,-1.3130487203598022,1017.2234,
2021.02.11 15:33:30,82.0,11.0,20.76,4.2599998,-20.16,0.071828246,0.57223165,9.814133,-0.009756739,-0.018393151,-0.040894374,-0.0582394041121006,-0.007318727672100067,-1.317255973815918,1017.2175,
2021.02.11 15:33:30,82.0,11.0,21.359999,4.5,-19.68,0.22027329,0.63208854,9.62259,0.020175658,0.0023762658,6.444628E-4,-0.06557662039995193,-0.022887270897626877,-1.3130661249160767,1017.2175,
2021.02.11 15:33:30,82.0,11.0,21.3,4.38,-19.56,0.08858817,0.53392327,9.581888,0.004293161,-0.0031215216,-0.02073582,-0.05566219612956047,-0.009245113469660282,-1.3222968578338623,1017.2124,
2021.02.11 15:33:30,82.0,11.0,21.48,4.14,-19.92,0.09337672,0.5794145,9.656111,-0.009756739,-0.0018997908,-0.01951409,-0.05993029847741127,-0.009669918566942215,-1.330371379852295,1017.218,
2021.02.11 15:33:30,82.0,11.0,21.48,4.2,-20.4,0.13168511,0.5889916,9.668081,-0.009756739,-0.0018997908,-0.02073582,-0.0608404204249382,-0.013619761914014816,-1.3268672227859497,1017.218,
2021.02.11 15:33:30,82.0,11.0,21.06,4.2,-21.119999,0.27055305,0.6201172,9.653716,-0.0018154916,-6.719518E-5,-5.7726767E-4,-0.06412287056446075,-0.028018459677696228,-1.321668028831482,1017.2202,
2021.02.11 15:33:30,82.0,11.0,20.939999,4.2,-21.119999,0.076616794,0.51955765,9.636956,-0.0060915486,-0.0055649825,-0.010961977,-0.053859200328588486,-0.007950142957270145,-1.3238095045089722,1017.2202,
2021.02.11 15:33:30,82.0,11.0,20.58,4.44,-21.0,0.04070267,0.5506832,9.61062,-0.013421931,-0.0012889256,-0.026844474,-0.05723635107278824,-0.004235151223838329,-1.30489981174469,1017.22144,
2021.02.11 15:33:30,82.0,11.0,20.82,4.56,-20.58,0.18914771,0.5985687,9.720756,-0.0048698178,0.0035979962,-0.00790765,-0.061487097293138504,-0.019455673173069954,-1.3043441772460938,1017.22266,
2021.02.11 15:33:30,82.0,11.0,20.82,4.62,-20.34,0.22745611,0.5985687,9.653716,-0.007924144,0.0042088614,0.003698789,-0.06190754845738411,-0.023557148873806,-1.3031642436981201,1017.22266,
2021.02.11 15:33:30,82.0,11.0,21.0,4.7999997,-20.34,0.13886794,0.5818088,9.675264,-0.006702414,0.0042088614,0.0012553281,-0.06005513668060303,-0.01435189787298441,-1.2963600158691406,1017.2224,
2021.02.11 15:33:30,82.0,11.0,21.3,4.7999997,-20.52,0.047885496,0.5027977,9.644139,-0.015254527,-0.0018997908,-0.010961977,-0.05208725854754448,-0.004965202417224646,-1.3036959171295166,1017.2224,
2021.02.11 15:33:30,82.0,11.0,21.06,5.1,-20.82,0.14126222,0.4956149,9.6585045,-0.006702414,0.0023762658,-0.0011881329,-0.051263388246297836,-0.01462463941425085,-1.2907339334487915,1017.2263,
2021.02.11 15:33:31,82.0,11.0,20.76,5.16,-20.82,0.15802214,0.531529,9.562734,-0.0073132785,0.006652322,0.014083498,-0.05551867187023163,-0.01652328297495842,-1.2811747789382935,1017.2246,
2021.02.11 15:33:31,82.0,11.0,20.76,5.22,-20.64,0.11253092,0.4764607,9.694419,-0.0036480871,0.0011545353,0.0049205194,-0.049105118960142136,-0.011607282795011997,-1.283036231994629,1017.2246,
2021.02.11 15:33:31,82.0,11.0,20.82,5.04,-20.52,0.21787901,0.58420306,9.718362,-0.015865391,-0.009230174,0.007974846,-0.06002603471279144,-0.022415559738874435,-1.2857683897018433,1017.2268,
2021.02.11 15:33:31,82.0,11.0,20.939999,4.7999997,-20.52,0.031125572,0.45730647,9.581888,0.0018497,0.009706649,0.015916094,-0.04768969491124153,-0.0032483641989529133,-1.3027524948120117,1017.2268,
2021.02.11 15:33:31,82.0,11.0,21.6,4.92,-20.22,-0.021548472,0.4166038,9.569917,0.012845274,-0.011673635,6.444628E-4,-0.043505072593688965,0.0022516846656799316,-1.3080723285675049,1017.23193,
2021.02.11 15:33:31,82.0,11.0,21.539999,4.92,-20.52,0.20111908,0.53871185,9.644139,0.012234409,0.040249914,0.007974846,-0.05578888952732086,-0.020850997418165207,-1.3027949333190918,1017.2346,
2021.02.11 15:33:31,82.0,11.0,21.42,5.04,-20.22,0.20590763,0.61293435,9.648928,0.009790948,0.038417317,0.03179859,-0.06342393159866333,-0.021336710080504417,-1.2907912731170654,1017.2346,
2021.02.11 15:33:31,82.0,11.0,21.24,5.04,-19.68,0.14844504,0.5506832,9.778218,0.023840848,0.011539245,0.010418306,-0.05625143647193909,-0.015180028975009918,-1.2939140796661377,1017.2378,
2021.02.11 15:33:31,82.0,11.0,21.24,4.74,-19.98,-0.090982445,0.42378664,9.105427,0.0061257565,0.0023762658,-0.015238034,-0.04650632292032242,0.009991779923439026,-1.3073971271514893,1017.2378,
2021.02.11 15:33:31,82.0,11.0,21.359999,4.56,-19.8,0.14365649,0.4836435,10.072714,-0.0561825,-0.05748853,0.032409456,-0.04797349497675896,-0.014260977506637573,-1.3223624229431152,1017.2324,
2021.02.11 15:33:31,82.0,11.0,21.539999,4.44,-19.859999,0.052674048,0.5818088,9.63935,0.0036822958,0.10439076,-0.023790147,-0.06028364598751068,-0.005464427173137665,-1.316739797592163,1017.2346,
