Time,X-cord,Y-cord,Mag_x,Mag_y,Mag_z,Acc_x,Acc_y,Acc_z,Gyro_x,Gyro_y,Gyro_z,Orn_x,Orn_y,Orn_z,Pressure,
2021.02.11 15:22:49,47.0,20.0,1.02,17.16,-27.24,0.18914771,0.57223165,9.921875,-0.026860965,0.040249914,-0.090374455,-0.05759948119521141,-0.01906139776110649,-0.08212276548147202,1017.4331,
2021.02.11 15:22:49,47.0,20.0,1.02,17.52,-27.24,0.090982445,0.531529,9.63935,-0.009145874,-0.08986439,-0.1001483,-0.055083341896533966,-0.009438369423151016,-0.06713859736919403,1017.4419,
2021.02.11 15:22:49,47.0,20.0,0.53999996,17.039999,-27.119999,-0.2466103,0.12450229,9.5244255,-0.025639236,-0.07764708,-0.09770484,-0.013066771440207958,0.025886623188853264,0.009322334080934525,1017.4419,
2021.02.11 15:22:49,47.0,20.0,0.35999998,16.98,-27.18,-0.016759925,0.22027329,9.624985,-0.0561825,-0.067262374,0.028133398,-0.02288154512643814,0.001741291955113411,-0.017766127362847328,1017.44775,
2021.02.11 15:22:49,47.0,20.0,0.9,16.56,-27.18,0.25139886,0.36632404,9.699207,-0.0683998,-0.033053916,0.05134628,-0.03773784264922142,-0.025913724675774574,-0.09102438390254974,1017.44775,
2021.02.11 15:22:49,47.0,20.0,1.02,16.56,-27.18,0.32083282,0.44772938,9.682447,-0.021974044,-0.02755613,0.052568007,-0.046183113008737564,-0.03312338888645172,-0.10745634883642197,1017.44116,
2021.02.11 15:22:49,47.0,20.0,0.96,16.8,-27.06,0.32562137,0.4740664,9.720756,-0.010367605,-0.034886513,0.039739836,-0.04870259389281273,-0.033485013991594315,-0.10272536426782608,1017.4365,
2021.02.11 15:22:50,47.0,20.0,1.14,16.859999,-27.06,0.28731298,0.37590113,9.778218,0.012234409,-0.015338826,0.013472633,-0.03840722143650055,-0.029374506324529648,-0.10773231834173203,1017.4365,
2021.02.11 15:22:50,47.0,20.0,1.02,17.039999,-26.82,0.16041641,0.32562137,9.651321,0.007347487,0.0127609745,0.003698789,-0.03372107818722725,-0.01661965623497963,-0.08154014497995377,1017.4287,
2021.02.11 15:22:50,47.0,20.0,1.1999999,16.74,-26.88,0.13647367,0.36871833,9.299363,0.011623544,0.007263188,0.031187724,-0.03962482511997223,-0.014674539677798748,-0.08937502652406693,1017.4287,
2021.02.11 15:22:50,47.0,20.0,1.56,16.859999,-27.119999,0.057462595,0.42378664,9.792584,-0.039689135,0.013982705,0.052568007,-0.043248556554317474,-0.005867903120815754,-0.09513137489557266,1017.4192,
2021.02.11 15:22:50,47.0,20.0,1.3199999,17.279999,-27.42,0.19633053,0.41420954,9.869201,-0.011589335,0.013982705,0.06783964,-0.04193701222538948,-0.01989063248038292,-0.10094818472862244,1017.41724,
2021.02.11 15:22:50,47.0,20.0,1.14,17.34,-27.48,0.29689008,0.36871833,9.687236,0.0030714304,0.0011545353,0.06906137,-0.03802608326077461,-0.030637964606285095,-0.1074359193444252,1017.41724,
2021.02.11 15:22:50,47.0,20.0,1.3199999,17.52,-27.72,0.3040729,0.4166038,9.522031,-0.010367605,-0.0104519045,0.06600704,-0.04370144009590149,-0.03192276880145073,-0.11725020408630371,1017.41724,
2021.02.11 15:22:50,47.0,20.0,1.3199999,17.58,-27.539999,0.25379312,0.31125572,9.998491,-0.015254527,-0.060542855,0.015916094,-0.031110204756259918,-0.02537769265472889,-0.10910115391016006,1017.41724,
2021.02.11 15:22:50,47.0,20.0,1.56,16.98,-27.18,0.2083019,0.40463245,9.347249,0.010401813,0.009095783,0.011029172,-0.043251197785139084,-0.022281145676970482,-0.11881259083747864,1017.4231,
2021.02.11 15:22:50,47.0,20.0,1.74,17.16,-27.18,0.16041641,0.35914123,9.60583,-0.046408653,-6.719518E-5,-0.03600745,-0.037365227937698364,-0.01669834926724434,-0.12019633501768112,1017.42163,
2021.02.11 15:22:50,47.0,20.0,1.0799999,16.92,-26.76,0.016759925,0.38068968,10.075109,-0.02136318,-0.020836612,-0.011572842,-0.03776715323328972,-0.001663496601395309,-0.06267572194337845,1017.42163,
2021.02.11 15:22:50,47.0,20.0,1.02,16.98,-26.699999,0.12450229,0.36871833,9.727939,0.015288736,-0.023280075,0.026911668,-0.037881795316934586,-0.012797725386917591,-0.07559119164943695,1017.4197,
2021.02.11 15:22:50,47.0,20.0,1.1999999,17.52,-26.939999,0.10055954,0.31843856,9.711179,0.03361469,-0.0086193085,0.03057686,-0.03277742490172386,-0.010354658588767052,-0.080232173204422,1017.4197,
2021.02.11 15:22:50,47.0,20.0,1.3199999,17.1,-26.939999,0.13886794,0.37590113,9.601042,0.030560365,0.002987131,0.03179859,-0.03912804648280144,-0.014462833292782307,-0.09396101534366608,1017.4192,
2021.02.11 15:22:50,47.0,20.0,1.86,17.16,-27.0,0.08858817,0.32801566,9.624985,0.018953927,0.005430592,0.03057686,-0.03406497463583946,-0.009203719906508923,-0.11616173386573792,1017.4182,
2021.02.11 15:22:50,47.0,20.0,1.86,17.22,-27.119999,0.098165266,0.37590113,9.660899,0.0018497,0.0011545353,0.036074646,-0.03888791427016258,-0.010160740464925766,-0.11641496419906616,1017.4182,
2021.02.11 15:22:50,47.0,20.0,1.92,16.98,-26.64,0.090982445,0.42378664,9.677659,0.004904026,0.0042088614,0.041572433,-0.04376031085848808,-0.009401010349392891,-0.11915472894906998,1017.4204,
2021.02.11 15:22:51,47.0,20.0,1.62,16.98,-26.64,0.16520496,0.45970076,9.684841,0.0030714304,0.0035979962,0.036074646,-0.04742352291941643,-0.01705644279718399,-0.11333569884300232,1017.4204,
2021.02.11 15:22:51,47.0,20.0,1.68,17.46,-26.82,0.19393626,0.42378664,9.73991,0.007958353,-0.0025106561,0.027522534,-0.043474290519952774,-0.019908873364329338,-0.11840610951185226,1017.4197,
2021.02.11 15:22:51,47.0,20.0,1.68,17.34,-26.88,0.16520496,0.4166038,9.58907,0.016510466,0.005430592,0.023246476,-0.04341195151209831,-0.01722675934433937,-0.1153816506266594,1017.41846,
2021.02.11 15:22:51,47.0,20.0,1.56,16.92,-27.24,0.24182175,0.40463245,9.526819,0.004293161,0.0011545353,0.015916094,-0.04243382066488266,-0.02537781372666359,-0.12399683892726898,1017.41846,
2021.02.11 15:22:51,47.0,20.0,2.04,17.34,-27.24,0.21069619,0.409421,9.629773,-0.012200201,-0.009230174,-0.0024098635,-0.04248041659593582,-0.021876173093914986,-0.14165912568569183,1017.41846,
2021.02.11 15:22:51,47.0,20.0,2.22,16.98,-27.42,0.20351335,0.4668836,9.63935,0.0012388347,-0.01106277,-0.012183707,-0.0483865849673748,-0.021109631285071373,-0.15186889469623566,1017.41846,
2021.02.11 15:22:51,47.0,20.0,1.9799999,17.16,-27.42,0.2083019,0.38308397,9.708784,1.7104227E-5,-0.0104519045,-0.04883562,-0.03942793980240822,-0.02145170234143734,-0.1399635374546051,1017.4199,
2021.02.11 15:22:51,47.0,20.0,2.04,17.52,-27.84,0.11253092,0.43336374,9.744699,0.0012388347,0.0011545353,-0.052500814,-0.04443949833512306,-0.011547398753464222,-0.12535539269447327,1017.42285,
2021.02.11 15:22:51,47.0,20.0,1.62,17.34,-28.019999,0.16041641,0.45730647,9.488511,0.007958353,0.002987131,-0.047003023,-0.04815167188644409,-0.01690477319061756,-0.11167830228805542,1017.42285,
2021.02.11 15:22:51,47.0,20.0,1.0799999,17.4,-27.539999,-0.028731298,0.35435268,9.845258,-0.010367605,-0.012895366,-0.058609467,-0.03597654029726982,0.002918279729783535,-0.05433477461338043,1017.4175,
2021.02.11 15:22:51,47.0,20.0,0.84,17.4,-27.96,0.06464542,0.48843205,9.514848,0.012234409,0.009706649,-0.028066205,-0.051287468522787094,-0.006794057320803404,-0.05469987168908119,1017.4175,
2021.02.11 15:22:51,47.0,20.0,0.71999997,17.16,-27.84,0.098165266,0.41181526,9.799767,-0.01097847,0.0017654005,-0.0298988,-0.041996151208877563,-0.01001676730811596,-0.054486919194459915,1017.4143,
2021.02.11 15:22:51,47.0,20.0,0.71999997,17.039999,-28.08,0.13168511,0.50758624,9.5483675,0.01345614,0.0035979962,-0.011572842,-0.05310444533824921,-0.013790500350296497,-0.05975637584924698,1017.4075,
2021.02.11 15:22:51,47.0,20.0,1.1999999,17.16,-28.439999,0.09577099,0.46209505,9.72315,0.005514892,-0.008008444,-0.013405438,-0.04748721048235893,-0.009849471971392632,-0.07987575232982635,1017.4075,
2021.02.11 15:22:51,47.0,20.0,1.68,16.8,-28.199999,0.105348095,0.45012367,9.581888,0.0036822958,0.0042088614,-0.0072967852,-0.04693916440010071,-0.010994059965014458,-0.10947834700345993,1017.39404,
2021.02.11 15:22:51,47.0,20.0,1.4399999,16.92,-28.439999,0.011971374,0.4166038,9.771035,-0.0073132785,-0.0055649825,-0.003631594,-0.0426107682287693,-0.0012251893058419228,-0.08123172074556351,1017.39404,
2021.02.11 15:22:51,47.0,20.0,1.38,16.98,-28.439999,0.18435916,0.4956149,9.646533,0.012234409,-0.0104519045,0.02935513,-0.051323022693395615,-0.01910911686718464,-0.1040581464767456,1017.39404,
2021.02.11 15:22:52,47.0,20.0,0.96,16.98,-28.439999,0.11013664,0.4668836,9.648928,-0.00853501,-0.0086193085,0.0049205194,-0.04834624007344246,-0.011413896456360817,-0.06994915753602982,1017.4004,
2021.02.11 15:22:52,47.0,20.0,0.96,17.279999,-28.019999,0.105348095,0.4644893,9.627379,0.01467787,-0.0055649825,0.025079073,-0.04820643737912178,-0.01094211544841528,-0.06795348227024078,1017.4004,
2021.02.11 15:22:52,47.0,20.0,0.96,17.279999,-27.84,0.14605077,0.4740664,9.783007,-0.012811066,-0.0061758477,0.008585712,-0.04841488599777222,-0.014927917160093784,-0.07379098236560822,1017.40576,
2021.02.11 15:22:52,47.0,20.0,0.9,17.039999,-27.599998,0.12450229,0.44294083,9.651321,0.007958353,-0.0018997908,0.015305229,-0.04585832357406616,-0.012899309396743774,-0.06857264041900635,1017.40576,
2021.02.11 15:22:52,47.0,20.0,1.14,17.16,-27.48,0.18914771,0.45012367,9.648928,-0.014643662,-0.008008444,0.010418306,-0.04660738632082939,-0.019600465893745422,-0.09086378663778305,1017.4158,
2021.02.11 15:22:52,47.0,20.0,0.96,16.8,-27.779999,0.15802214,0.5027977,9.656111,-0.007924144,-0.0012889256,0.003698789,-0.052016481757164,-0.01636352762579918,-0.07747256755828857,1017.4121,
2021.02.11 15:22:52,47.0,20.0,1.0799999,16.74,-27.42,0.1340794,0.4166038,9.656111,0.0018497,-0.007397578,-0.0017989981,-0.04311316832900047,-0.013884552754461765,-0.08139246702194214,1017.4121,
2021.02.11 15:22:52,47.0,20.0,1.4399999,16.859999,-27.3,0.17957062,0.4932206,9.550762,1.7104227E-5,-0.0012889256,0.0018661933,-0.051587074995040894,-0.018799489364027977,-0.10664176940917969,1017.4138,
2021.02.11 15:22:52,47.0,20.0,1.26,16.5,-27.18,0.12929083,0.40463245,9.727939,-0.026860965,-0.0086193085,-0.008518515,-0.041567251086235046,-0.013289889320731163,-0.09177384525537491,1017.4138,
2021.02.11 15:22:52,47.0,20.0,1.38,16.98,-27.119999,0.14365649,0.4764607,9.660899,-0.0018154916,-0.0055649825,0.0024770587,-0.04927309229969978,-0.014868793077766895,-0.09716091305017471,1017.4133,
2021.02.11 15:22:52,47.0,20.0,1.3199999,17.22,-27.06,0.18914771,0.4764607,9.672871,-0.017087122,-0.007397578,-0.009129381,-0.049208249896764755,-0.019551962614059448,-0.09945080429315567,1017.41846,
2021.02.11 15:22:52,47.0,20.0,1.38,17.64,-27.18,0.047885496,0.41420954,9.703996,-0.01097847,-0.0049541174,-0.008518515,-0.04265801981091499,-0.004934576340019703,-0.0804375484585762,1017.41846,
2021.02.11 15:22:52,47.0,20.0,1.26,18.0,-26.88,0.18196489,0.45251793,9.483723,-0.0018154916,-0.0031215216,0.011640037,-0.04767029732465744,-0.019184719771146774,-0.09192651510238647,1017.41797,
2021.02.11 15:22:52,47.0,20.0,1.02,17.52,-26.699999,0.15562786,0.44054657,9.768641,-0.02502837,-0.0061758477,6.444628E-4,-0.04506179317831993,-0.015930024906992912,-0.07711253315210342,1017.41797,
2021.02.11 15:22:52,47.0,20.0,0.78,16.98,-27.0,0.14365649,0.45251793,9.567522,0.0018497,0.004819727,0.0043096542,-0.04725676029920578,-0.01501388754695654,-0.06490565836429596,1017.42334,
2021.02.11 15:22:52,47.0,20.0,0.78,16.98,-26.88,0.10774237,0.37829542,9.744699,-0.014643662,-0.009230174,0.0030879239,-0.03879878669977188,-0.011056060902774334,-0.05973809212446213,1017.4243,
2021.02.11 15:22:53,47.0,20.0,1.0799999,16.56,-27.119999,0.17717634,0.43575802,9.665688,0.0012388347,-0.0043432517,0.012250902,-0.0450449213385582,-0.018328392878174782,-0.08853834122419357,1017.4243,
2021.02.11 15:22:53,47.0,20.0,1.1999999,16.68,-27.24,0.1987248,0.3998439,9.751882,-0.0073132785,-0.016560556,0.008585712,-0.040970269590616226,-0.02037527970969677,-0.0983702540397644,1017.42896,
2021.02.11 15:22:53,47.0,20.0,1.5,17.039999,-26.939999,0.18914771,0.44054657,9.699207,1.7104227E-5,-0.0055649825,0.006753115,-0.04538107290863991,-0.019498886540532112,-0.11054766178131104,1017.42896,
2021.02.11 15:22:53,47.0,20.0,1.3199999,16.8,-27.06,0.038308397,0.3974496,9.617802,6.2796945E-4,5.4367003E-4,-5.7726767E-4,-0.04130054637789726,-0.003983051050454378,-0.07958314567804337,1017.4302,
2021.02.11 15:22:53,47.0,20.0,1.14,17.16,-27.0,0.09337672,0.36871833,9.838076,0.012845274,-0.0122845005,0.026300803,-0.03745948150753975,-0.009491074830293655,-0.07673807442188263,1017.4258,
2021.02.11 15:22:53,47.0,20.0,1.14,17.279999,-27.539999,0.3328042,0.4764607,9.593859,0.020175658,0.0017654005,0.041572433,-0.04959253966808319,-0.034675389528274536,-0.11198649555444717,1017.4258,
2021.02.11 15:22:53,47.0,20.0,1.26,17.039999,-27.9,0.16759923,0.4189981,9.711179,-0.007924144,-0.0031215216,0.0018661933,-0.043112799525260925,-0.01725666970014572,-0.09524998068809509,1017.4214,
2021.02.11 15:22:53,47.0,20.0,1.5,16.859999,-27.9,0.11013664,0.43575802,9.665688,0.0030714304,5.4367003E-4,0.009196576,-0.045049555599689484,-0.011394106782972813,-0.10010307282209396,1017.4214,
2021.02.11 15:22:53,47.0,20.0,1.62,16.74,-27.84,0.16041641,0.3902668,9.747093,-0.009145874,-0.0067867124,0.02019215,-0.04001251608133316,-0.01645638607442379,-0.11595828086137772,1017.4182,
2021.02.11 15:22:53,47.0,20.0,1.9799999,16.619999,-26.88,0.19393626,0.42139238,9.5794935,0.0030714304,-0.0043432517,0.025689937,-0.043951667845249176,-0.020242173224687576,-0.1409733146429062,1017.4187,
2021.02.11 15:22:53,47.0,20.0,2.04,17.039999,-26.519999,0.2370332,0.43336374,9.692024,-0.017697988,-0.0031215216,0.012250902,-0.04467033967375755,-0.024451646953821182,-0.1465834379196167,1017.4187,
2021.02.11 15:22:53,47.0,20.0,1.74,17.1,-26.82,0.1699935,0.46209505,9.665688,-0.0073132785,-0.0061758477,0.010418306,-0.04776403307914734,-0.017585502937436104,-0.11987047642469406,1017.4231,
2021.02.11 15:22:53,47.0,20.0,1.92,16.92,-26.82,0.19633053,0.44533512,9.646533,-0.005480683,-0.0031215216,0.009196576,-0.04612301290035248,-0.020349634811282158,-0.13510431349277496,1017.4231,
2021.02.11 15:22:53,47.0,20.0,1.62,16.92,-27.119999,0.17717634,0.45491222,9.660899,-0.003037222,-0.0086193085,0.010418306,-0.04704532399773598,-0.018337473273277283,-0.1159563884139061,1017.4314,
2021.02.11 15:22:53,47.0,20.0,1.74,16.619999,-27.539999,0.18435916,0.3902668,9.684841,0.007958353,-0.0122845005,0.007974846,-0.040267590433359146,-0.01903354935348034,-0.12711268663406372,1017.4192,
2021.02.11 15:22:53,47.0,20.0,1.62,16.68,-27.48,0.14365649,0.42378664,9.665688,-0.0048698178,-0.020836612,6.444628E-4,-0.04381154477596283,-0.014861427247524261,-0.11303655803203583,1017.4192,
2021.02.11 15:22:53,47.0,20.0,1.4399999,17.1,-27.48,0.1699935,0.45730647,9.718362,-0.011589335,-0.0037323865,0.007974846,-0.047014057636260986,-0.017490210011601448,-0.10415417701005936,1017.42554,
2021.02.11 15:22:54,47.0,20.0,1.62,17.16,-28.199999,0.3328042,0.4956149,9.565128,0.007347487,-0.007397578,0.00736398,-0.0517372190952301,-0.03477946296334267,-0.138926163315773,1017.42554,
2021.02.11 15:22:54,47.0,20.0,1.62,17.58,-27.84,0.18914771,0.43336374,9.696813,-0.013421931,-0.0067867124,-0.013405438,-0.04465315863490105,-0.019503699615597725,-0.11450914293527603,1017.42847,
2021.02.11 15:22:54,47.0,20.0,1.56,17.46,-27.84,0.20590763,0.43575802,9.60583,0.0036822958,5.4367003E-4,-0.0054641897,-0.04532243683934212,-0.021432409062981606,-0.11479198187589645,1017.42554,
2021.02.11 15:22:54,47.0,20.0,1.68,17.039999,-28.019999,0.1987248,0.35674694,9.766247,-0.017697988,-0.007397578,-0.013405438,-0.03650477156043053,-0.02034531719982624,-0.12399827688932419,1017.42554,
2021.02.11 15:22:54,47.0,20.0,1.86,17.039999,-27.359999,0.28252444,0.47885495,9.644139,0.0067366217,-6.780604E-4,-0.009129381,-0.04959044232964516,-0.02928655780851841,-0.14380593597888947,1017.4265,
2021.02.11 15:22:54,47.0,20.0,1.56,16.199999,-27.48,0.25139886,0.44054657,9.70639,-0.006702414,-0.0037323865,-0.026844474,-0.04534095898270607,-0.02589455433189869,-0.12958626449108124,1017.4265,
2021.02.11 15:22:54,47.0,20.0,1.86,16.44,-27.18,0.13886794,0.38787252,9.6896305,0.0061257565,0.005430592,-0.021346685,-0.0400041826069355,-0.014330622740089893,-0.1277390420436859,1017.4219,
2021.02.11 15:22:54,47.0,20.0,1.92,16.5,-27.359999,0.1987248,0.39505535,9.629773,0.0012388347,0.0023762658,-0.014627169,-0.04099266231060028,-0.020633568987250328,-0.14017164707183838,1017.41895,
2021.02.11 15:22:54,47.0,20.0,1.74,16.44,-27.539999,0.2083019,0.38547826,9.768641,0.0036822958,0.0017654005,-0.0054641897,-0.0394313670694828,-0.021320296451449394,-0.13209691643714905,1017.41895,
2021.02.11 15:22:54,47.0,20.0,1.9799999,17.16,-27.42,0.2753416,0.4644893,9.6585045,0.0061257565,-0.0012889256,-0.006075055,-0.04803471639752388,-0.028499964624643326,-0.14849373698234558,1017.4177,
2021.02.11 15:22:54,47.0,20.0,1.8,16.92,-27.48,0.16520496,0.39505535,9.57231,0.008569217,-0.0012889256,-0.017681494,-0.04124109447002411,-0.01725691556930542,-0.12540756165981293,1017.4177,
2021.02.11 15:22:54,47.0,20.0,1.9799999,17.039999,-27.06,0.18675344,0.4070267,9.737515,0.0018497,-0.0049541174,-0.011572842,-0.04176786169409752,-0.019176404923200607,-0.13677535951137543,1017.4197,
2021.02.11 15:22:54,47.0,20.0,1.74,17.1,-27.18,0.2657645,0.43815228,9.581888,0.012845274,0.0023762658,-0.0024098635,-0.045677755028009415,-0.02772902138531208,-0.13524098694324493,1017.4153,
2021.02.11 15:22:54,47.0,20.0,1.38,16.68,-27.18,0.16041641,0.41181526,9.660899,0.0061257565,-0.008008444,-0.013405438,-0.04259535297751427,-0.01660318300127983,-0.10238748788833618,1017.4153,
2021.02.11 15:22:54,47.0,20.0,1.14,16.44,-27.359999,0.1340794,0.38547826,9.751882,0.008569217,0.0011545353,3.359759E-5,-0.03950430080294609,-0.013748213648796082,-0.08638021349906921,1017.426,
2021.02.11 15:22:54,47.0,20.0,0.71999997,16.26,-27.359999,0.2083019,0.45970076,9.627379,-0.0018154916,0.009706649,0.008585712,-0.04770192503929138,-0.021633032709360123,-0.07462087273597717,1017.426,
2021.02.11 15:22:54,47.0,20.0,0.65999997,16.32,-27.0,0.21069619,0.44772938,9.747093,0.011012679,0.002987131,0.010418306,-0.04589168727397919,-0.021612944081425667,-0.07076609134674072,1017.4253,
2021.02.11 15:22:55,47.0,20.0,1.14,16.56,-26.939999,0.21548474,0.44533512,9.615408,0.0036822958,0.005430592,6.444628E-4,-0.046270065009593964,-0.02240660786628723,-0.0976984053850174,1017.4258,
2021.02.11 15:22:55,47.0,20.0,1.38,16.859999,-27.06,0.15802214,0.45251793,9.675264,0.0018497,0.006041457,-0.0017989981,-0.046730317175388336,-0.016331138089299202,-0.10028515756130219,1017.4258,
2021.02.11 15:22:55,47.0,20.0,1.3199999,16.98,-26.82,0.18196489,0.45970076,9.629773,0.004904026,0.0011545353,0.0043096542,-0.04769273102283478,-0.018893824890255928,-0.09981390088796616,1017.41895,
2021.02.11 15:22:55,47.0,20.0,1.5,16.859999,-26.82,0.13886794,0.43575802,9.727939,-0.0024263568,-0.0049541174,0.0030879239,-0.04476001113653183,-0.01427419763058424,-0.10397236794233322,1017.41895,
2021.02.11 15:22:55,47.0,20.0,1.4399999,16.74,-27.24,0.29689008,0.5506832,9.603436,0.011012679,-6.719518E-5,0.008585712,-0.05725228786468506,-0.030905140563845634,-0.12422221899032593,1017.416,
2021.02.11 15:22:55,47.0,20.0,1.1999999,16.8,-27.119999,0.076616794,0.43815228,9.735122,0.0018497,-0.0025106561,-0.012183707,-0.044975630939006805,-0.007869980297982693,-0.07835299521684647,1017.4221,
2021.02.11 15:22:55,47.0,20.0,1.56,16.98,-27.18,0.2561874,0.4932206,9.58907,0.007958353,0.004819727,0.005531385,-0.051372118294239044,-0.026710251346230507,-0.12389952689409256,1017.4221,
2021.02.11 15:22:55,47.0,20.0,1.5,16.92,-27.3,0.1987248,0.4644893,9.70639,-0.0012046263,-0.0061758477,-0.00790765,-0.0478074885904789,-0.020470745861530304,-0.11260371655225754,1017.4177,
2021.02.11 15:22:55,47.0,20.0,1.1999999,17.22,-27.24,0.22027329,0.44054657,9.677659,0.008569217,-0.007397578,-0.0042424593,-0.045478854328393936,-0.02275708131492138,-0.0983601063489914,1017.4177,
2021.02.11 15:22:55,47.0,20.0,1.1999999,17.279999,-27.3,0.17717634,0.44772938,9.711179,1.7104227E-5,-0.0043432517,-0.023179282,-0.04606425762176514,-0.018242552876472473,-0.09143000841140747,1017.4177,
2021.02.11 15:22:55,47.0,20.0,1.02,16.98,-27.3,0.23942748,0.5363176,9.574705,0.008569217,0.004819727,-0.015238034,-0.05593808367848396,-0.02500104159116745,-0.09185853600502014,1017.4177,
2021.02.11 15:22:55,47.0,20.0,0.84,16.98,-27.24,0.13647367,0.40223816,9.735122,0.004904026,0.0017654005,-0.024401013,-0.041290704160928726,-0.014017773792147636,-0.06743719428777695,1017.4177,
2021.02.11 15:22:55,47.0,20.0,1.0799999,16.92,-27.119999,0.19154198,0.4932206,9.60583,0.012845274,-6.780604E-4,-0.0024098635,-0.051290735602378845,-0.019937537610530853,-0.08838271349668503,1017.42554,
2021.02.11 15:22:55,47.0,20.0,1.14,16.8,-27.0,0.12689656,0.43096948,9.648928,-0.0012046263,0.0017654005,-0.009129381,-0.04463149234652519,-0.01315060630440712,-0.08292197436094284,1017.42554,
2021.02.11 15:22:55,47.0,20.0,1.1999999,16.92,-27.18,0.17717634,0.48843205,9.785401,0.010401813,0.0158153,0.014083498,-0.04986480996012688,-0.01810421235859394,-0.09242761880159378,1017.417,
2021.02.11 15:22:55,47.0,20.0,1.26,16.859999,-27.48,0.17957062,0.51955765,9.763853,0.017732197,0.017647898,0.00736398,-0.053153250366449356,-0.018389295786619186,-0.09618370980024338,1017.4153,
2021.02.11 15:22:56,47.0,20.0,1.14,16.92,-27.359999,0.0071828244,0.37350687,9.562734,0.02750604,0.009095783,0.03057686,-0.03903873264789581,-7.511265575885773E-4,-0.06447555869817734,1017.4153,
2021.02.11 15:22:56,47.0,20.0,1.5,16.859999,-27.3,0.2370332,0.5794145,9.557945,0.01712133,0.010928379,0.04707022,-0.06052858382463455,-0.02479451522231102,-0.11724232137203217,1017.4158,
2021.02.11 15:22:56,47.0,20.0,1.5,16.8,-27.599998,0.2657645,0.6153286,9.735122,0.019564793,0.0127609745,0.00736398,-0.06309966742992401,-0.027292778715491295,-0.12114302814006805,1017.4158,
2021.02.11 15:22:56,47.0,20.0,1.5,17.22,-27.66,-0.22985038,0.48124924,8.456578,-0.003037222,-0.025723536,-5.7726767E-4,-0.05682601034641266,0.027173379436135292,-0.03983647748827934,1017.4165,
2021.02.11 15:22:56,47.0,20.0,1.8,16.92,-27.72,0.06943397,0.30886146,10.254679,-0.0042589526,-0.012895366,-0.00790765,-0.030109286308288574,-0.006770852021872997,-0.11153756082057953,1017.4187,
