Time,X-cord,Y-cord,Mag_x,Mag_y,Mag_z,Acc_x,Acc_y,Acc_z,Gyro_x,Gyro_y,Gyro_z,Orn_x,Orn_y,Orn_z,Pressure,
2021.02.11 15:21:17,45.0,19.0,8.88,-24.66,-25.56,0.21548474,0.65363705,9.957788,0.023840848,0.11477547,-0.06655071,-0.06553145498037338,-0.021636443212628365,-2.7516398429870605,1017.47266,
2021.02.11 15:21:17,45.0,19.0,8.94,-24.84,-25.08,0.2657645,0.7206767,9.37598,-0.018308854,-0.05687766,0.008585712,-0.07668262720108032,-0.028337661176919937,-2.742353916168213,1017.4685,
2021.02.11 15:21:17,45.0,19.0,8.76,-24.72,-25.08,0.16281068,0.41181526,9.742304,-0.057404228,-0.087420925,-0.01829236,-0.04223978519439697,-0.01671016588807106,-2.7713449001312256,1017.4685,
2021.02.11 15:21:17,45.0,19.0,8.639999,-24.9,-24.84,0.18914771,0.49082634,9.541185,-0.029915292,5.4367003E-4,0.037907243,-0.05138752609491348,-0.01982174441218376,-2.7724413871765137,1017.4695,
2021.02.11 15:21:17,45.0,19.0,8.639999,-24.779999,-24.72,0.38547826,0.58420306,9.478934,-0.04152173,-0.02389094,0.049513683,-0.06150316074490547,-0.04064444079995155,-2.7484378814697266,1017.4702,
2021.02.11 15:21:17,45.0,19.0,8.58,-24.539999,-24.66,0.24421602,0.51955765,9.708784,-0.048852116,-0.02755613,0.02019215,-0.05344631150364876,-0.025148827582597733,-2.764152765274048,1017.4702,
2021.02.11 15:21:17,45.0,19.0,8.76,-24.3,-24.3,0.3998439,0.51955765,9.73991,-0.03907827,-0.032443054,0.03851811,-0.05324789136648178,-0.041029077023267746,-2.740548849105835,1017.4675,
2021.02.11 15:21:17,45.0,19.0,8.94,-24.3,-24.96,0.35914123,0.4644893,9.881172,-0.029304428,-0.033053916,0.023246476,-0.046941980719566345,-0.03633002191781998,-2.739152431488037,1017.4675,
2021.02.11 15:21:17,45.0,19.0,9.48,-24.539999,-24.96,0.3902668,0.5506832,9.634562,0.011012679,-0.022058344,0.01897042,-0.0570482574403286,-0.040484827011823654,-2.7155942916870117,1017.46655,
2021.02.11 15:21:17,45.0,19.0,9.66,-24.539999,-25.619999,0.24421602,0.65124273,9.696813,0.01467787,-0.042827763,-0.008518515,-0.06703859567642212,-0.02517986297607422,-2.7169694900512695,1017.46533,
2021.02.11 15:21:17,45.0,19.0,9.3,-24.779999,-25.68,0.34956414,0.68715686,9.802161,0.010401813,-0.02389094,-0.00668592,-0.06994376331567764,-0.035646840929985046,-2.7230138778686523,1017.46533,
2021.02.11 15:21:17,45.0,19.0,9.54,-24.42,-25.619999,0.30167863,0.5794145,9.876384,0.026895177,-6.780604E-4,-0.014016303,-0.05857224389910698,-0.03053596056997776,-2.7182116508483887,1017.4646,
2021.02.11 15:21:17,45.0,19.0,9.179999,-24.24,-25.92,0.36392978,0.6464542,9.3831625,0.06476882,0.020091359,6.444628E-4,-0.06873492151498795,-0.03876597806811333,-2.715594530105591,1017.4646,
2021.02.11 15:21:17,45.0,19.0,9.12,-24.24,-25.26,0.31125572,0.6177229,9.9889145,0.004904026,0.01215011,-0.042116106,-0.06173230707645416,-0.031150037422776222,-2.7295050621032715,1017.46924,
2021.02.11 15:21:17,45.0,19.0,9.48,-24.06,-25.439999,0.38787252,0.80208206,9.692024,0.045831997,0.020091359,-0.026233608,-0.08250302076339722,-0.03999841585755348,-2.695159673690796,1017.47046,
2021.02.11 15:21:17,45.0,19.0,9.24,-24.119999,-25.38,0.29689008,0.65124273,9.771035,0.093479484,-0.016560556,-0.035396587,-0.0665212869644165,-0.030375365167856216,-2.7214527130126953,1017.47046,
2021.02.11 15:21:17,45.0,19.0,9.0,-24.24,-25.199999,0.27055305,0.64166564,9.617802,0.10752939,-0.0067867124,-0.011572842,-0.06659147143363953,-0.028123028576374054,-2.734802722930908,1017.47363,
2021.02.11 15:21:18,45.0,19.0,9.12,-24.539999,-25.08,0.18435916,0.67279124,9.445415,0.078818716,0.011539245,-0.006075055,-0.07109580934047699,-0.019515899941325188,-2.7413570880889893,1017.47363,
2021.02.11 15:21:18,45.0,19.0,9.3,-24.779999,-25.019999,0.22745611,0.723071,9.581888,0.068434015,-0.014117096,0.053178877,-0.07529837638139725,-0.023733673617243767,-2.7329885959625244,1017.4768,
2021.02.11 15:21:18,45.0,19.0,9.24,-24.96,-24.72,0.3304099,0.85954463,9.624985,0.03422556,0.0023762658,0.044626758,-0.08901505172252655,-0.03431488573551178,-2.723484754562378,1017.47314,
2021.02.11 15:21:18,45.0,19.0,9.599999,-24.9,-24.359999,0.20590763,0.74222517,9.208381,0.046442863,0.011539245,0.053178877,-0.08040933310985565,-0.022357167676091194,-2.724353551864624,1017.47314,
2021.02.11 15:21:18,45.0,19.0,9.78,-24.779999,-24.42,0.13647367,0.4860378,9.469357,0.0024605652,-0.0055649825,0.03668551,-0.05127711221575737,-0.0144111393019557,-2.7346136569976807,1017.4634,
2021.02.11 15:21:18,45.0,19.0,9.599999,-24.9,-24.24,0.19393626,0.5458947,9.390346,-0.046408653,0.005430592,0.09655031,-0.058055903762578964,-0.02064979262650013,-2.7351629734039307,1017.4634,
2021.02.11 15:21:18,45.0,19.0,9.719999,-24.84,-24.42,0.3519584,0.5698374,9.641745,-0.05129558,-0.020225748,0.1106002,-0.05899319797754288,-0.0364874005317688,-2.715759754180908,1017.4612,
2021.02.11 15:21:18,45.0,19.0,9.24,-25.14,-24.779999,0.6464542,0.79250497,9.696813,-0.050684713,0.0023762658,0.077002615,-0.08136734366416931,-0.06656816601753235,-2.701799154281616,1017.4592,
2021.02.11 15:21:18,45.0,19.0,8.94,-25.5,-25.019999,0.723071,0.8092649,9.871595,-0.045186926,-0.0122845005,0.029965993,-0.08157864958047867,-0.07311705499887466,-2.71173095703125,1017.4592,
2021.02.11 15:21:18,45.0,19.0,8.28,-25.5,-25.439999,0.6847626,0.6201172,9.735122,-0.00853501,0.009706649,-0.07876802,-0.06345665454864502,-0.07022374123334885,-2.7433741092681885,1017.4541,
2021.02.11 15:21:18,45.0,19.0,8.4,-25.619999,-25.5,0.36392978,0.45012367,9.665688,-0.0073132785,-0.01472796,-0.101980895,-0.04650271311402321,-0.03763394430279732,-2.7758376598358154,1017.4541,
2021.02.11 15:21:18,45.0,19.0,8.5199995,-25.5,-25.5,0.21309046,0.44533512,9.847652,-0.018308854,-0.012895366,-0.09159619,-0.045181114226579666,-0.021635331213474274,-2.7847838401794434,1017.4553,
2021.02.11 15:21:18,45.0,19.0,8.28,-24.779999,-25.74,0.14365649,0.45012367,9.737515,-0.032358754,0.03780645,-0.065328985,-0.04618781805038452,-0.014751818962395191,-2.7895445823669434,1017.45996,
2021.02.11 15:21:18,45.0,19.0,9.059999,-24.72,-25.019999,0.3974496,0.6703969,9.933846,-0.04579779,0.05613241,-0.025011877,-0.0673302561044693,-0.039988309144973755,-2.729630708694458,1017.45996,
2021.02.11 15:21:18,45.0,19.0,9.12,-24.539999,-24.84,0.600963,0.7996878,9.993703,-0.011589335,0.030476067,-0.014627169,-0.07970566302537918,-0.06006183847784996,-2.702056884765625,1017.458,
2021.02.11 15:21:18,45.0,19.0,9.54,-24.0,-24.96,0.47167215,0.63208854,9.780613,0.01712133,-0.017782288,-0.061052926,-0.06446222215890884,-0.04818788170814514,-2.6943695545196533,1017.458,
2021.02.11 15:21:18,45.0,19.0,9.719999,-24.3,-24.42,0.30646718,0.48843205,9.857229,-0.0018154916,-0.017171424,-0.06899418,-0.049486275762319565,-0.031080588698387146,-2.7155308723449707,1017.4634,
2021.02.11 15:21:19,45.0,19.0,9.54,-24.119999,-24.72,0.1340794,0.6703969,9.5483675,0.05316238,0.008484919,-0.047613893,-0.0700887143611908,-0.014041204936802387,-2.7249531745910645,1017.4658,
2021.02.11 15:21:19,45.0,19.0,9.54,-23.88,-24.84,0.21069619,0.90024734,8.844451,0.043388538,0.025589146,-0.037229184,-0.10140875726938248,-0.023817911744117737,-2.6970951557159424,1017.4658,
2021.02.11 15:21:19,45.0,19.0,9.66,-24.18,-24.66,0.06943397,0.5602603,9.778218,-0.038467407,-0.048936415,-0.047613893,-0.057232748717069626,-0.0071007623337209225,-2.7332940101623535,1017.46436,
2021.02.11 15:21:19,45.0,19.0,9.78,-24.3,-24.96,-0.05506832,0.32083282,9.677659,-0.02258491,-0.028166996,3.359759E-5,-0.03313922882080078,0.005690190941095352,-2.7517619132995605,1017.46436,
2021.02.11 15:21:19,45.0,19.0,9.48,-24.42,-24.96,0.15083931,0.42378664,8.992896,-0.046408653,-0.0049541174,0.084333,-0.04708315432071686,-0.01677159033715725,-2.7387635707855225,1017.4646,
2021.02.11 15:21:19,45.0,19.0,9.42,-24.539999,-24.72,0.24182175,0.7996878,9.768641,-0.10627344,-0.031221323,0.09105252,-0.08165571093559265,-0.024749845266342163,-2.7216615676879883,1017.46875,
2021.02.11 15:21:19,45.0,19.0,9.179999,-24.42,-24.66,0.17238778,0.77574503,10.106234,-0.07389759,0.01703703,0.04707022,-0.07659774273633957,-0.017055915668606758,-2.7379157543182373,1017.46875,
2021.02.11 15:21:19,45.0,19.0,9.24,-24.06,-24.779999,0.48124924,0.61293435,9.646533,-0.010367605,0.02864347,0.06845051,-0.06337543576955795,-0.04984698444604874,-2.7058565616607666,1017.4761,
2021.02.11 15:21:19,45.0,19.0,9.24,-23.88,-24.6,0.52674043,0.6656084,9.186832,-0.040910866,-0.008008444,0.029965993,-0.07220789045095444,-0.057273752987384796,-2.692871332168579,1017.4761,
2021.02.11 15:21:19,45.0,19.0,8.82,-24.119999,-25.08,0.20351335,0.6201172,9.98652,-0.07634105,-0.047714684,-0.0011881329,-0.06200295686721802,-0.020375985652208328,-2.7490265369415283,1017.4717,
2021.02.11 15:21:19,45.0,19.0,8.82,-24.3,-25.14,0.16759923,0.5123748,9.900327,-0.021974044,-0.014117096,0.009196576,-0.05169979855418205,-0.016927039250731468,-2.759071111679077,1017.46484,
2021.02.11 15:21:19,45.0,19.0,8.88,-24.48,-25.26,0.34956414,0.4189981,9.464568,0.01712133,-0.018393151,0.03302032,-0.04421118646860123,-0.036917198449373245,-2.7440664768218994,1017.46484,
2021.02.11 15:21:19,45.0,19.0,8.88,-24.48,-25.56,0.19154198,0.4836435,9.816526,-0.03541308,-0.0684841,0.061120123,-0.04921913519501686,-0.01950971968472004,-2.7575128078460693,1017.468,
2021.02.11 15:21:19,45.0,19.0,9.36,-24.359999,-25.019999,0.44294083,0.6368771,9.763853,-0.0012046263,-0.0031215216,0.084333,-0.0650690495967865,-0.04533429071307182,-2.7091000080108643,1017.468,
2021.02.11 15:21:19,45.0,19.0,9.24,-24.359999,-25.199999,0.62251145,0.65124273,9.4095,-0.020752314,0.005430592,0.039128974,-0.06895074248313904,-0.06606148928403854,-2.6930038928985596,1017.4629,
2021.02.11 15:21:19,45.0,19.0,9.3,-24.18,-25.26,0.4740664,0.44533512,9.742304,-0.06717807,0.004819727,-0.029287932,-0.04562577232718468,-0.0486222542822361,-2.713132858276367,1017.469,
2021.02.11 15:21:20,45.0,19.0,9.36,-24.24,-25.38,0.2944958,0.5027977,9.871595,-0.028693562,-0.0018997908,0.009807441,-0.050867218524217606,-0.029823798686265945,-2.7262768745422363,1017.469,
2021.02.11 15:21:20,45.0,19.0,9.36,-24.119999,-26.039999,0.3040729,0.4860378,9.598648,0.005514892,-0.017171424,0.0024770587,-0.05056753009557724,-0.031668130308389664,-2.7214810848236084,1017.46606,
2021.02.11 15:21:20,45.0,19.0,9.179999,-23.76,-26.22,0.31843856,0.3519584,9.804555,0.0012388347,0.007263188,0.0049205194,-0.03586313873529434,-0.03246722370386124,-2.7275500297546387,1017.46606,
2021.02.11 15:21:20,45.0,19.0,9.24,-24.0,-26.34,0.57462597,0.55307746,9.617802,0.021397388,-0.0025106561,0.0061422503,-0.057340312749147415,-0.05967514589428902,-2.6940178871154785,1017.46387,
2021.02.11 15:21:20,45.0,19.0,9.059999,-24.18,-26.46,0.54350036,0.52674043,9.569917,0.039723348,-0.0122845005,-0.006075055,-0.05489751324057579,-0.05673164874315262,-2.7070627212524414,1017.47,
2021.02.11 15:21:20,45.0,19.0,8.82,-24.24,-26.16,0.46927786,0.46209505,9.888355,0.01712133,-0.033053916,-0.045781296,-0.04664483666419983,-0.04742204397916794,-2.7298665046691895,1017.47,
2021.02.11 15:21:20,45.0,19.0,9.059999,-24.42,-26.22,0.44772938,0.4836435,9.466963,0.03422556,0.015204436,-0.04639216,-0.050986237823963165,-0.047258663922548294,-2.722179889678955,1017.47217,
2021.02.11 15:21:20,45.0,19.0,9.0,-24.3,-26.099998,0.37111259,0.4668836,9.531608,-0.0060915486,0.007874053,-0.04517043,-0.04890655353665352,-0.03891528397798538,-2.731358051300049,1017.47217,
2021.02.11 15:21:20,45.0,19.0,9.179999,-24.06,-25.92,0.38787252,0.51955765,9.696813,-0.0024263568,-0.009230174,-0.03600745,-0.05348637327551842,-0.03997868672013283,-2.7183218002319336,1017.4712,
2021.02.11 15:21:20,45.0,19.0,9.42,-24.24,-25.68,0.4285752,0.5411061,9.751882,0.0061257565,0.009706649,-0.037840046,-0.05537716671824455,-0.04391968622803688,-2.708726406097412,1017.4695,
2021.02.11 15:21:20,45.0,19.0,9.599999,-24.42,-25.26,0.3974496,0.51716334,9.62259,0.012845274,0.006652322,-0.035396587,-0.05364740267395973,-0.041280340403318405,-2.709380865097046,1017.4695,
2021.02.11 15:21:20,45.0,19.0,9.48,-24.3,-25.019999,0.38308397,0.5243462,9.6585045,-0.010367605,-6.719518E-5,-0.027455337,-0.05419277399778366,-0.0396420881152153,-2.713477849960327,1017.4702,
2021.02.11 15:21:20,45.0,19.0,9.48,-24.48,-24.779999,0.36392978,0.59378016,9.624985,-0.0012046263,0.005430592,-0.026233608,-0.061569567769765854,-0.03779294341802597,-2.7154757976531982,1017.4702,
2021.02.11 15:21:20,45.0,19.0,9.3,-24.24,-25.32,0.33519846,0.5411061,9.763853,0.004904026,0.0023762658,-0.027455337,-0.05533016100525856,-0.034317076206207275,-2.7226171493530273,1017.4636,
2021.02.11 15:21:20,45.0,19.0,9.12,-24.3,-25.32,0.40223816,0.5411061,9.675264,0.023840848,-0.0055649825,-0.016459765,-0.05582043156027794,-0.041549939662218094,-2.723419666290283,1017.4678,
2021.02.11 15:21:20,45.0,19.0,9.66,-24.24,-25.32,0.29928434,0.56265455,9.620196,-0.0024263568,-6.780604E-4,-0.021957552,-0.05839206650853157,-0.031099971383810043,-2.7110862731933594,1017.4678,
2021.02.11 15:21:20,45.0,19.0,9.42,-24.119999,-25.56,0.2849187,0.4740664,9.749487,-0.0012046263,0.0035979962,-0.017070629,-0.048565782606601715,-0.029215652495622635,-2.7233469486236572,1017.4663,
2021.02.11 15:21:21,45.0,19.0,9.54,-23.939999,-25.5,0.38787252,0.58420306,9.553157,0.009180083,0.0023762658,0.0043096542,-0.061026666313409805,-0.040579214692115784,-2.7002182006835938,1017.4663,
2021.02.11 15:21:21,45.0,19.0,9.599999,-23.76,-25.439999,0.3040729,0.5027977,9.696813,-0.0018154916,-0.0055649825,-0.003631594,-0.05178004875779152,-0.03134775161743164,-2.7076640129089355,1017.4641,
2021.02.11 15:21:21,45.0,19.0,8.94,-23.76,-25.38,0.32562137,0.5411061,9.646533,0.0067366217,-0.0067867124,0.017137825,-0.056002773344516754,-0.03374246135354042,-2.7281970977783203,1017.46387,
2021.02.11 15:21:21,45.0,19.0,9.3,-23.82,-25.26,0.35435268,0.531529,9.703996,0.004293161,-0.011673635,0.022635613,-0.05468319356441498,-0.03649994358420372,-2.7141079902648926,1017.46387,
2021.02.11 15:21:21,45.0,19.0,9.179999,-24.0,-24.9,0.34716985,0.5363176,9.656111,-0.007924144,-0.0049541174,0.021413881,-0.05544901639223099,-0.03593790531158447,-2.7225091457366943,1017.4763,
2021.02.11 15:21:21,45.0,19.0,9.179999,-24.3,-25.019999,0.34716985,0.58420306,9.61062,-0.0048698178,0.0023762658,0.023857342,-0.0606730617582798,-0.0361078642308712,-2.7247631549835205,1017.4763,
2021.02.11 15:21:21,45.0,19.0,9.24,-24.779999,-25.14,0.31843856,0.48124924,9.799767,-0.005480683,-0.0037323865,0.021413881,-0.049042973667383194,-0.03248307853937149,-2.7379226684570312,1017.4712,
2021.02.11 15:21:21,45.0,19.0,9.3,-24.6,-25.26,0.40463245,0.5913859,9.486116,0.012845274,0.0035979962,0.035463784,-0.06220526248216629,-0.04262938350439072,-2.7182199954986572,1017.4717,
2021.02.11 15:21:21,45.0,19.0,9.36,-24.3,-25.38,0.3519584,0.50040346,9.75667,-0.014032797,-0.0067867124,0.013472633,-0.0512101948261261,-0.036057982593774796,-2.7214672565460205,1017.4717,
2021.02.11 15:21:21,45.0,19.0,9.12,-24.359999,-25.859999,0.42378664,0.56265455,9.651321,-0.0012046263,0.002987131,0.019581286,-0.058176346123218536,-0.04388151317834854,-2.719916343688965,1017.4729,
2021.02.11 15:21:21,45.0,19.0,9.0,-23.939999,-26.279999,0.38547826,0.54828894,9.531608,0.004293161,0.0042088614,0.0061422503,-0.05741308256983757,-0.04042007774114609,-2.719926595687866,1017.4729,
2021.02.11 15:21:21,45.0,19.0,8.88,-24.24,-25.92,0.31843856,0.4932206,9.763853,-0.007924144,0.0017654005,0.0018661933,-0.05044527351856232,-0.032602474093437195,-2.7404515743255615,1017.4756,
2021.02.11 15:21:21,45.0,19.0,8.76,-24.359999,-26.22,0.41181526,0.56265455,9.701602,-0.0018154916,-0.0037323865,0.0024770587,-0.05787914618849754,-0.04242270067334175,-2.733675956726074,1017.47534,
2021.02.11 15:21:21,45.0,19.0,9.12,-23.88,-25.68,0.4189981,0.52674043,9.620196,-0.0036480871,-0.0031215216,-0.011572842,-0.05464727804064751,-0.04352649673819542,-2.7143185138702393,1017.47534,
2021.02.11 15:21:21,45.0,19.0,9.36,-24.119999,-25.019999,0.33519846,0.5027977,9.6896305,-0.0042589526,-0.009230174,-0.017681494,-0.051812853664159775,-0.03457973524928093,-2.7203736305236816,1017.47095,
2021.02.11 15:21:21,45.0,19.0,9.3,-23.939999,-25.56,0.34477556,0.57223165,9.617802,6.2796945E-4,-0.0012889256,-0.012794573,-0.05938902497291565,-0.03583230450749397,-2.713958263397217,1017.47095,
2021.02.11 15:21:21,45.0,19.0,9.48,-23.699999,-25.199999,0.3304099,0.4956149,9.727939,-0.005480683,-0.009841039,-0.010351111,-0.05087427794933319,-0.03395199775695801,-2.7095818519592285,1017.4673,
2021.02.11 15:21:22,45.0,19.0,9.3,-24.18,-25.08,0.37590113,0.53392327,9.620196,0.0036822958,-0.007397578,0.0018661933,-0.05540117621421814,-0.03905429691076279,-2.7178902626037598,1017.4573,
2021.02.11 15:21:22,45.0,19.0,9.059999,-24.0,-24.96,0.4285752,0.57223165,9.615408,-0.015865391,0.0017654005,-0.0024098635,-0.05938302353024483,-0.044542234390974045,-2.717386245727539,1017.4573,
2021.02.11 15:21:22,45.0,19.0,9.3,-23.82,-24.779999,0.30646718,0.4740664,9.73991,-0.006702414,0.004819727,-0.006075055,-0.04861016198992729,-0.03145471215248108,-2.72229266166687,1017.4592,
2021.02.11 15:21:22,45.0,19.0,8.82,-24.3,-24.6,0.4070267,0.53871185,9.732727,1.7104227E-5,-0.0104519045,0.005531385,-0.05524594336748123,-0.041796062141656876,-2.736159086227417,1017.4592,
2021.02.11 15:21:22,45.0,19.0,8.94,-23.939999,-24.9,0.36871833,0.4932206,9.608225,-0.006702414,-0.009230174,-0.0042424593,-0.05125048756599426,-0.03835646063089371,-2.7299888134002686,1017.46313,
2021.02.11 15:21:22,45.0,19.0,9.059999,-24.0,-25.14,0.3423813,0.5147691,9.5794935,-0.011589335,0.002987131,-0.006075055,-0.053650736808776855,-0.03572585806250572,-2.7273621559143066,1017.4646,
2021.02.11 15:21:22,45.0,19.0,8.82,-23.64,-25.019999,0.38787252,0.49082634,9.818921,-0.009756739,-0.0031215216,-0.00668592,-0.0499073751270771,-0.039482034742832184,-2.728839635848999,1017.4646,
2021.02.11 15:21:22,45.0,19.0,9.059999,-23.58,-25.56,0.45251793,0.53871185,9.629773,0.0036822958,0.0023762658,3.359759E-5,-0.055822595953941345,-0.046957001090049744,-2.708061695098877,1017.4646,
2021.02.11 15:21:22,45.0,19.0,8.94,-23.58,-25.199999,0.38547826,0.45730647,9.632168,-0.0018154916,0.0035979962,-0.013405438,-0.0474034920334816,-0.03999854251742363,-2.7235517501831055,1017.4646,
2021.02.11 15:21:22,45.0,19.0,8.82,-23.82,-24.96,0.31365,0.4644893,9.684841,-0.01097847,0.0035979962,-0.017681494,-0.04789865389466286,-0.03237434849143028,-2.7392258644104004,1017.46045,
2021.02.11 15:21:22,45.0,19.0,8.58,-23.939999,-24.96,0.34956414,0.42378664,9.747093,-0.014032797,-0.0086193085,-0.0048533245,-0.043423015624284744,-0.03584806248545647,-2.74870228767395,1017.45703,
2021.02.11 15:21:22,45.0,19.0,8.88,-23.76,-24.42,0.44294083,0.5027977,9.567522,1.7104227E-5,0.0017654005,0.0030879239,-0.05244817957282066,-0.04626326262950897,-2.72287917137146,1017.45703,
2021.02.11 15:21:22,45.0,19.0,9.0,-24.0,-24.84,0.37590113,0.4764607,9.663293,-0.014643662,-0.0043432517,-0.018903226,-0.049229178577661514,-0.03888029605150223,-2.7292447090148926,1017.45776,
2021.02.11 15:21:22,45.0,19.0,9.059999,-23.76,-25.019999,0.32083282,0.45012367,9.778218,-0.006702414,-0.0049541174,-0.014627169,-0.045976120978593826,-0.03279920294880867,-2.729611396789551,1017.45776,
2021.02.11 15:21:22,45.0,19.0,9.599999,-23.939999,-24.9,0.3519584,0.48124924,9.613013,-0.00853501,0.015204436,-0.003631594,-0.0499870702624321,-0.03659635782241821,-2.707916259765625,1017.46265,
2021.02.11 15:21:22,45.0,19.0,9.36,-23.88,-25.32,0.33759275,0.44054657,9.759064,-0.0042589526,-0.0061758477,-0.0017989981,-0.045084740966558456,-0.034578949213027954,-2.7186896800994873,1017.4592,
2021.02.11 15:21:23,45.0,19.0,8.88,-23.58,-25.019999,0.31365,0.5458947,9.799767,0.020786522,0.006652322,0.0061422503,-0.05561893433332443,-0.03199494630098343,-2.730060338973999,1017.4592,
2021.02.11 15:21:23,45.0,19.0,8.88,-23.46,-25.019999,0.29210153,0.4860378,9.507666,0.022619117,0.029254338,-5.7726767E-4,-0.051052115857601166,-0.030713077634572983,-2.731229066848755,1017.4595,
2021.02.11 15:21:23,45.0,19.0,8.82,-23.699999,-25.26,0.28252444,0.42378664,9.763853,-0.017087122,-0.0018997908,-5.7726767E-4,-0.04335827752947807,-0.02892768196761608,-2.7418110370635986,1017.4595,
2021.02.11 15:21:23,45.0,19.0,8.88,-23.76,-25.26,0.43336374,0.57223165,9.653716,0.004293161,-0.0086193085,0.01897042,-0.05914708226919174,-0.044860754162073135,-2.719066619873047,1017.469,
2021.02.11 15:21:23,45.0,19.0,9.48,-24.06,-25.26,0.37111259,0.50998056,9.536397,0.0067366217,-0.0086193085,6.444628E-4,-0.053386054933071136,-0.03889575973153114,-2.7099533081054688,1017.46826,
2021.02.11 15:21:23,45.0,19.0,9.599999,-23.939999,-25.5,0.31365,0.5123748,9.727939,-0.019530585,0.004819727,-0.006075055,-0.052594538778066635,-0.03223102167248726,-2.7094151973724365,1017.46826,
2021.02.11 15:21:23,45.0,19.0,9.48,-23.82,-25.439999,0.34716985,0.531529,9.608225,-0.0073132785,0.005430592,-0.00668592,-0.055227912962436676,-0.03611685708165169,-2.7071869373321533,1017.46826,
2021.02.11 15:21:23,45.0,19.0,9.36,-24.119999,-25.08,0.3232271,0.4764607,9.715967,-0.0042589526,-0.007397578,-0.0048533245,-0.048972632735967636,-0.033255357295274734,-2.722632884979248,1017.46826,
2021.02.11 15:21:23,45.0,19.0,9.42,-23.82,-25.26,0.3423813,0.5961744,9.708784,-0.015865391,0.044525966,-5.7726767E-4,-0.06129066273570061,-0.035250499844551086,-2.707871437072754,1017.4707,
2021.02.11 15:21:23,45.0,19.0,9.84,-24.24,-24.84,0.21787901,0.4932206,10.237919,0.122190155,0.21862257,-0.014016303,-0.04812776297330856,-0.02127835899591446,-2.718593120574951,1017.4734,
2021.02.11 15:21:23,45.0,19.0,10.08,-24.42,-24.72,0.3423813,0.8092649,8.684034,0.106307656,0.13432316,0.0049205194,-0.09284987300634384,-0.03940611705183983,-2.6773898601531982,1017.4734,
2021.02.11 15:21:23,45.0,19.0,10.5,-24.24,-24.9,0.15562786,0.42618093,9.608225,-0.056793362,-0.03671911,-0.049446486,-0.04432098567485809,-0.01619594171643257,-2.70098614692688,1017.469,
2021.02.11 15:21:23,45.0,19.0,10.139999,-24.539999,-24.72,0.076616794,0.49800915,10.024829,-0.014032797,-0.033053916,0.0024770587,-0.04963532090187073,-0.007642555050551891,-2.7241299152374268,1017.469,
2021.02.11 15:21:23,45.0,19.0,9.9,-24.539999,-24.6,0.38547826,0.82602483,9.668081,0.034836423,0.07506923,-0.0054641897,-0.08516401797533035,-0.03985011950135231,-2.6896114349365234,1017.4651,
2021.02.11 15:21:23,45.0,19.0,10.08,-24.48,-24.6,0.4836435,0.48843205,9.876384,-0.0861149,-0.20776138,-0.0048533245,-0.04935523867607117,-0.04893060773611069,-2.6904025077819824,1017.4617,
2021.02.11 15:21:23,45.0,19.0,9.719999,-24.359999,-24.779999,0.0071828244,0.4764607,10.6641,0.081873044,0.198464,-0.071437635,-0.044649239629507065,-6.735518109053373E-4,-2.7446930408477783,1017.4617,
