Time,X-cord,Y-cord,Mag_x,Mag_y,Mag_z,Acc_x,Acc_y,Acc_z,Gyro_x,Gyro_y,Gyro_z,Orn_x,Orn_y,Orn_z,Pressure,
2021.02.11 15:28:14,67.0,24.0,25.38,7.3799996,-19.439999,-0.50758624,0.33519846,9.6585045,0.03544729,0.11538634,-0.0042424593,-0.03464331477880478,0.052504993975162506,-1.2495696544647217,1017.3428,
2021.02.11 15:28:14,67.0,24.0,25.8,7.3199997,-19.56,-0.06943397,0.22985038,9.567522,-0.05984769,-0.0984165,0.0421833,-0.024018770083785057,0.007257130462676287,-1.2759488821029663,1017.3428,
2021.02.11 15:28:14,67.0,24.0,27.24,7.2599998,-19.38,0.05027977,0.30167863,9.720756,-0.09161269,-0.056266796,0.04340503,-0.031024111434817314,-0.005172367673367262,-1.2910808324813843,1017.33984,
2021.02.11 15:28:14,67.0,24.0,27.66,6.8399997,-19.199999,-0.062251143,0.28970724,9.70639,-0.05557163,-0.05321247,0.026300803,-0.029837591573596,0.00641333032399416,-1.3077536821365356,1017.33984,
2021.02.11 15:28:14,67.0,24.0,27.66,6.66,-19.14,-0.12929083,0.12689656,9.675264,-0.04579779,-0.03549738,0.023857342,-0.01311364397406578,0.013362233527004719,-1.3235933780670166,1017.3467,
2021.02.11 15:28:14,67.0,24.0,28.019999,7.08,-18.96,0.105348095,0.22985038,9.644139,-0.028693562,-0.011673635,0.05378974,-0.02382723242044449,-0.010923100635409355,-1.310339093208313,1017.3496,
2021.02.11 15:28:14,67.0,24.0,27.24,6.8399997,-19.439999,0.098165266,0.23224466,9.648928,-0.017697988,-0.019614883,0.03057686,-0.024063585326075554,-0.010173345915973186,-1.3107821941375732,1017.3496,
2021.02.11 15:28:14,67.0,24.0,27.48,7.2,-19.439999,0.09577099,0.17238778,9.759064,-0.012811066,-0.017171424,0.0043096542,-0.017661690711975098,-0.009813227690756321,-1.3048399686813354,1017.3496,
2021.02.11 15:28:14,67.0,24.0,27.96,7.3199997,-19.5,0.102953814,0.19393626,9.5483675,0.005514892,-0.0086193085,0.00736398,-0.020306959748268127,-0.010781928896903992,-1.3036868572235107,1017.3496,
2021.02.11 15:28:14,67.0,24.0,27.24,6.8999996,-19.56,0.045491222,0.20590763,9.615408,-0.009756739,-0.0067867124,-0.0024098635,-0.021410830318927765,-0.004731040447950363,-1.309312105178833,1017.3513,
2021.02.11 15:28:14,67.0,24.0,26.939999,6.96,-19.02,-0.009577099,0.15083931,9.754275,-0.014643662,-0.0061758477,-0.003631594,-0.015462677925825119,9.818357648327947E-4,-1.3076069355010986,1017.35425,
2021.02.11 15:28:14,67.0,24.0,27.06,6.8999996,-19.199999,0.117319465,0.20351335,9.624985,-0.0012046263,-0.01472796,0.023246476,-0.021139556542038918,-0.012188451364636421,-1.309529185295105,1017.35425,
2021.02.11 15:28:14,67.0,24.0,27.06,6.8399997,-19.02,0.076616794,0.22506183,9.840469,-0.010367605,-0.015949693,0.014694364,-0.022866368293762207,-0.00778573052957654,-1.3097481727600098,1017.3467,
2021.02.11 15:28:15,67.0,24.0,27.3,6.96,-18.9,0.09337672,0.21309046,9.500483,0.020786522,-0.0104519045,0.009807441,-0.022424593567848206,-0.009828312322497368,-1.3086042404174805,1017.3467,
2021.02.11 15:28:15,67.0,24.0,27.539999,7.14,-18.72,0.009577099,0.14605077,9.945818,-0.0073132785,-0.020836612,0.0030879239,-0.014683579094707966,-9.629270061850548E-4,-1.307996392250061,1017.35254,
2021.02.11 15:28:15,67.0,24.0,27.119999,6.7799997,-19.08,0.16041641,0.23942748,9.581888,0.037279885,-0.01106277,0.028744265,-0.02497880719602108,-0.016740065068006516,-1.312684178352356,1017.3447,
2021.02.11 15:28:15,67.0,24.0,26.88,6.96,-19.619999,0.0023942748,0.11253092,9.675264,-0.005480683,-0.0037323865,0.00736398,-0.011630259454250336,-2.4746349663473666E-4,-1.3095571994781494,1017.3447,
2021.02.11 15:28:15,67.0,24.0,27.0,6.54,-19.859999,0.11492519,0.26337022,9.775824,0.011623544,-0.01106277,0.029965993,-0.026932599022984505,-0.011755520477890968,-1.316990852355957,1017.34155,
2021.02.11 15:28:15,67.0,24.0,26.939999,6.6,-20.46,0.062251143,0.21069619,9.682447,0.030560365,-0.02144748,0.010418306,-0.021756749600172043,-0.006429188884794712,-1.3163827657699585,1017.34155,
2021.02.11 15:28:15,67.0,24.0,27.119999,6.7799997,-20.34,0.035914123,0.24421602,9.550762,0.022619117,0.0035979962,0.0030879239,-0.025564568117260933,-0.003760323394089937,-1.3087267875671387,1017.3362,
2021.02.11 15:28:15,67.0,24.0,27.119999,6.8999996,-20.46,0.05985687,0.15323359,9.58907,0.010401813,-0.008008444,0.009807441,-0.01597835309803486,-0.0062421164475381374,-1.3116543292999268,1017.3379,
2021.02.11 15:28:15,67.0,24.0,26.939999,7.08,-20.64,0.12929083,0.27055305,9.687236,0.010401813,-0.0122845005,0.011640037,-0.027919074520468712,-0.013345722109079361,-1.2969810962677002,1017.3379,
2021.02.11 15:28:15,67.0,24.0,26.58,7.02,-20.34,0.07901107,0.23463893,9.708784,-0.0024263568,-0.007397578,-0.014627169,-0.024162190034985542,-0.008137921802699566,-1.2972462177276611,1017.3335,
2021.02.11 15:28:15,67.0,24.0,26.4,6.7799997,-20.16,-0.026337024,0.18914771,9.811738,0.0018497,-0.016560556,-0.0024098635,-0.01927524246275425,0.00268422975204885,-1.3051289319992065,1017.3335,
2021.02.11 15:28:15,67.0,24.0,26.34,6.24,-19.859999,0.11013664,0.24421602,9.42626,-0.0018154916,0.002987131,0.019581286,-0.02590049058198929,-0.011683491989970207,-1.3222194910049438,1017.3408,
2021.02.11 15:28:15,67.0,24.0,26.58,6.54,-19.439999,0.102953814,0.25139886,9.783007,-0.017697988,-0.0018997908,0.010418306,-0.025690428912639618,-0.010523350909352303,-1.3141077756881714,1017.3479,
2021.02.11 15:28:15,67.0,24.0,26.88,6.42,-19.68,0.07422252,0.2466103,9.596253,-0.00853501,0.0127609745,0.014083498,-0.025692177936434746,-0.007734376937150955,-1.3202462196350098,1017.3479,
2021.02.11 15:28:15,67.0,24.0,26.88,6.42,-19.98,0.057462595,0.20590763,9.816526,-0.014032797,0.0011545353,0.013472633,-0.020972175523638725,-0.005853591952472925,-1.322851300239563,1017.3469,
2021.02.11 15:28:15,67.0,24.0,26.64,6.42,-19.92,0.16520496,0.25379312,9.670476,-0.016476257,0.0011545353,0.008585712,-0.026234271004796028,-0.01708177477121353,-1.3194010257720947,1017.3469,
2021.02.11 15:28:15,67.0,24.0,26.34,6.3599997,-20.16,0.12689656,0.2561874,9.61062,-0.007924144,0.007874053,0.00736398,-0.02664806693792343,-0.01320301927626133,-1.3175346851348877,1017.3445,
2021.02.11 15:28:16,67.0,24.0,25.8,6.48,-20.1,0.03351985,0.22985038,9.732727,-0.007924144,-0.0012889256,-0.003631594,-0.023611707612872124,-0.0034440208692103624,-1.3083100318908691,1017.3452,
2021.02.11 15:28:16,67.0,24.0,26.279999,6.66,-19.74,0.038308397,0.17957062,9.840469,-0.009756739,0.0017654005,-0.0024098635,-0.018246013671159744,-0.003892924403771758,-1.3105928897857666,1017.3452,
2021.02.11 15:28:16,67.0,24.0,26.46,6.48,-19.92,0.15562786,0.25379312,9.586677,-0.010367605,-6.719518E-5,0.0024770587,-0.026463856920599937,-0.016232339665293694,-1.315356969833374,1017.344,
2021.02.11 15:28:16,67.0,24.0,26.279999,6.2999997,-20.1,0.043096945,0.24182175,9.79019,-0.009756739,-0.011673635,-0.010351111,-0.024695154279470444,-0.004402025602757931,-1.3187100887298584,1017.344,
2021.02.11 15:28:16,67.0,24.0,26.46,6.0,-19.8,0.062251143,0.20111908,9.768641,0.01467787,-0.0061758477,-0.003631594,-0.02058490738272667,-0.006372462492436171,-1.3344601392745972,1017.34326,
2021.02.11 15:28:16,67.0,24.0,26.099998,5.7599998,-19.74,0.08619389,0.22027329,9.701602,0.0018497,0.007874053,-0.0048533245,-0.02270004153251648,-0.008884267881512642,-1.3390170335769653,1017.355,
2021.02.11 15:28:16,67.0,24.0,26.46,5.94,-19.74,0.023942748,0.15323359,9.596253,0.0067366217,0.013982705,-0.00790765,-0.015966657549142838,-0.0024950047954916954,-1.3391371965408325,1017.355,
2021.02.11 15:28:16,67.0,24.0,26.64,6.0,-19.56,0.047885496,0.117319465,9.8787775,0.004293161,-0.009230174,0.0049205194,-0.0118752121925354,-0.004847272299230099,-1.3418388366699219,1017.36084,
2021.02.11 15:28:16,67.0,24.0,27.0,6.24,-19.56,0.090982445,0.22266756,9.651321,0.0061257565,0.002987131,0.003698789,-0.02306608110666275,-0.0094266626983881,-1.3297066688537598,1017.36084,
2021.02.11 15:28:16,67.0,24.0,27.0,6.24,-19.859999,0.08140534,0.18435916,9.5483675,-0.003037222,0.004819727,6.444628E-4,-0.019304824993014336,-0.008525370620191097,-1.3318660259246826,1017.3611,
2021.02.11 15:28:16,67.0,24.0,26.519999,6.18,-19.68,0.03351985,0.18196489,9.747093,-0.01097847,0.0017654005,0.0030879239,-0.018666353076696396,-0.0034389449283480644,-1.329443335533142,1017.3589,
2021.02.11 15:28:16,67.0,24.0,26.58,6.18,-19.619999,0.021548472,0.2370332,9.608225,-0.0042589526,0.002987131,0.0049205194,-0.024664757773280144,-0.0022427074145525694,-1.3256572484970093,1017.3589,
2021.02.11 15:28:16,67.0,24.0,26.22,6.18,-19.74,0.057462595,0.21548474,9.742304,-0.013421931,-0.0055649825,0.014694364,-0.0221144687384367,-0.0058981869369745255,-1.324832558631897,1017.3506,
2021.02.11 15:28:16,67.0,24.0,26.039999,6.42,-19.439999,0.06943397,0.24182175,9.560339,-0.0060915486,-0.0025106561,0.018359555,-0.025288205593824387,-0.007262582425028086,-1.312933325767517,1017.3506,
2021.02.11 15:28:16,67.0,24.0,26.279999,6.54,-19.32,0.052674048,0.1987248,9.703996,-0.015254527,-0.008008444,0.016526958,-0.020475493744015694,-0.005428025033324957,-1.3138988018035889,1017.3511,
2021.02.11 15:28:16,67.0,24.0,26.58,6.7799997,-19.32,0.06464542,0.22506183,9.8237095,-0.014032797,-0.0037323865,0.015916094,-0.022905562072992325,-0.006580456160008907,-1.3068774938583374,1017.33716,
2021.02.11 15:28:16,67.0,24.0,26.82,6.8399997,-19.38,0.15323359,0.25858167,9.562734,0.004293161,5.4367003E-4,0.019581286,-0.027030503377318382,-0.016022663563489914,-1.3062154054641724,1017.33716,
2021.02.11 15:28:17,67.0,24.0,26.4,6.6,-19.68,0.10774237,0.19393626,9.79019,0.012234409,-0.0018997908,0.013472633,-0.019805455580353737,-0.011004691943526268,-1.3142199516296387,1017.33496,
2021.02.11 15:28:17,67.0,24.0,26.099998,6.54,-19.98,0.16041641,0.22985038,9.598648,0.009180083,-0.0025106561,6.444628E-4,-0.023938201367855072,-0.016710840165615082,-1.3116850852966309,1017.33496,
2021.02.11 15:28:17,67.0,24.0,25.619999,6.3599997,-19.98,0.057462595,0.16281068,9.749487,0.009180083,-0.0037323865,-0.009740246,-0.01669756881892681,-0.00589384138584137,-1.3164833784103394,1017.3423,
2021.02.11 15:28:17,67.0,24.0,25.26,6.24,-20.4,0.11492519,0.20351335,9.514848,1.7104227E-5,0.002987131,-0.009129381,-0.021384209394454956,-0.01207792293280363,-1.3150683641433716,1017.34326,
2021.02.11 15:28:17,67.0,24.0,25.619999,6.12,-20.279999,0.045491222,0.18196489,9.818921,-0.015254527,-6.780604E-4,-0.02073582,-0.018529744818806648,-0.004632982891052961,-1.323473334312439,1017.34326,
2021.02.11 15:28:17,67.0,24.0,25.26,5.8799996,-20.52,0.09337672,0.20590763,9.632168,-0.0018154916,0.0042088614,-0.023790147,-0.021372821182012558,-0.009693954139947891,-1.3277592658996582,1017.3418,
2021.02.11 15:28:17,67.0,24.0,25.26,5.7599998,-20.82,0.05985687,0.18196489,9.703996,-0.017697988,-0.008008444,-0.032342263,-0.018748987466096878,-0.0061681922525167465,-1.3332678079605103,1017.3418,
2021.02.11 15:28:17,67.0,24.0,25.32,5.52,-20.4,0.0047885496,0.18914771,9.783007,-0.011589335,-0.0104519045,-0.030509664,-0.019331902265548706,-4.894762532785535E-4,-1.3414615392684937,1017.33887,
2021.02.11 15:28:17,67.0,24.0,25.019999,5.4,-20.4,0.062251143,0.14365649,9.660899,-0.010367605,-0.0086193085,-0.0158489,-0.014868483878672123,-0.006443528924137354,-1.3479176759719849,1017.3374,
2021.02.11 15:28:17,67.0,24.0,25.019999,5.7,-20.22,0.04070267,0.20351335,9.732727,-0.018308854,-0.008008444,-0.013405438,-0.020906979218125343,-0.004182017408311367,-1.3317053318023682,1017.3374,
2021.02.11 15:28:17,67.0,24.0,24.96,5.64,-20.039999,0.019154198,0.1699935,9.816526,0.004293161,-0.0012889256,-0.0042424593,-0.01731531135737896,-0.0019512170692905784,-1.3357990980148315,1017.3357,
2021.02.11 15:28:17,67.0,24.0,25.019999,6.24,-20.22,0.07901107,0.12450229,9.629773,-0.006702414,-0.0043432517,-0.0011881329,-0.012927735224366188,-0.008204689249396324,-1.3182852268218994,1017.3357,
2021.02.11 15:28:17,67.0,24.0,25.32,6.2999997,-20.64,0.06943397,0.14605077,9.636956,-0.006702414,0.0035979962,0.008585712,-0.015153725631535053,-0.007204844616353512,-1.3168854713439941,1017.33276,
2021.02.11 15:28:17,67.0,24.0,25.68,6.24,-20.58,0.090982445,0.17238778,9.708784,-0.0060915486,-0.009230174,0.0024770587,-0.01775321178138256,-0.009370872750878334,-1.3210164308547974,1017.33325,
2021.02.11 15:28:17,67.0,24.0,25.5,6.2999997,-20.58,-0.011971374,0.08619389,9.826104,0.0024605652,-0.0122845005,0.0018661933,-0.008771697990596294,0.0012183228973299265,-1.3216906785964966,1017.33325,
2021.02.11 15:28:17,67.0,24.0,25.439999,5.8199997,-20.82,0.14126222,0.14365649,9.646533,-5.9376104E-4,-6.719518E-5,0.013472633,-0.014889337122440338,-0.014642787165939808,-1.3372485637664795,1017.3264,
2021.02.11 15:28:18,67.0,24.0,25.439999,6.12,-20.4,0.0670397,0.11971374,9.699207,-0.0042589526,-0.0025106561,0.0012553281,-0.01234170887619257,-0.006911763921380043,-1.3267736434936523,1017.3264,
2021.02.11 15:28:18,67.0,24.0,25.5,6.12,-20.279999,0.08140534,0.12929083,9.73991,-0.0036480871,-0.0067867124,0.0018661933,-0.013273091986775398,-0.008357720449566841,-1.326967716217041,1017.3313,
2021.02.11 15:28:18,67.0,24.0,25.859999,6.12,-20.1,0.016759925,0.09577099,9.668081,-0.009145874,-0.0055649825,6.444628E-4,-0.009905555285513401,-0.0017335298471152782,-1.3314719200134277,1017.32935,
2021.02.11 15:28:18,67.0,24.0,25.619999,6.6,-19.92,0.08140534,0.12210801,9.792584,-0.014643662,-0.0049541174,0.008585712,-0.012468360364437103,-0.008312766440212727,-1.3113070726394653,1017.32935,
2021.02.11 15:28:18,67.0,24.0,25.5,6.66,-19.859999,0.16759923,0.1699935,9.598648,0.009790948,0.009706649,0.0061422503,-0.017705602571368217,-0.01745893806219101,-1.306180477142334,1017.33374,
2021.02.11 15:28:18,67.0,24.0,25.26,6.6,-19.74,0.009577099,0.06464542,9.75667,0.0018497,-0.008008444,-0.010351111,-0.006625666283071041,-9.81594785116613E-4,-1.3105885982513428,1017.33374,
2021.02.11 15:28:18,67.0,24.0,25.32,6.8399997,-19.98,0.10055954,0.13886794,9.675264,0.019564793,0.0042088614,0.012861768,-0.01435112301260233,-0.010393093340098858,-1.2987008094787598,1017.3362,
2021.02.11 15:28:18,67.0,24.0,25.74,7.14,-20.039999,0.105348095,0.076616794,9.727939,0.011012679,-0.0049541174,0.0030879239,-0.00787532888352871,-0.010829013772308826,-1.29679274559021,1017.3396,
2021.02.11 15:28:18,67.0,24.0,25.56,6.72,-20.22,0.12929083,0.15083931,9.627379,0.016510466,0.008484919,0.0030879239,-0.015665048733353615,-0.013428686186671257,-1.3050426244735718,1017.3396,
2021.02.11 15:28:18,67.0,24.0,25.8,6.96,-20.82,0.016759925,0.08619389,9.735122,0.004293161,0.002987131,-0.009129381,-0.008853664621710777,-0.0017215919215232134,-1.3010337352752686,1017.3479,
2021.02.11 15:28:18,67.0,24.0,25.5,7.02,-20.76,0.08140534,0.17957062,9.675264,-0.0048698178,0.006652322,0.006753115,-0.018556976690888405,-0.008413560688495636,-1.2901699542999268,1017.3479,
2021.02.11 15:28:18,67.0,24.0,25.26,6.48,-20.88,0.13647367,0.17957062,9.601042,0.005514892,-0.0067867124,0.0061422503,-0.018699174746870995,-0.014213507063686848,-1.3084384202957153,1017.3467,
2021.02.11 15:28:18,67.0,24.0,25.26,6.8999996,-20.64,0.038308397,0.14365649,9.684841,6.2796945E-4,-0.009230174,-0.0024098635,-0.014831924811005592,-0.0039554801769554615,-1.293830156326294,1017.34717,
2021.02.11 15:28:18,67.0,24.0,25.199999,6.96,-20.34,0.07901107,0.14605077,9.680053,-0.0012046263,0.0011545353,0.0024770587,-0.01508616004139185,-0.008162074722349644,-1.291922926902771,1017.34717,
2021.02.11 15:28:18,67.0,24.0,25.38,6.6,-20.64,0.03351985,0.17717634,9.584282,-0.0060915486,0.0042088614,-0.0017989981,-0.01848391629755497,-0.003497363068163395,-1.3031824827194214,1017.3533,
2021.02.11 15:28:18,67.0,24.0,25.5,6.66,-20.279999,0.05027977,0.13886794,9.780613,-0.0042589526,-0.007397578,-0.0030207285,-0.014197144657373428,-0.005140713416039944,-1.3059085607528687,1017.3533,
2021.02.11 15:28:18,67.0,24.0,25.68,6.2999997,-20.4,0.14844504,0.2370332,9.57231,0.007958353,0.008484919,0.0061422503,-0.024754345417022705,-0.015506511554121971,-1.3151729106903076,1017.3574,
2021.02.11 15:28:19,67.0,24.0,25.56,6.2999997,-20.1,0.098165266,0.15562786,9.668081,-0.007924144,-6.719518E-5,-0.010961977,-0.016094857826828957,-0.010153193026781082,-1.3193330764770508,1017.35986,
2021.02.11 15:28:19,67.0,24.0,25.199999,6.42,-19.8,-0.0071828244,0.13886794,9.780613,0.004293161,-0.0018997908,-0.0042424593,-0.014197329059243202,7.343939505517483E-4,-1.3107651472091675,1017.35986,
2021.02.11 15:28:19,67.0,24.0,25.14,6.3599997,-19.859999,0.105348095,0.15323359,9.615408,-0.0018154916,-0.0043432517,-0.0072967852,-0.015933949500322342,-0.010955736972391605,-1.3135253190994263,1017.35767,
2021.02.11 15:28:19,67.0,24.0,24.96,6.42,-19.92,0.10055954,0.17478207,9.701602,-5.9376104E-4,5.4367003E-4,0.0030879239,-0.0180128775537014,-0.010364879854023457,-1.307881236076355,1017.35767,
2021.02.11 15:28:19,67.0,24.0,25.199999,5.94,-20.22,0.14365649,0.18914771,9.6585045,-0.009145874,5.4367003E-4,-0.006075055,-0.019578872248530388,-0.014872479252517223,-1.3275585174560547,1017.35376,
2021.02.11 15:28:19,67.0,24.0,25.32,5.64,-20.4,0.052674048,0.15802214,9.857229,1.7104227E-5,-0.008008444,-0.010961977,-0.016029490157961845,-0.00534364627674222,-1.3404183387756348,1017.3523,
2021.02.11 15:28:19,67.0,24.0,25.08,5.58,-20.88,0.071828246,0.12210801,9.574705,-0.0012046263,0.0017654005,-0.0072967852,-0.012752138078212738,-0.007501734886318445,-1.343255639076233,1017.3523,
2021.02.11 15:28:19,67.0,24.0,25.08,5.8199997,-20.939999,0.062251143,0.19154198,9.634562,-0.005480683,0.0023762658,-0.0017989981,-0.019877683371305466,-0.006461142562329769,-1.32850182056427,1017.3589,
2021.02.11 15:28:19,67.0,24.0,25.32,5.94,-21.06,0.026337024,0.21309046,9.775824,-0.006702414,-0.0031215216,-0.0048533245,-0.021794168278574944,-0.0026940912939608097,-1.3238941431045532,1017.3589,
2021.02.11 15:28:19,67.0,24.0,25.26,6.3599997,-20.76,0.10055954,0.19154198,9.684841,0.007347487,-6.719518E-5,0.003698789,-0.01977386139333248,-0.01038281712681055,-1.3112603425979614,1017.35693,
2021.02.11 15:28:19,67.0,24.0,25.439999,6.54,-20.46,-0.038308397,0.105348095,9.632168,-0.014643662,0.008484919,0.0024770587,-0.010936588980257511,0.003977110609412193,-1.3101119995117188,1017.3611,
2021.02.11 15:28:19,67.0,24.0,25.619999,6.42,-20.46,0.047885496,0.14844504,9.838076,-0.0018154916,-6.780604E-4,0.012250902,-0.015087504871189594,-0.004867325536906719,-1.3150066137313843,1017.3611,
2021.02.11 15:28:19,67.0,24.0,25.26,6.54,-19.92,0.16281068,0.14844504,9.550762,0.01467787,-0.009841039,3.359759E-5,-0.01553923450410366,-0.01704522781074047,-1.3095942735671997,1017.3535,
2021.02.11 15:28:19,67.0,24.0,25.38,6.3599997,-19.98,0.019154198,0.20590763,9.627379,-0.0012046263,0.009095783,-0.00790765,-0.021384410560131073,-0.001989552052691579,-1.3099696636199951,1017.3535,
2021.02.11 15:28:19,67.0,24.0,25.38,6.12,-19.5,-0.011971374,0.14126222,9.517242,0.018343061,0.023145683,3.359759E-5,-0.01484166644513607,0.0012578609166666865,-1.3232084512710571,1017.3489,
2021.02.11 15:28:19,67.0,24.0,25.26,5.8799996,-19.38,0.045491222,0.09577099,9.778218,0.007347487,-0.012895366,0.008585712,-0.009793899953365326,-0.004652268253266811,-1.3358335494995117,1017.34717,
2021.02.11 15:28:19,67.0,24.0,25.199999,5.8199997,-19.619999,0.13886794,0.2466103,9.574705,0.023840848,-0.0037323865,0.0049205194,-0.025748036801815033,-0.01450260914862156,-1.3279144763946533,1017.34717,
2021.02.11 15:28:20,67.0,24.0,25.199999,6.0,-19.38,0.011971374,0.14844504,9.766247,0.0061257565,-0.0055649825,-0.012183707,-0.015198621898889542,-0.0012257900089025497,-1.3262863159179688,1017.3496,
2021.02.11 15:28:20,67.0,24.0,25.32,6.18,-19.98,-0.105348095,0.15562786,9.593859,0.018953927,0.0017654005,0.02019215,-0.016219211742281914,0.010980343446135521,-1.3171017169952393,1017.3496,
2021.02.11 15:28:20,67.0,24.0,25.199999,6.3599997,-19.859999,0.17478207,0.29689008,9.751882,-0.01097847,0.008484919,0.026911668,-0.030430104583501816,-0.01792098768055439,-1.3053174018859863,1017.3506,
2021.02.11 15:28:20,67.0,24.0,25.5,6.54,-19.859999,0.031125572,0.25379312,9.531608,0.019564793,5.4367003E-4,0.0012553281,-0.02662004344165325,-0.00326549937017262,-1.3012021780014038,1017.3467,
2021.02.11 15:28:20,67.0,24.0,25.74,6.2999997,-20.039999,-0.05027977,0.15562786,9.656111,0.011012679,-0.018393151,-0.0048533245,-0.016115419566631317,0.005206994712352753,-1.3179233074188232,1017.3467,
2021.02.11 15:28:20,67.0,24.0,25.5,6.06,-19.859999,-0.023942748,0.19393626,9.624985,0.004293161,5.4367003E-4,0.012250902,-0.020146464928984642,0.0024875570088624954,-1.3222153186798096,1017.34375,
2021.02.11 15:28:20,67.0,24.0,25.68,6.12,-19.92,0.0670397,0.2466103,9.711179,-5.9376104E-4,-0.008008444,0.014694364,-0.025388414040207863,-0.006903243716806173,-1.319812536239624,1017.34375,
2021.02.11 15:28:20,67.0,24.0,25.439999,5.7599998,-19.619999,0.0670397,0.24421602,9.735122,0.020175658,0.0011545353,0.0018661933,-0.025080224499106407,-0.006886266637593508,-1.3312649726867676,1017.34375,
2021.02.11 15:28:20,67.0,24.0,25.32,5.8799996,-19.439999,-0.009577099,0.16041641,9.615408,0.018953927,0.029865202,-0.0072967852,-0.01668171025812626,9.960155002772808E-4,-1.330334186553955,1017.33887,
2021.02.11 15:28:20,67.0,24.0,25.439999,6.3599997,-19.02,-0.043096945,0.21309046,9.522031,0.02750604,0.020702222,0.005531385,-0.0223747156560421,0.004525993950664997,-1.3092538118362427,1017.33887,
2021.02.11 15:28:20,67.0,24.0,25.439999,6.6,-19.199999,0.028731298,0.18196489,9.718362,0.0030714304,0.02375655,0.009196576,-0.018721552565693855,-0.0029563845600932837,-1.3044261932373047,1017.3501,
2021.02.11 15:28:20,67.0,24.0,25.32,6.96,-19.68,0.1987248,0.42139238,9.75667,0.012845274,0.02864347,0.0030879239,-0.04315441846847534,-0.020365282893180847,-1.2770057916641235,1017.3501,
2021.02.11 15:28:20,67.0,24.0,25.26,6.8999996,-19.74,-0.31604427,0.14605077,8.609812,-0.048852116,-0.15339437,-0.014016303,-0.016950255259871483,0.036690980195999146,-1.2833327054977417,1017.3423,
2021.02.11 15:28:20,67.0,24.0,25.32,6.72,-20.1,0.04070267,0.15083931,10.5946665,-5.9376104E-4,0.03658472,-0.03112053,-0.01423622015863657,-0.003841788973659277,-1.3017022609710693,1017.34717,
