Time,X-cord,Y-cord,Mag_x,Mag_y,Mag_z,Acc_x,Acc_y,Acc_z,Gyro_x,Gyro_y,Gyro_z,Orn_x,Orn_y,Orn_z,Pressure,
2021.02.13 18:44:57,18.0,24.0,36.43373,-4.486805,-39.062515,-0.055899877,0.56026846,9.862317,-0.08894927,-0.0011986638,0.0026326329,-0.056747108697891235,0.005667966324836016,-1.6329174041748047,1013.62585,
2021.02.13 18:44:57,18.0,24.0,37.73645,-3.35155,-40.210106,0.038510006,0.6620971,9.800117,-0.022545483,0.04088641,0.027118668,-0.06745709478855133,-0.003929525148123503,-1.5877773761749268,1013.6251,
2021.02.13 18:44:57,18.0,24.0,37.081062,-4.55402,-39.136055,0.19260956,0.6192257,9.703724,-0.011073587,2.760172E-4,0.029779546,-0.06371428072452545,-0.01984642818570137,-1.6262285709381104,1013.6248,
2021.02.13 18:44:57,18.0,24.0,38.849228,-4.4327383,-38.99478,0.114637315,0.5459986,9.741768,-0.014929477,0.019128673,0.004802674,-0.055984728038311005,-0.011767066083848476,-1.6284737586975098,1013.6241,
2021.02.13 18:44:57,18.0,24.0,36.426636,-5.1595144,-40.440437,0.02292104,0.7043488,9.674954,-0.01353875,-0.0014394255,-0.008766429,-0.07267283648252487,-0.002369106514379382,-1.6313927173614502,1013.6234,
2021.02.13 18:44:57,18.0,24.0,37.27221,-4.0958204,-39.459457,0.0046137846,0.77498657,9.9653635,-0.024014773,0.013520116,-2.7000112E-4,-0.07761179655790329,-4.6298204688355327E-4,-1.5982866287231445,1013.6234,
2021.02.13 18:44:57,18.0,24.0,36.914505,-3.4892015,-39.922165,0.1400111,0.6779209,9.66501,0.027863346,-0.0122916,0.00958066,-0.07001975178718567,-0.0144853750243783,-1.59014093875885,1013.6234,
2021.02.13 18:44:57,18.0,24.0,37.937958,-4.2446823,-38.859047,0.24337478,0.6144595,9.682224,0.006878853,-0.0030749952,-0.020831991,-0.06335768848657608,-0.02513095550239086,-1.6179801225662231,1013.6234,
2021.02.13 18:44:57,18.0,24.0,37.81697,-4.276001,-39.15203,0.17159013,0.5914002,9.778762,0.017866008,-0.003708811,-0.07483535,-0.06039518117904663,-0.0175454244017601,-1.6212873458862305,1013.6234,
2021.02.13 18:44:57,18.0,24.0,36.878937,-3.8285465,-39.073456,-0.2536556,0.7509343,9.75859,0.016192943,-5.782192E-4,-0.10839527,-0.07677393406629562,0.025987207889556885,-1.591654658317566,1013.6234,
2021.02.13 18:44:57,18.0,24.0,36.79342,-4.719922,-39.30294,-0.2403822,0.712003,9.750027,0.028736748,0.006879252,-0.051846873,-0.0728742852807045,0.024649523198604584,-1.6204739809036255,1013.6234,
2021.02.13 18:44:57,18.0,24.0,37.517723,-3.529951,-39.364105,-0.13067673,0.61775655,9.691405,-0.0011187666,0.005909639,-0.004724196,-0.06365082412958145,0.0134829580783844,-1.5974771976470947,1013.6234,
2021.02.13 18:44:57,18.0,24.0,35.948334,-2.7259302,-39.66037,-0.11143743,0.7172665,9.784836,-0.015801229,0.011656524,-1.0065595E-4,-0.07316827774047852,0.011388297192752361,-1.5648688077926636,1013.6234,
2021.02.13 18:44:58,18.0,24.0,36.865494,-4.442589,-39.845345,-0.06597939,0.6857534,9.990815,-0.012274941,0.0072715194,0.019786488,-0.0685294046998024,0.006603909190744162,-1.616857647895813,1013.6234,
2021.02.13 18:44:58,18.0,24.0,37.132484,-3.8127775,-39.423935,-0.10906872,0.6859017,9.688222,0.033244636,-0.045526616,0.022847474,-0.0706750825047493,0.011257392354309559,-1.5977739095687866,1013.6234,
2021.02.13 18:44:58,18.0,24.0,37.674934,-5.141053,-39.27691,-0.108022474,0.7357854,9.8736,0.026667444,-0.004992552,0.043922782,-0.07437855750322342,0.010940099135041237,-1.6292030811309814,1013.6234,
2021.02.13 18:44:58,18.0,24.0,37.16372,-3.976677,-39.87445,0.014434191,0.7597999,9.664688,0.07111717,-0.014022542,0.069081284,-0.0784546285867691,-0.0014934968203306198,-1.593457579612732,1013.6234,
2021.02.13 18:44:58,18.0,24.0,38.04444,-3.7805233,-40.454353,0.118890725,0.6078045,9.478785,0.039063316,-0.0053204414,0.060404222,-0.06402992457151413,-0.01254216581583023,-1.6023041009902954,1013.6234,
2021.02.13 18:44:58,18.0,24.0,37.32184,-4.557418,-39.16771,0.067648396,0.6927163,9.65648,-0.016081363,0.012059605,0.014636009,-0.07161147892475128,-0.007005378138273954,-1.617630958557129,1013.6234,
2021.02.13 18:44:58,18.0,24.0,38.122787,-5.0133476,-39.061447,-0.16036199,0.8844363,9.90854,-0.027122568,0.0135274585,-0.0012684823,-0.08901248127222061,0.016182808205485344,-1.6099045276641846,1013.6234,
2021.02.13 18:44:58,18.0,24.0,37.759872,-4.615983,-38.90909,-0.05949213,0.9107426,9.705112,0.018030964,0.0028116656,0.031948596,-0.09356576204299927,0.006129901856184006,-1.595816969871521,1013.6234,
2021.02.13 18:44:58,18.0,24.0,39.29399,-4.842741,-39.63156,0.263084,0.6030409,9.655469,-0.0012150635,0.01292855,0.02734014,-0.06235178932547569,-0.027240408584475517,-1.6309690475463867,1013.6239,
2021.02.13 18:44:58,18.0,24.0,37.291634,-5.3659344,-39.32409,-0.08614921,0.8789659,9.772824,-0.007495684,0.0027913088,-0.046932917,-0.08969499915838242,0.008814951404929161,-1.6192811727523804,1013.6239,
2021.02.13 18:44:58,18.0,24.0,38.19982,-4.0832205,-39.011963,-0.05820175,0.7720847,9.748722,-0.0018701116,-0.012735621,2.3306813E-4,-0.07903218269348145,0.005970121826976538,-1.5964064598083496,1013.6239,
2021.02.13 18:44:58,18.0,24.0,36.717285,-5.0303755,-39.053658,0.1236524,0.68420124,9.590955,-0.0026791105,-0.015588507,-0.010698588,-0.07121163606643677,-0.012891891412436962,-1.6317886114120483,1013.6239,
2021.02.13 18:44:58,18.0,24.0,37.79603,-4.655093,-40.300636,0.014647868,0.7798371,9.772739,-0.0107395,-0.011545134,-0.042477947,-0.0796283632516861,-0.0014988486655056477,-1.6087945699691772,1013.6239,
2021.02.13 18:44:58,18.0,24.0,38.5812,-4.3959913,-40.435997,-0.09366015,0.788801,9.769035,-0.023536095,-0.0050657154,-0.016486572,-0.08056654781103134,0.009587157517671585,-1.5995341539382935,1013.6247,
2021.02.13 18:44:59,18.0,24.0,37.606056,-5.087034,-39.165047,0.0046466463,0.71244144,9.724774,-0.020965489,-0.0027859872,-0.031987816,-0.0731298103928566,-4.7781530884094536E-4,-1.629550814628601,1013.6255,
2021.02.13 18:44:59,18.0,24.0,36.667732,-4.5074587,-38.940613,-0.028940767,0.71883965,9.766694,-0.0076919883,-8.715765E-5,-0.027514596,-0.07346832752227783,0.0029632016085088253,-1.6153334379196167,1013.6262,
2021.02.13 18:44:59,18.0,24.0,37.147636,-4.9804745,-38.61119,-0.03732368,0.73261523,9.719608,-0.0017782203,0.002453586,-0.025141768,-0.07523215562105179,0.003840020624920726,-1.626244068145752,1013.6262,
2021.02.13 18:44:59,18.0,24.0,38.24566,-4.571993,-38.8916,0.032447387,0.6424482,9.737361,-0.002489294,-5.550934E-4,-0.007849776,-0.06588179618120193,-0.0033322444651275873,-1.6231284141540527,1013.6272,
2021.02.13 18:44:59,18.0,24.0,36.662186,-4.2643194,-40.561478,-0.0029741575,0.6623599,9.692911,-0.017267177,-0.0059156097,-0.018729907,-0.06822839379310608,3.0683836666867137E-4,-1.6113836765289307,1013.6272,
2021.02.13 18:44:59,18.0,24.0,37.41561,-4.1572733,-38.778587,-0.014853614,0.73112196,9.878465,0.012362566,-0.008689484,-0.002695441,-0.07387691736221313,0.0015036347322165966,-1.605034589767456,1013.6272,
2021.02.13 18:44:59,18.0,24.0,37.229195,-4.5397167,-39.694168,0.024186784,0.64553404,9.653785,-0.019045869,-0.0017437154,-2.4834974E-4,-0.06676888465881348,-0.0025054144207388163,-1.621316909790039,1013.6272,
2021.02.13 18:44:59,18.0,24.0,37.282494,-4.5636864,-39.36035,0.08091114,0.6473599,9.857291,-0.015576106,-9.592774E-4,-0.013094608,-0.06557683646678925,-0.008208069019019604,-1.6237921714782715,1013.62726,
2021.02.13 18:44:59,18.0,24.0,37.49476,-3.1309814,-39.761215,0.034231957,0.65879875,9.676529,0.0046720533,3.6188026E-4,-0.022058178,-0.06797681003808975,-0.0035376129671931267,-1.5822749137878418,1013.62726,
2021.02.13 18:44:59,18.0,24.0,36.820236,-3.845438,-39.70649,0.09341243,0.62773925,9.839527,-0.008309951,0.01036385,-0.025586475,-0.06370849907398224,-0.009493304416537285,-1.6065938472747803,1013.62726,
2021.02.13 18:44:59,18.0,24.0,36.523567,-4.4246244,-38.357117,-0.059701383,0.6728514,9.748998,0.015245184,0.007968593,-0.032917317,-0.06890693306922913,0.006123771890997887,-1.6191985607147217,1013.62726,
2021.02.13 18:44:59,18.0,24.0,37.350235,-3.1809626,-39.31601,-0.017335579,0.5982051,9.720469,0.008162741,-9.7547285E-4,-0.007723801,-0.06146315112709999,0.0017834077589213848,-1.5910699367523193,1013.62726,
2021.02.13 18:44:59,18.0,24.0,37.806328,-3.3308153,-39.922745,-0.029999876,0.6565735,9.78687,0.009807637,-0.0019030872,0.0043844134,-0.06698648631572723,0.0030653090216219425,-1.5878660678863525,1013.62726,
2021.02.13 18:44:59,18.0,24.0,37.557114,-3.4682856,-39.35096,-0.020812875,0.6127592,9.703023,-0.0064532026,0.0017502024,0.0010482562,-0.0630674734711647,0.002144985366612673,-1.5968414545059204,1013.62726,
2021.02.13 18:45:00,18.0,24.0,37.681458,-4.1827345,-39.913734,-0.028361062,0.6638583,9.732291,-0.0043104496,8.278122E-4,0.0041734884,-0.06810613721609116,0.0029141115956008434,-1.609358549118042,1013.62726,
2021.02.13 18:45:00,18.0,24.0,36.876846,-3.8574133,-39.13968,0.0050514005,0.64933896,9.786214,-0.00437147,0.011716151,0.010172545,-0.06625529378652573,-5.161751178093255E-4,-1.6049022674560547,1013.62726,
2021.02.13 18:45:00,18.0,24.0,37.366997,-4.1840925,-39.171036,-0.01902238,0.7116594,9.778092,0.0060789767,0.011677527,0.010773669,-0.07265276461839676,0.001945405500009656,-1.6062970161437988,1013.62726,
2021.02.13 18:45:00,18.0,24.0,37.325867,-4.264346,-39.99594,-0.018745232,0.63388497,9.735344,0.015900338,0.0033495002,0.016751055,-0.06501982361078262,0.0019254798535257578,-1.615117073059082,1013.62726,
2021.02.13 18:45:00,18.0,24.0,37.808083,-4.476884,-39.13717,0.07653385,0.6480763,9.711917,0.011352692,-0.004102768,0.01714198,-0.06662916392087936,-0.00788024254143238,-1.6201096773147583,1013.62726,
2021.02.13 18:45:00,18.0,24.0,38.34703,-3.901886,-40.430527,0.10273311,0.6456952,9.777785,0.002015415,-0.0038996846,-0.0030852424,-0.0659375935792923,-0.0105064008384943,-1.6031850576400757,1013.62726,
2021.02.13 18:45:00,18.0,24.0,37.215485,-3.8738842,-39.562416,-0.013284974,0.68645996,9.633534,0.027967434,0.0073820925,-0.030586276,-0.07113702595233917,0.0013790334342047572,-1.5990029573440552,1013.62726,
2021.02.13 18:45:00,18.0,24.0,37.854446,-3.791232,-37.493507,0.024120623,0.65750843,9.812823,0.009439285,-0.008690302,-0.029873874,-0.06690481305122375,-0.0024580666795372963,-1.6045771837234497,1013.6272,
2021.02.13 18:45:00,18.0,24.0,37.11487,-4.1676445,-39.559875,0.010217725,0.66249084,9.770096,-0.0054290793,-0.015412448,-0.010644038,-0.06770434230566025,-0.0010458158794790506,-1.6107251644134521,1013.6269,
2021.02.13 18:45:00,18.0,24.0,37.403084,-4.7316294,-39.76349,-0.03283288,0.6912661,9.76356,0.014396368,-0.01808215,-0.018152121,-0.07068227976560593,0.0033627848606556654,-1.6218053102493286,1013.6269,
2021.02.13 18:45:00,18.0,24.0,37.75154,-3.241149,-38.459282,0.023252958,0.66619366,9.674508,0.00785045,-0.01910247,-0.005288245,-0.0687519982457161,-0.0024035240057855844,-1.586587905883789,1013.6266,
2021.02.13 18:45:00,18.0,24.0,37.475357,-3.8567362,-39.99952,0.019474423,0.7131749,9.870482,-0.011815583,0.0047667483,-0.023531977,-0.0721278116106987,-0.001972993602976203,-1.596605658531189,1013.6265,
2021.02.13 18:45:00,18.0,24.0,37.508102,-3.7737913,-39.993576,-0.06369572,0.6944342,9.5999975,0.025296954,5.993392E-4,-0.02206267,-0.07220955938100815,0.006634875200688839,-1.5939021110534668,1013.6265,
2021.02.13 18:45:01,18.0,24.0,37.25096,-4.993697,-40.667435,5.10556E-4,0.7216258,9.920325,0.028282467,0.012351963,-0.011621842,-0.07261425256729126,-5.146564944880083E-5,-1.6252409219741821,1013.6262,
2021.02.13 18:45:01,18.0,24.0,37.14427,-4.8244047,-40.350845,-0.063411996,0.76103836,9.718193,0.019436661,0.008380845,0.0072361287,-0.07814952731132507,0.006524987984448671,-1.6152524948120117,1013.6245,
2021.02.13 18:45:01,18.0,24.0,38.175354,-3.549964,-40.09668,6.982659E-4,0.71957535,9.602164,0.02487737,-0.03113245,0.024476197,-0.0747990533709526,-7.271963841049E-5,-1.5850403308868408,1013.62256,
2021.02.13 18:45:01,18.0,24.0,37.365143,-3.537775,-39.225258,0.06986183,0.7440913,9.697962,-0.004090853,-0.012445099,0.012344505,-0.07657454907894135,-0.007203639484941959,-1.5853345394134521,1013.6223,
2021.02.13 18:45:01,18.0,24.0,36.806755,-2.876789,-39.424576,0.17746194,0.693415,9.8418455,-0.013488725,-0.0075762486,0.005861859,-0.07032815366983414,-0.018029414117336273,-1.5746986865997314,1013.6223,
2021.02.13 18:45:01,18.0,24.0,36.979446,-3.9608803,-39.38363,-0.03926589,0.71730584,9.676633,0.019361783,-0.0058861733,-0.036873665,-0.07399169355630875,0.004057782702147961,-1.598697543144226,1013.6223,
2021.02.13 18:45:01,18.0,24.0,37.521652,-4.7888975,-40.088036,-0.04311076,0.7870848,9.707536,-0.009011863,-0.009741611,-0.012541246,-0.08090200275182724,0.0044409288093447685,-1.611480951309204,1013.6223,
2021.02.13 18:45:01,18.0,24.0,36.157715,-4.353347,-39.393295,0.092869736,0.7304847,9.874375,-0.0070987954,-0.006744024,0.0031464025,-0.07384004443883896,-0.009404848329722881,-1.6107606887817383,1013.6223,
2021.02.13 18:45:01,18.0,24.0,37.399826,-4.138191,-39.737274,-0.05878498,0.7678761,9.694276,0.0057042195,-0.01340676,0.03780625,-0.07904274761676788,0.006063811015337706,-1.5968881845474243,1013.6223,
2021.02.13 18:45:01,18.0,24.0,37.273064,-4.411747,-40.247887,0.1925339,0.6739437,9.787173,-0.008289976,1.7722661E-5,0.03725182,-0.06873811036348343,-0.01966952718794346,-1.615116834640503,1013.6223,
2021.02.13 18:45:01,18.0,24.0,36.318054,-5.54119,-39.41114,0.031113556,0.73549503,9.693604,0.0037475831,-0.0019445241,-5.624206E-4,-0.07572876662015915,-0.0032096882350742817,-1.640718698501587,1013.6223,
2021.02.13 18:45:01,18.0,24.0,36.079666,-4.399701,-38.94732,0.03161488,0.72690004,9.747422,-0.01241749,-0.0054407264,0.022168148,-0.07443539798259735,-0.0032433979213237762,-1.6121984720230103,1013.6223,
2021.02.13 18:45:01,18.0,24.0,36.476425,-4.2970285,-39.217865,0.11067459,0.7100491,9.741483,-0.012820963,-0.004923077,0.016154896,-0.07275587320327759,-0.011360676027834415,-1.6104605197906494,1013.6221,
2021.02.13 18:45:02,18.0,24.0,36.70655,-4.24938,-39.815567,0.077133045,0.7017669,9.741473,-0.011630133,-0.0041471315,0.011459908,-0.07191261649131775,-0.007917840965092182,-1.608557105064392,1013.6221,
2021.02.13 18:45:02,18.0,24.0,36.909607,-3.375204,-40.13025,0.08845458,0.70926785,9.792448,-0.027232759,-0.012440337,0.023510773,-0.07230088859796524,-0.00903269276022911,-1.5839872360229492,1013.6221,
2021.02.13 18:45:02,18.0,24.0,36.046623,-5.5663023,-40.105835,0.10448703,0.67729926,9.763902,-0.016561462,-0.006738492,0.026372239,-0.06925278902053833,-0.01070095133036375,-1.647538661956787,1013.6221,
2021.02.13 18:45:02,18.0,24.0,36.50936,-4.2961884,-40.302887,0.08109457,0.6807527,9.760532,-0.0086567495,-7.271569E-4,0.0144601995,-0.06963028758764267,-0.008308226242661476,-1.6115670204162598,1013.6221,
2021.02.13 18:45:02,18.0,24.0,35.998833,-4.222069,-39.749138,0.080475695,0.6889759,9.74664,-0.009901708,1.054912E-4,0.020339113,-0.0705687627196312,-0.008256576023995876,-1.610139012336731,1013.6221,
2021.02.13 18:45:02,18.0,24.0,36.758377,-3.8196802,-40.15296,0.1309747,0.6482132,9.7864485,-0.008116489,0.012954182,0.019639775,-0.0661332830786705,-0.013382472097873688,-1.6027106046676636,1013.6221,
2021.02.13 18:45:02,18.0,24.0,37.294754,-5.1431055,-39.307037,0.109930106,0.6696225,9.7375765,-0.003902276,0.0045207795,0.009762156,-0.06865440309047699,-0.011288788169622421,-1.6359877586364746,1013.622,
2021.02.13 18:45:02,18.0,24.0,36.922386,-3.279891,-39.991417,0.09172362,0.6370477,9.79572,0.01151491,0.0027588503,-0.0032674922,-0.064938984811306,-0.009363369084894657,-1.5895726680755615,1013.62195,
2021.02.13 18:45:02,18.0,24.0,37.09942,-4.5876026,-39.308617,0.06777365,0.6749422,9.708878,-3.5769795E-4,0.009385315,-0.0014880388,-0.06940469145774841,-0.006980471778661013,-1.6207526922225952,1013.622,
2021.02.13 18:45:02,18.0,24.0,38.125595,-4.090625,-39.791107,0.066334315,0.6480618,9.720054,-0.0045765047,0.0055805743,0.0048359986,-0.06657258421182632,-0.006824374198913574,-1.6085916757583618,1013.622,
2021.02.13 18:45:02,18.0,24.0,37.27694,-4.4563236,-39.668022,0.07875435,0.6568988,9.779336,-0.006333899,0.009042459,-0.0013899584,-0.06706920266151428,-0.008052964694797993,-1.618850588798523,1013.6221,
2021.02.13 18:45:02,18.0,24.0,37.085075,-4.8833103,-39.451813,0.10279625,0.6243633,9.7616415,0.0028697208,-9.116606E-5,-0.0024596618,-0.06387035548686981,-0.010530242696404457,-1.6341893672943115,1013.6222,
2021.02.13 18:45:02,18.0,24.0,36.53447,-4.6197157,-39.320045,-0.007361958,0.70266706,9.741769,0.0021979657,-7.634375E-4,-0.014117478,-0.07200458645820618,7.557104690931737E-4,-1.6194360256195068,1013.6222,
2021.02.13 18:45:03,18.0,24.0,36.52623,-3.7702284,-40.175644,0.07221935,0.6613043,9.710464,0.0063675074,-0.004070192,0.0065220073,-0.06799537688493729,-0.00743713416159153,-1.5993133783340454,1013.6222,
2021.02.13 18:45:03,18.0,24.0,37.05471,-4.5256004,-39.656036,0.09360012,0.61112064,9.764445,0.0011538649,-0.0010369257,-0.010020823,-0.062501922249794,-0.009585516527295113,-1.6258282661437988,1013.6222,
2021.02.13 18:45:03,18.0,24.0,38.207047,-4.913254,-39.061478,0.04565322,0.65706134,9.718171,-0.005663249,0.0020825597,-0.001610829,-0.06750813871622086,-0.004697682801634073,-1.6300970315933228,1013.6222,
2021.02.13 18:45:03,18.0,24.0,36.31505,-4.427637,-39.424232,0.026252048,0.67844176,9.758625,-0.0023871372,2.4030439E-4,0.005076944,-0.06941033899784088,-0.0026901313103735447,-1.6171513795852661,1013.6222,
2021.02.13 18:45:03,18.0,24.0,36.86843,-4.6970673,-38.53029,0.07664626,0.65303254,9.715806,0.0014079628,-8.4210397E-4,0.013337809,-0.06711039692163467,-0.007888657972216606,-1.6278278827667236,1013.6222,
2021.02.13 18:45:03,18.0,24.0,36.56318,-4.6017504,-39.473366,0.053791363,0.64448965,9.77106,-0.0039392626,0.0018987992,0.0039761476,-0.06586263328790665,-0.005505116190761328,-1.6253132820129395,1013.6222,
2021.02.13 18:45:03,18.0,24.0,37.64589,-4.614023,-39.40954,0.0742305,0.69823426,9.759222,-0.0036144108,-0.003412554,0.006078722,-0.07142233848571777,-0.007606043480336666,-1.6184730529785156,1013.6222,
2021.02.13 18:45:03,18.0,24.0,35.921448,-4.303303,-38.33728,0.11140526,0.62576026,9.745083,0.0047059604,0.0017674572,0.001377394,-0.06412070989608765,-0.011431449092924595,-1.622031331062317,1013.6222,
2021.02.13 18:45:03,18.0,24.0,36.84272,-4.467307,-39.172577,0.061183255,0.67281127,9.713322,-7.176616E-4,-8.835283E-5,-0.01009834,-0.0691550225019455,-0.006298817694187164,-1.618373155593872,1013.6222,
2021.02.13 18:45:03,18.0,24.0,36.627037,-5.3034477,-39.51104,0.066022605,0.69928783,9.804708,0.0059237024,-0.0025575627,-0.0026605662,-0.07119946926832199,-0.006733664311468601,-1.6383723020553589,1013.6222,
2021.02.13 18:45:03,18.0,24.0,37.88967,-5.8233128,-39.799583,0.09601107,0.6057698,9.62795,-0.028781539,0.0014524896,-0.0060483464,-0.06283190101385117,-0.009971789084374905,-1.6577298641204834,1013.6222,
2021.02.13 18:45:03,18.0,24.0,37.07582,-4.058158,-39.58107,0.0028022602,0.69167036,9.7482815,-0.0010082191,0.0012342193,-0.016220722,-0.07083433866500854,-2.874619676731527E-4,-1.604417324066162,1013.6222,
2021.02.13 18:45:03,18.0,24.0,36.83338,-4.55161,-38.985245,0.1253705,0.5797875,9.751685,-0.005778845,0.0017526214,2.500997E-4,-0.05938030779361725,-0.012855582870543003,-1.6312154531478882,1013.6222,
2021.02.13 18:45:04,18.0,24.0,36.988037,-5.248003,-40.267036,0.023076722,0.64168006,9.801896,-0.0017192755,0.002410693,-0.020743657,-0.06537143141031265,-0.002354307798668742,-1.6411186456680298,1013.6221,
2021.02.13 18:45:04,18.0,24.0,37.761833,-4.640875,-38.669235,1.6819437E-4,0.6152006,9.695655,0.005430025,-0.004497118,0.0032109087,-0.06336621195077896,-1.7347396351397038E-5,-1.6285386085510254,1013.622,
2021.02.13 18:45:04,18.0,24.0,36.96679,-5.3945017,-38.80773,0.11949318,0.616625,9.834946,-0.0029930384,0.009552528,0.004783742,-0.06261077523231506,-0.012149259448051453,-1.650338888168335,1013.622,
2021.02.13 18:45:04,18.0,24.0,36.620987,-4.7345705,-40.43647,0.030775422,0.5889972,9.732718,0.020097509,0.0033627688,-0.0027408646,-0.060443215072155,-0.003162047592923045,-1.6330394744873047,1013.622,
2021.02.13 18:45:04,18.0,24.0,37.016243,-3.8341856,-39.884087,0.11701416,0.61077243,9.700912,0.016393943,-0.007827749,-0.008383428,-0.0628727525472641,-0.012061595916748047,-1.6067559719085693,1013.622,
2021.02.13 18:45:04,18.0,24.0,36.88729,-4.3873262,-39.446014,0.012546591,0.6909511,9.742477,0.0028219344,-0.011903658,-0.008325458,-0.07080288976430893,-0.0012878228444606066,-1.6137914657592773,1013.622,
2021.02.13 18:45:04,18.0,24.0,37.439995,-4.3774786,-38.355988,0.023019822,0.6719472,9.6575,-0.007592606,-0.017158914,0.018928558,-0.06946560740470886,-0.002383616752922535,-1.616349220275879,1013.622,
2021.02.13 18:45:04,18.0,24.0,38.26584,-3.843196,-40.03283,0.17883241,0.61698264,9.774653,-0.035878837,-0.0134032825,0.04649026,-0.06302651017904282,-0.018293483182787895,-1.605625867843628,1013.622,
2021.02.13 18:45:04,18.0,24.0,37.666298,-4.0657187,-40.434692,0.17673886,0.6807726,9.832176,-0.010144351,-0.02326443,0.022577118,-0.06911779940128326,-0.01797362230718136,-1.6049270629882812,1013.622,
2021.02.13 18:45:04,18.0,24.0,37.075424,-4.576236,-40.26098,0.53061706,0.5794317,9.354463,0.047679044,-0.047534365,0.0029061185,-0.06176367029547691,-0.05666269361972809,-1.6271295547485352,1013.622,
2021.02.13 18:45:04,18.0,24.0,36.99289,-3.9973955,-39.362907,0.1980294,0.6987029,10.193057,-0.07577632,0.02563709,-0.06926117,-0.06842700392007828,-0.01942542754113674,-1.6064441204071045,1013.622,
