Time,X-cord,Y-cord,Mag_x,Mag_y,Mag_z,Acc_x,Acc_y,Acc_z,Gyro_x,Gyro_y,Gyro_z,Orn_x,Orn_y,Orn_z,Pressure,
2021.02.13 19:02:57,79.0,23.0,1.9643555,18.995363,-43.10018,0.332593,0.20241873,9.765472,0.13131614,-0.09207706,-0.017887462,-0.02071302942931652,-0.03404489532113075,-0.17084918916225433,1013.7763,
2021.02.13 19:02:57,79.0,23.0,3.2191162,19.735022,-43.643295,0.08835762,0.67703027,9.02536,0.24381493,-0.06961696,-0.059725113,-0.07487040758132935,-0.009789614006876945,-0.15761487185955048,1013.7733,
2021.02.13 19:02:57,79.0,23.0,3.356514,19.253859,-42.751602,0.1593131,0.5820678,9.808585,-0.034354493,-4.7298757E-4,0.040472526,-0.0592653714120388,-0.016240781173110008,-0.18412524461746216,1013.7736,
2021.02.13 19:02:57,79.0,23.0,2.8193512,18.503782,-42.096,0.40628538,0.5468104,9.917947,0.016013704,-0.01940196,0.057994876,-0.05503160133957863,-0.04094177484512329,-0.21506963670253754,1013.7736,
2021.02.13 19:02:57,79.0,23.0,2.6702652,17.357521,-41.959854,0.14580427,0.53400904,9.617958,0.033707563,0.01891215,0.005548669,-0.05545877292752266,-0.015158426016569138,-0.1666475087404251,1013.7733,
2021.02.13 19:02:58,79.0,23.0,2.515648,18.982567,-43.633026,0.14689173,0.6457337,9.636599,-0.046436794,0.03263529,0.01131335,-0.06690069288015366,-0.01524193026125431,-0.14451341331005096,1013.7733,
2021.02.13 19:02:58,79.0,23.0,1.8217697,19.128801,-42.066666,0.081258126,0.72108775,10.140217,0.07607954,-0.050166063,0.04492765,-0.07098989188671112,-0.008013279177248478,-0.09753530472517014,1013.7733,
2021.02.13 19:02:58,79.0,23.0,3.2002563,19.25941,-43.638657,0.14611639,0.51901275,9.494831,0.004637321,-0.024745097,0.065088116,-0.054601866751909256,-0.015387831255793571,-0.17727161943912506,1013.7733,
2021.02.13 19:02:58,79.0,23.0,4.196495,18.259027,-42.44542,0.53595185,0.15348406,9.455971,-0.09481313,-0.018832406,-0.075159825,-0.016204018145799637,-0.0566180944442749,-0.33492687344551086,1013.7733,
2021.02.13 19:02:58,79.0,23.0,3.9849854,18.340385,-41.904846,-0.42865992,1.0448254,10.306611,-0.07643778,0.015391208,-0.04087228,-0.10094248503446579,0.041566815227270126,-0.09931223839521408,1013.7724,
2021.02.13 19:02:58,79.0,23.0,3.449356,19.774448,-42.2473,0.24842237,0.5854524,9.660333,0.06373024,-0.023240207,0.09935688,-0.060509759932756424,-0.025710050016641617,-0.20071125030517578,1013.7724,
2021.02.13 19:02:58,79.0,23.0,2.37014,19.09953,-41.685226,0.51659936,0.40529808,9.612756,0.03843222,0.010988473,0.05332667,-0.042076922953128815,-0.0536893792450428,-0.21753452718257904,1013.77234,
2021.02.13 19:02:58,79.0,23.0,3.2009048,18.950003,-42.93905,0.09541593,0.7037799,9.702507,-0.009411173,0.026733669,-0.060514804,-0.07240557670593262,-0.009833834134042263,-0.1631859391927719,1013.77185,
2021.02.13 19:02:58,79.0,23.0,4.4975357,19.725534,-42.651794,-0.09220675,0.86066264,9.807779,-0.03571006,0.0242156,-0.03307043,-0.08752499520778656,0.009401111863553524,-0.17343394458293915,1013.7717,
2021.02.13 19:02:58,79.0,23.0,3.1750107,19.775375,-42.76812,0.21816988,0.65264755,9.835018,-0.022851804,0.024109766,0.019521806,-0.0662461668252945,-0.02217932976782322,-0.1807675063610077,1013.7713,
2021.02.13 19:02:58,79.0,23.0,2.7356873,18.925861,-42.659393,0.22508705,0.52921534,9.620665,0.0057972525,0.0058396286,-0.009874235,-0.054937802255153656,-0.02339193783700466,-0.17399974167346954,1013.77124,
2021.02.13 19:02:58,79.0,23.0,3.6244965,19.255802,-42.007362,-0.01597466,0.66493875,9.689181,-0.0368928,0.023668913,-0.04166866,-0.06851939857006073,0.0016487094108015299,-0.15959537029266357,1013.77124,
2021.02.13 19:02:58,79.0,23.0,3.2858124,18.847452,-42.756233,0.0020613645,0.6406305,9.828296,-0.042489827,0.019923134,-0.010413152,-0.06509017944335938,-2.0973772916477174E-4,-0.15144842863082886,1013.77124,
2021.02.13 19:02:58,79.0,23.0,4.0747757,18.37721,-42.781273,0.067679495,0.47332224,9.68234,-0.015645081,0.013104107,-0.0032056477,-0.04884503409266472,-0.006989879999309778,-0.2107723206281662,1013.77124,
2021.02.13 19:02:59,79.0,23.0,2.2563477,20.533543,-41.698235,0.05810221,0.51704174,9.79078,-0.048206415,0.018943645,-0.0026347837,-0.05275910720229149,-0.005934310145676136,-0.10983841121196747,1013.77124,
2021.02.13 19:02:59,79.0,23.0,4.003807,18.225967,-41.110245,-0.011110946,0.5177977,9.85987,-0.01701616,0.003211316,0.0026491047,-0.05246744304895401,0.0011268851812928915,-0.1920080929994583,1013.77124,
2021.02.13 19:02:59,79.0,23.0,2.811325,20.469423,-41.98407,0.009324342,0.4999443,9.784966,-0.005109501,0.0010573766,0.01929168,-0.05104869231581688,-9.529250091873109E-4,-0.1255849301815033,1013.77124,
2021.02.13 19:02:59,79.0,23.0,3.676651,19.421722,-42.191246,0.13731249,0.44664058,9.7093115,0.0034651952,-0.0057748607,0.018327352,-0.04596426710486412,-0.014141407795250416,-0.19764162600040436,1013.77124,
2021.02.13 19:02:59,79.0,23.0,3.92099,20.171814,-42.204247,0.068507016,0.49830642,9.760402,-0.0047345604,0.0076485393,0.0050136168,-0.05100834369659424,-0.007018757052719593,-0.1869341880083084,1013.7712,
2021.02.13 19:02:59,79.0,23.0,2.4996033,20.470232,-42.9601,0.059638496,0.51043636,9.833604,6.3946075E-4,-0.00188038,0.014548499,-0.05185985937714577,-0.00606469064950943,-0.12116111814975739,1013.7709,
2021.02.13 19:02:59,79.0,23.0,4.0206604,19.333752,-42.80346,0.08877499,0.4825231,9.670377,0.023365354,0.0024709315,0.013083118,-0.04985358566045761,-0.009179838001728058,-0.20300617814064026,1013.77075,
2021.02.13 19:02:59,79.0,23.0,2.2781372,19.496319,-43.559044,0.081593305,0.47604132,9.810886,0.008203887,0.015772076,0.013945585,-0.04848204180598259,-0.00831641722470522,-0.1217256560921669,1013.77075,
2021.02.13 19:02:59,79.0,23.0,4.3016357,20.08179,-43.6373,0.017685013,0.5450922,9.786822,0.010230416,0.0014562425,0.007671009,-0.05563897266983986,-0.001807020977139473,-0.19247503578662872,1013.77075,
2021.02.13 19:02:59,79.0,23.0,2.8337326,17.888433,-42.740295,0.047565196,0.5132155,9.738407,0.015394675,0.00707716,0.0072750878,-0.0526508130133152,-0.004884250462055206,-0.15013594925403595,1013.77075,
2021.02.13 19:02:59,79.0,23.0,1.7320557,18.468597,-42.857735,0.114274174,0.5213456,9.6774435,0.008986848,-0.007862984,0.0014775124,-0.053816474974155426,-0.011807752773165703,-0.10745987296104431,1013.77075,
2021.02.13 19:02:59,79.0,23.0,4.0798492,18.359718,-43.06875,0.03633736,0.5622794,9.782849,-0.009812439,0.012801704,-0.021087155,-0.05741247534751892,-0.0037143772933632135,-0.20108245313167572,1013.77075,
2021.02.13 19:02:59,79.0,23.0,3.0075836,18.488663,-43.582253,0.01212526,0.570371,9.753665,-0.0051985797,-8.866739E-4,-0.0074778697,-0.058411043137311935,-0.0012431484647095203,-0.14477021992206573,1013.77075,
2021.02.13 19:02:59,79.0,23.0,3.4768982,19.639788,-43.50879,0.009491211,0.5688093,9.77278,0.010433627,-0.0053111594,-5.495323E-4,-0.05813780426979065,-9.711881284601986E-4,-0.15766985714435577,1013.77075,
2021.02.13 19:03:00,79.0,23.0,3.1044998,18.716602,-41.71884,0.020888368,0.57559806,9.840012,0.010519296,-0.0019975053,-4.4673547E-4,-0.05842895805835724,-0.0021227961406111717,-0.15004657208919525,1013.7706,
2021.02.13 19:03:00,79.0,23.0,3.60421,18.947796,-41.541946,0.012578725,0.57477564,9.685336,0.032821104,-0.020390779,0.008252949,-0.05927536264061928,-0.0012987384106963873,-0.16949816048145294,1013.77057,
2021.02.13 19:03:00,79.0,23.0,3.4019775,20.665741,-43.510094,0.036994368,0.5888157,9.735366,0.017208895,0.006690683,0.009400434,-0.060408107936382294,-0.003799979342147708,-0.15221869945526123,1013.7704,
2021.02.13 19:03:00,79.0,23.0,2.1381226,19.105808,-42.391335,0.059375837,0.60001534,9.824113,0.0041975086,0.015875984,0.010733222,-0.06099889799952507,-0.006043814122676849,-0.11012458801269531,1013.77026,
2021.02.13 19:03:00,79.0,23.0,4.2681046,18.772144,-42.743996,0.0028599836,0.61721826,9.7044935,0.017953448,0.00135263,-7.579977E-4,-0.06351573020219803,-2.947071334347129E-4,-0.1970028281211853,1013.7702,
2021.02.13 19:03:00,79.0,23.0,3.0498428,19.569754,-43.776016,0.024865024,0.6215803,9.755882,0.0017010954,0.010753662,0.013928732,-0.06362718343734741,-0.002548715565353632,-0.14074692130088806,1013.7702,
2021.02.13 19:03:00,79.0,23.0,2.5246658,18.699566,-42.580116,0.06812429,0.60395855,9.705426,0.0013403166,-0.0056985565,0.0099225035,-0.062147289514541626,-0.007019080687314272,-0.13174736499786377,1013.7702,
2021.02.13 19:03:00,79.0,23.0,2.8113556,18.62173,-43.11947,0.06922456,0.54533976,9.753467,-0.013184009,-0.0038860037,0.009517201,-0.05585284158587456,-0.007097311783581972,-0.14737701416015625,1013.77,
2021.02.13 19:03:00,79.0,23.0,2.5736313,18.760147,-42.79454,-0.009513933,0.64916843,9.73253,-0.010571239,-0.0028022141,-0.007297747,-0.0666022077202797,9.77539224550128E-4,-0.11685825139284134,1013.77,
2021.02.13 19:03:00,79.0,23.0,3.2522812,19.045544,-42.113083,0.026761884,0.6170725,9.753001,-0.0046640444,-0.010003846,0.008409312,-0.06318555772304535,-0.0027439570985734463,-0.15420782566070557,1013.76984,
2021.02.13 19:03:00,79.0,23.0,4.030548,20.334717,-42.56656,0.08648479,0.55395,9.760541,-0.009006614,0.0017429604,0.0013462018,-0.05669098719954491,-0.008860423229634762,-0.19168156385421753,1013.76984,
2021.02.13 19:03:00,79.0,23.0,2.300705,19.519579,-42.39469,-0.026316198,0.6428032,9.769261,0.0051664133,-0.0032740403,-0.010983565,-0.06570360064506531,0.0026937690563499928,-0.09790537506341934,1013.7696,
2021.02.13 19:03:00,79.0,23.0,2.6401825,19.123653,-42.481796,0.03282936,0.5858248,9.752315,-0.0029248921,-7.2681275E-4,0.0061398554,-0.05999790132045746,-0.0033663020003587008,-0.12793375551700592,1013.7695,
2021.02.13 19:03:00,79.0,23.0,2.948906,19.135334,-42.4758,0.018659022,0.61589813,9.730062,0.001194274,-0.0039526857,-0.002009641,-0.06321403384208679,-0.0019176650093868375,-0.1382470428943634,1013.7686,
2021.02.13 19:03:00,79.0,23.0,2.445221,19.228771,-42.94761,0.018105676,0.6020296,9.829666,-0.0030164572,0.0049136356,0.006676578,-0.06116968020796776,-0.0018419401021674275,-0.11518707871437073,1013.7685,
2021.02.13 19:03:01,79.0,23.0,3.9191284,19.32558,-42.752075,0.024003409,0.59579414,9.703947,0.011084026,-0.0050067976,0.008557686,-0.06131993606686592,-0.0024735666811466217,-0.18168607354164124,1013.76825,
2021.02.13 19:03:01,79.0,23.0,3.39534,18.80037,-42.46527,0.092991866,0.5506085,9.743328,-0.0051863254,-4.0549328E-4,0.013103468,-0.05644873529672623,-0.009543867781758308,-0.17767569422721863,1013.7682,
2021.02.13 19:03:01,79.0,23.0,4.148117,19.931767,-43.77916,0.038952325,0.5941681,9.764415,-0.0015682976,-3.0848247E-4,-2.423639E-4,-0.06077493354678154,-0.003989191260188818,-0.1893731653690338,1013.7682,
2021.02.13 19:03:01,79.0,23.0,3.7891846,20.128876,-43.317017,0.03863952,0.5887268,9.705613,-0.0021575633,-0.0053184307,0.0017459254,-0.060583677142858505,-0.003981130663305521,-0.172677680850029,1013.7682,
2021.02.13 19:03:01,79.0,23.0,3.0053406,17.96629,-42.365013,0.09459323,0.5777462,9.823902,-0.018530989,-0.0022057798,0.010372444,-0.058739881962537766,-0.009628587402403355,-0.1656099110841751,1013.7682,
2021.02.13 19:03:01,79.0,23.0,2.774704,19.690994,-41.560875,0.048574995,0.60245323,9.739219,0.005455426,-0.0038002662,-0.0061126263,-0.06177899241447449,-0.004987524356693029,-0.13341321051120758,1013.768,
2021.02.13 19:03:01,79.0,23.0,3.0454178,20.075302,-42.576637,0.045771822,0.5817503,9.842277,-0.004424418,-0.005134528,0.0022207145,-0.059037961065769196,-0.004650498274713755,-0.14284096658229828,1013.7679,
2021.02.13 19:03:01,79.0,23.0,4.1641617,19.80261,-41.72503,0.12068704,0.5472012,9.665816,0.02071041,-0.012430112,-5.090029E-4,-0.05654723942279816,-0.012485316023230553,-0.20864997804164886,1013.7679,
2021.02.13 19:03:01,79.0,23.0,2.483757,19.995485,-41.98329,0.030585362,0.62655526,9.794251,-0.004618331,0.0011705473,-0.015506499,-0.06388437002897263,-0.0031227769795805216,-0.11501538008451462,1013.7679,
2021.02.13 19:03:01,79.0,23.0,3.1743011,19.866268,-42.765274,0.064420275,0.60384375,9.765769,0.0021131723,-0.0038639659,0.002074957,-0.06175273284316063,-0.006596443708986044,-0.15264859795570374,1013.7679,
2021.02.13 19:03:01,79.0,23.0,2.518692,18.703712,-42.566208,0.09156401,0.60135317,9.769844,0.0068085087,0.002515776,-0.007901944,-0.06147172302007675,-0.009371831081807613,-0.13623973727226257,1013.7679,
2021.02.13 19:03:01,79.0,23.0,5.4101562,20.912334,-43.630005,0.0913563,0.5765597,9.690502,0.0077725155,-0.0026823194,-0.0071414937,-0.059424713253974915,-0.009427127428352833,-0.24318695068359375,1013.76776,
2021.02.13 19:03:01,79.0,23.0,4.2545395,19.451212,-41.864082,0.0015622926,0.64720416,9.730362,-0.007350795,-0.0031411974,-0.011817302,-0.06641605496406555,-1.605585275683552E-4,-0.18975315988063812,1013.7676,
2021.02.13 19:03:01,79.0,23.0,3.2067184,19.723305,-43.003914,0.07429091,0.61463004,9.802903,-0.0033941376,-0.001820651,0.002651011,-0.06261501461267471,-0.007578314747661352,-0.15659251809120178,1013.76746,
2021.02.13 19:03:01,79.0,23.0,3.766014,18.038496,-43.05291,0.08862109,0.6045484,9.74535,-0.0063689225,-0.0010334001,-2.400924E-4,-0.06195260211825371,-0.00909342896193266,-0.1985078603029251,1013.7674,
2021.02.13 19:03:02,79.0,23.0,1.9638977,18.06475,-43.04167,0.04244492,0.6398194,9.745615,2.8973795E-5,-0.0052126,0.0010047512,-0.0655573233962059,-0.004355256445705891,-0.1028420552611351,1013.7674,
2021.02.13 19:03:02,79.0,23.0,3.0508804,19.093021,-42.79975,0.034052704,0.6147099,9.79387,-0.007219787,0.0058236266,-0.0013460747,-0.06268215924501419,-0.00347692659124732,-0.14615733921527863,1013.7673,
2021.02.13 19:03:02,79.0,23.0,3.6685867,19.43343,-42.47602,0.05106604,0.6365114,9.72161,0.014963148,0.0023466225,0.005021075,-0.06537964195013046,-0.005252789240330458,-0.17379958927631378,1013.7673,
2021.02.13 19:03:02,79.0,23.0,3.4978256,19.942692,-42.762375,0.031431768,0.6110534,9.695895,0.0022863108,0.010209662,0.0043301363,-0.06293829530477524,-0.0032417490147054195,-0.15959154069423676,1013.7673,
2021.02.13 19:03:02,79.0,23.0,2.2855225,19.060535,-42.38945,0.03155118,0.65747905,9.791432,-0.008663613,0.0011077658,0.013766432,-0.06704740226268768,-0.0032223139423877,-0.11036468297243118,1013.7673,
2021.02.13 19:03:02,79.0,23.0,3.16893,19.658722,-42.67308,0.05308947,0.63228637,9.71485,-0.0012498177,0.003697752,0.019357676,-0.06499189138412476,-0.005464720539748669,-0.15080943703651428,1013.7673,
2021.02.13 19:03:02,79.0,23.0,3.7238922,17.804064,-41.883537,0.13396822,0.6070868,9.754941,-0.0036169705,0.007255487,0.013649217,-0.06214777007699013,-0.013732506893575191,-0.2080029994249344,1013.7673,
2021.02.13 19:03:02,79.0,23.0,2.4756851,16.431396,-42.772102,0.036960475,0.6451315,9.76428,-0.002945396,0.002463422,-0.003931369,-0.06597420573234558,-0.003785255830734968,-0.13641496002674103,1013.7673,
2021.02.13 19:03:02,79.0,23.0,3.3502731,19.103373,-42.147972,0.025244532,0.6395157,9.737953,0.0017718379,0.0038628727,0.0029966687,-0.06557810306549072,-0.0025923799257725477,-0.15721307694911957,1013.7673,
2021.02.13 19:03:02,79.0,23.0,3.1205444,18.46854,-43.363823,0.08798685,0.5852193,9.75517,-0.005795655,-5.212099E-4,0.004214335,-0.05991644412279129,-0.009019264951348305,-0.1654484122991562,1013.7673,
2021.02.13 19:03:02,79.0,23.0,3.7799072,18.356514,-43.046173,0.04223767,0.60916215,9.73882,-0.0070976303,-9.00768E-4,-0.0079243835,-0.062467917799949646,-0.004337014630436897,-0.18662451207637787,1013.7673,
2021.02.13 19:03:02,79.0,23.0,3.899414,19.57275,-40.862976,-0.0061482205,0.60652184,9.731903,-0.014031568,-0.0025007855,-0.004740432,-0.0622425302863121,6.31759234238416E-4,-0.1736922562122345,1013.76697,
2021.02.13 19:03:02,79.0,23.0,3.4560928,19.161457,-42.98494,-0.0033225603,0.6284409,9.786321,-0.020882482,-9.4231917E-4,0.00603083,-0.06412820518016815,3.3951064688153565E-4,-0.1560339480638504,1013.76685,
2021.02.13 19:03:02,79.0,23.0,3.075142,19.868948,-42.812866,0.053143,0.54800653,9.784417,-0.0064773657,0.004115911,0.013529593,-0.05594881623983383,-0.005431337747722864,-0.14770109951496124,1013.76483,
2021.02.13 19:03:03,79.0,23.0,2.900772,19.304295,-43.275642,0.021921804,0.56841856,9.709199,-0.0090914145,0.0060171247,0.0072876383,-0.058477435261011124,-0.002257834654301405,-0.136686310172081,1013.76416,
2021.02.13 19:03:03,79.0,23.0,3.515915,19.205183,-42.22718,-0.0017978043,0.59729075,9.754243,-0.01047304,0.0039492613,0.014734425,-0.061157580465078354,1.843099744291976E-4,-0.1599145531654358,1013.7641,
2021.02.13 19:03:03,79.0,23.0,2.6723938,19.963837,-43.18798,0.041575696,0.53631264,9.702522,-0.012218283,0.001967893,-0.0015692608,-0.0552188940346241,-0.004285013768821955,-0.1273491233587265,1013.76404,
2021.02.13 19:03:03,79.0,23.0,3.0225754,18.391687,-41.945053,0.026171124,0.56168437,9.830876,-0.023909848,0.004910191,-0.0011704564,-0.0570724718272686,-0.0026621290016919374,-0.14988625049591064,1013.764,
2021.02.13 19:03:03,79.0,23.0,3.1462173,17.864397,-42.647163,0.028707499,0.5324139,9.723527,0.0013875315,-0.005610566,-2.2426154E-4,-0.05470036342740059,-0.002952366368845105,-0.16083498299121857,1013.7639,
2021.02.13 19:03:03,79.0,23.0,3.2847824,19.92622,-42.954887,0.027999975,0.5322699,9.791238,0.0043229507,8.174813E-4,-9.135725E-4,-0.05430818349123001,-0.0028596892952919006,-0.15211829543113708,1013.7639,
2021.02.13 19:03:03,79.0,23.0,3.3001938,20.147823,-42.19439,0.009604823,0.5436101,9.772333,7.2773173E-4,-0.005017829,7.3496485E-4,-0.05557016283273697,-9.828583570197225E-4,-0.14769884943962097,1013.7639,
2021.02.13 19:03:03,79.0,23.0,3.7601318,20.323275,-42.947433,0.023511613,0.52269065,9.693996,-0.015674058,8.4934785E-5,0.007183493,-0.053866688162088394,-0.002425373997539282,-0.16930705308914185,1013.7638,
2021.02.13 19:03:03,79.0,23.0,3.721077,19.598211,-44.073433,0.037380785,0.55556303,9.725345,-0.004758677,0.00143038,-6.4916955E-4,-0.05706283822655678,-0.003843627404421568,-0.1744149923324585,1013.7638,
2021.02.13 19:03:03,79.0,23.0,3.0669785,19.56891,-43.07959,0.04115225,0.52308446,9.844388,-0.011749484,0.009718468,0.001710366,-0.05308490991592407,-0.0041802506893873215,-0.14768294990062714,1013.7638,
2021.02.13 19:03:03,79.0,23.0,3.1239014,19.859102,-41.974228,0.016573844,0.5320688,9.658069,0.0032506539,-0.005423571,-0.0028828476,-0.05503488704562187,-0.001716060214675963,-0.14337576925754547,1013.7638,
2021.02.13 19:03:03,79.0,23.0,3.0793152,18.411026,-42.79921,0.017393386,0.552434,9.792836,-0.013475876,0.0033675712,-0.001465509,-0.056352242827415466,-0.0017761318013072014,-0.15060733258724213,1013.7638,
2021.02.13 19:03:03,79.0,23.0,3.0915375,19.856117,-41.412582,0.027284654,0.51740706,9.779429,-0.004433897,0.0069815773,0.0021595233,-0.052858203649520874,-0.002789997262880206,-0.14465303719043732,1013.7638,
2021.02.13 19:03:04,79.0,23.0,3.2579727,20.074566,-41.366142,0.0013995375,0.5067343,9.7055,-0.0038064085,0.0016878418,-0.0024994873,-0.052163682878017426,-1.4420047227758914E-4,-0.1459520310163498,1013.7638,
2021.02.13 19:03:04,79.0,23.0,3.0483856,20.163776,-41.464935,0.026008233,0.5384848,9.772799,-0.014375946,0.0011426278,0.0043870313,-0.0550445131957531,-0.0026612819638103247,-0.14000414311885834,1013.7638,
2021.02.13 19:03:04,79.0,23.0,3.1551437,21.731125,-42.41973,0.047187116,0.48995385,9.712627,-0.006506431,-1.5863281E-4,0.0025117695,-0.0504017174243927,-0.004858288913965225,-0.14006727933883667,1013.7638,
2021.02.13 19:03:04,79.0,23.0,2.1289062,20.364447,-43.050003,-0.0045773,0.553799,9.775828,-0.02072448,0.0036547747,-0.0054966644,-0.056589338928461075,4.6822629519738257E-4,-0.09236042946577072,1013.7638,
2021.02.13 19:03:04,79.0,23.0,3.1421204,19.850452,-41.92301,0.05646683,0.48685157,9.766102,-0.016002567,-0.0076991003,0.0060173115,-0.04980910196900368,-0.005781856831163168,-0.15324467420578003,1013.7638,
2021.02.13 19:03:04,79.0,23.0,3.990425,19.752258,-42.659805,-0.0041145324,0.49681696,9.772714,-0.00787234,-0.004043282,-0.005231683,-0.050793424248695374,4.210224433336407E-4,-0.17949795722961426,1013.7638,
2021.02.13 19:03:04,79.0,23.0,3.3427048,18.678083,-42.470215,0.074448146,0.45278892,9.776667,-0.014343912,-0.0030618617,0.005815476,-0.046278808265924454,-0.007614733185619116,-0.1759367436170578,1013.7638,
2021.02.13 19:03:04,79.0,23.0,3.0247269,18.67472,-42.09324,0.010529064,0.50764006,9.762329,-0.0017752538,0.0012102525,-0.012281822,-0.051953066140413284,-0.0010785397607833147,-0.14629969000816345,1013.7639,
2021.02.13 19:03:04,79.0,23.0,2.59906,19.061794,-41.412163,0.095297314,0.38048038,9.776267,-0.006505211,0.013222804,-0.008833375,-0.038897302001714706,-0.009747514501214027,-0.14434584975242615,1013.7639,
2021.02.13 19:03:04,79.0,23.0,3.2501297,20.022732,-41.92228,-0.038535867,0.43596753,9.640272,-0.0063684573,0.0073026917,-0.033978254,-0.0451924204826355,0.003997362218797207,-0.139856219291687,1013.7639,
2021.02.13 19:03:04,79.0,23.0,3.8851547,20.475039,-41.834663,-0.073678605,0.45441362,9.801932,-0.03689079,0.021816421,-0.017615356,-0.046325117349624634,0.007516601122915745,-0.15812943875789642,1013.7639,
2021.02.13 19:03:04,79.0,23.0,4.0049133,20.086987,-42.946747,-0.006633684,0.43878445,9.843331,-0.016026387,0.013894198,0.0019297041,-0.04454732686281204,6.739266100339592E-4,-0.1789575070142746,1013.764,
2021.02.13 19:03:04,79.0,23.0,4.395645,21.522964,-42.573082,0.058544967,0.35622635,9.763366,0.0042003253,0.005626318,0.0010717311,-0.03646918758749962,-0.005996319931000471,-0.19901542365550995,1013.76404,
2021.02.13 19:03:04,79.0,23.0,4.0923843,19.969437,-42.582253,0.05050996,0.4407231,10.024441,0.028715309,0.009130876,-0.03088745,-0.04393600672483444,-0.005038638133555651,-0.19488166272640228,1013.76404,
2021.02.13 19:03:04,79.0,23.0,1.5672913,20.10059,-41.851578,-0.020771477,0.5196052,9.680905,0.12384054,-0.06098877,-0.055281118,-0.05362163111567497,0.002145610051229596,-0.06611430644989014,1013.7644,
2021.02.13 19:03:05,79.0,23.0,2.8159256,19.499199,-42.487343,-0.030037256,0.59869707,9.575103,0.109292105,-0.02646562,-0.0445198,-0.06244484335184097,0.003137006191536784,-0.12072394788265228,1013.7644,
2021.02.13 19:03:05,79.0,23.0,3.2019272,19.414833,-43.509087,0.004841559,0.6711743,9.908242,0.026602132,-0.034517333,-0.00886177,-0.06763565540313721,-4.886395181529224E-4,-0.1434745490550995,1013.76855,
2021.02.13 19:03:05,79.0,23.0,3.529869,20.04913,-43.22593,0.1023564,0.67901325,9.858411,0.11107667,-0.10310912,0.027550213,-0.06876423954963684,-0.010382273234426975,-0.17150714993476868,1013.76886,
2021.02.13 19:03:05,79.0,23.0,1.8960953,18.782795,-43.137283,0.25928918,0.6711447,9.419101,-0.08034462,0.06323778,0.008602481,-0.07110651582479477,-0.02752106636762619,-0.14049430191516876,1013.76953,
