Time,X-cord,Y-cord,Mag_x,Mag_y,Mag_z,Acc_x,Acc_y,Acc_z,Gyro_x,Gyro_y,Gyro_z,Orn_x,Orn_y,Orn_z,Pressure,
2021.02.13 18:47:46,33.0,24.0,48.76155,-9.073859,-41.28582,0.02832908,0.6555334,10.188848,0.029372666,0.017714906,-0.0423608,-0.06424952298402786,-0.002780393697321415,-1.7012618780136108,1013.65674,
2021.02.13 18:47:46,33.0,24.0,49.4608,-9.089247,-41.11116,-0.013712724,0.7936089,9.54998,0.090005994,-0.055022106,-0.043185174,-0.08291000127792358,0.0014358892804011703,-1.6846206188201904,1013.6636,
2021.02.13 18:47:46,33.0,24.0,50.08557,-9.477371,-42.066513,-0.17249002,0.7174904,9.67113,0.011339557,0.010676548,-0.003380331,-0.07404148578643799,0.017833668738603592,-1.6973079442977905,1013.6636,
2021.02.13 18:47:46,33.0,24.0,49.45108,-7.911125,-41.852448,-0.02682604,0.75403374,9.801541,-0.009918276,0.0011977956,0.03259646,-0.0767786055803299,0.002736913738772273,-1.6651159524917603,1013.6636,
2021.02.13 18:47:46,33.0,24.0,50.9749,-9.280729,-41.911636,-0.029259859,0.789759,9.791187,0.048518613,0.028119363,0.026461419,-0.08048557490110397,0.002988378284499049,-1.6857033967971802,1013.6636,
2021.02.13 18:47:46,33.0,24.0,51.259125,-9.054691,-41.225677,-0.106158875,0.759443,9.939798,0.07586715,0.06370581,0.030283492,-0.07625178247690201,0.010679778642952442,-1.6853426694869995,1013.6636,
2021.02.13 18:47:46,33.0,24.0,50.35559,-10.233831,-40.5039,0.047917485,0.8093405,9.348441,0.10124466,-0.01578878,0.043669727,-0.0863584503531456,-0.005125674419105053,-1.7030140161514282,1013.6635,
2021.02.13 18:47:46,33.0,24.0,50.277054,-9.1422,-40.96917,0.02805832,0.8370468,9.806633,-0.005955819,0.0024917629,-0.015117877,-0.08514844626188278,-0.002861149376258254,-1.6821932792663574,1013.6633,
2021.02.13 18:47:47,33.0,24.0,50.475067,-9.426983,-41.414963,-0.25937036,0.9757297,9.61587,-0.050210547,-0.026121192,0.02382909,-0.10108812898397446,0.02696661464869976,-1.6730648279190063,1013.6623,
2021.02.13 18:47:47,33.0,24.0,49.136246,-11.025369,-40.565544,-0.06188315,0.84670407,9.979159,-0.08501155,-0.005494199,0.0654446,-0.08464287966489792,0.006201159209012985,-1.7236483097076416,1013.66205,
2021.02.13 18:47:47,33.0,24.0,48.748383,-9.5457115,-41.347366,0.107984185,0.6423114,9.974871,-0.013867579,0.021250784,0.0528364,-0.06430041790008545,-0.010825199075043201,-1.7102150917053223,1013.6616,
2021.02.13 18:47:47,33.0,24.0,48.86499,-10.143668,-41.01101,0.054768566,0.6027566,9.340222,0.05691891,-0.006557524,0.017635394,-0.0644429624080658,-0.0058636656031012535,-1.722361445426941,1013.6616,
2021.02.13 18:47:47,33.0,24.0,50.525894,-9.617267,-40.513527,0.08990336,0.63029456,9.572177,-0.057592016,-0.0061912267,0.0076531647,-0.06574871391057968,-0.009391877800226212,-1.7067967653274536,1013.6613,
2021.02.13 18:47:47,33.0,24.0,49.839706,-10.204635,-41.012474,0.057777707,0.6931684,10.05098,-0.06912722,0.0060034883,-0.0281186,-0.06885509938001633,-0.005748401861637831,-1.7170941829681396,1013.6613,
2021.02.13 18:47:47,33.0,24.0,50.73178,-10.364279,-40.398506,-0.14848414,0.8060426,9.595794,-0.0016954965,-0.0058405106,-0.045842618,-0.08379285782575607,0.015472643077373505,-1.707295298576355,1013.6613,
2021.02.13 18:47:47,33.0,24.0,51.50644,-10.129374,-40.979797,0.06803686,0.63132715,9.859099,-0.037573524,0.0042612003,-0.005176891,-0.06394614279270172,-0.00690081063657999,-1.7148584127426147,1013.6614,
2021.02.13 18:47:47,33.0,24.0,49.875656,-9.955315,-42.163055,-0.1484933,0.74742144,9.681201,-0.012792565,-0.0039573708,-0.0337942,-0.07704151421785355,0.015337111428380013,-1.7045276165008545,1013.6616,
2021.02.13 18:47:47,33.0,24.0,49.908936,-9.564986,-41.318253,-0.02693299,0.6568474,9.824983,-0.03021241,-0.003873631,0.0104431445,-0.06675523519515991,0.002741269301623106,-1.7060896158218384,1013.6616,
2021.02.13 18:47:47,33.0,24.0,49.769394,-8.650678,-41.65042,-0.034678977,0.64542097,9.763686,-0.018089475,-0.00251661,0.0030316762,-0.06600777804851532,0.003551817499101162,-1.6886038780212402,1013.6616,
2021.02.13 18:47:47,33.0,24.0,49.2865,-8.549351,-41.178818,0.022207385,0.63171715,9.731625,-0.012579487,-0.00450523,0.0033657667,-0.0648227259516716,-0.002281977329403162,-1.6891388893127441,1013.6616,
2021.02.13 18:47:47,33.0,24.0,49.55858,-9.562793,-41.634598,0.042667944,0.5582157,9.826953,-0.014614996,7.1739405E-4,-0.0075843004,-0.056743040680885315,-0.004341903142631054,-1.7145226001739502,1013.6614,
2021.02.13 18:47:47,33.0,24.0,50.513824,-9.749193,-40.483658,-0.21770132,0.67806935,9.753194,0.0046319,-0.0020777644,-0.031530354,-0.06939388066530228,0.022317321971058846,-1.7078648805618286,1013.6614,
2021.02.13 18:47:48,33.0,24.0,50.983368,-9.445206,-41.154762,-0.037114162,0.6044705,9.706401,-0.0011498947,-0.0074938415,0.025970703,-0.06219467520713806,0.003823660546913743,-1.7048966884613037,1013.6611,
2021.02.13 18:47:48,33.0,24.0,50.72824,-9.309712,-40.979294,0.072467364,0.5537303,9.77564,-0.011094372,-0.008651013,0.020117035,-0.056581880897283554,-0.007412920240312815,-1.7070930004119873,1013.66095,
2021.02.13 18:47:48,33.0,24.0,49.200836,-10.053022,-40.766808,-0.05964564,0.6422803,9.744437,-0.0038355251,-0.009906019,0.0036923327,-0.06581607460975647,0.00612091738730669,-1.7194418907165527,1013.66095,
2021.02.13 18:47:48,33.0,24.0,50.362396,-8.740277,-40.7472,0.106989,0.5208133,9.744102,-0.0051840786,-0.013604126,0.01924243,-0.05339505895972252,-0.010979432612657547,-1.6996439695358276,1013.6609,
2021.02.13 18:47:48,33.0,24.0,50.064163,-8.723472,-41.138275,-0.022170633,0.61282426,9.766689,-0.004800286,-0.009290128,-0.018422224,-0.06266404688358307,0.002270021475851536,-1.6927211284637451,1013.6609,
2021.02.13 18:47:48,33.0,24.0,51.18474,-9.313116,-41.08146,-0.079472035,0.71399593,9.840518,-4.6889763E-4,-0.007963632,-0.0017540337,-0.07242746651172638,0.008075825870037079,-1.6937888860702515,1013.66077,
2021.02.13 18:47:48,33.0,24.0,50.006638,-9.726411,-41.085365,0.12143305,0.5123248,9.662149,0.018949686,-0.0030368865,0.016779857,-0.05297011509537697,-0.012567250989377499,-1.7195523977279663,1013.6607,
2021.02.13 18:47:48,33.0,24.0,50.14792,-9.904221,-41.008186,-0.029403865,0.63220245,9.721611,-0.007756944,0.0029548677,-0.0104755815,-0.06493889540433884,0.003024578560143709,-1.7139885425567627,1013.6607,
2021.02.13 18:47:48,33.0,24.0,51.2704,-8.687812,-41.34539,0.025446778,0.5978573,9.842284,-0.00971621,0.003831218,0.010983503,-0.060669008642435074,-0.0025854487903416157,-1.6903743743896484,1013.6606,
2021.02.13 18:47:48,33.0,24.0,50.225464,-9.368085,-40.705612,0.008088283,0.5530255,9.668483,0.0042029796,0.0066724815,0.0038588755,-0.05713651329278946,-8.365616085939109E-4,-1.7097821235656738,1013.6604,
2021.02.13 18:47:48,33.0,24.0,50.13713,-9.804048,-40.16427,-0.022261282,0.6252381,9.744817,-0.019872393,0.0033874908,0.013197597,-0.0640731081366539,0.0022844187915325165,-1.7137818336486816,1013.6604,
2021.02.13 18:47:48,33.0,24.0,50.086655,-11.235007,-39.916985,0.07725275,0.5685236,9.771333,-0.012234543,-0.0027286452,0.018374098,-0.05811547860503197,-0.007905896753072739,-1.745976209640503,1013.6604,
2021.02.13 18:47:48,33.0,24.0,50.778122,-8.882547,-40.743797,0.054857433,0.5958739,9.760367,-0.014286013,-0.0014591488,0.005357637,-0.060973718762397766,-0.005620368290692568,-1.6956323385238647,1013.6606,
2021.02.13 18:47:48,33.0,24.0,50.599686,-9.602782,-41.542564,-0.0014873216,0.64535546,9.824074,-0.007993561,0.00107409,-0.0063398676,-0.06559698283672333,1.5139560855459422E-4,-1.7055364847183228,1013.6607,
2021.02.13 18:47:48,33.0,24.0,51.093933,-9.520567,-41.24192,0.06309769,0.5932352,9.698101,0.0012984416,0.0030248233,-0.010762917,-0.06109282374382019,-0.00650609889999032,-1.7063496112823486,1013.66077,
2021.02.13 18:47:49,33.0,24.0,49.702805,-8.891603,-40.471825,0.04893331,0.5926674,9.820315,0.025513867,-0.005792462,-0.019807976,-0.0602773055434227,-0.004982823971658945,-1.6993786096572876,1013.6608,
2021.02.13 18:47:49,33.0,24.0,49.440063,-9.797829,-41.326927,0.07485398,0.5680305,9.920121,-0.017216098,0.0032079406,0.0032861778,-0.05719635263085365,-0.007545528467744589,-1.7192569971084595,1013.6609,
2021.02.13 18:47:49,33.0,24.0,48.988785,-10.106854,-41.929146,-0.043133188,0.64568967,9.728291,0.046827346,0.005907318,-0.022343226,-0.0662745013833046,0.004433759953826666,-1.7191481590270996,1013.6609,
2021.02.13 18:47:49,33.0,24.0,50.862747,-9.402707,-41.18979,-0.06747807,0.64236194,9.842792,0.033060323,0.008673723,-0.0022500698,-0.06516822427511215,0.006855475250631571,-1.7020626068115234,1013.6609,
2021.02.13 18:47:49,33.0,24.0,50.34752,-9.121882,-41.326523,0.026555182,0.63053066,9.696394,0.055695996,-0.0070160264,0.020043736,-0.06493566930294037,-0.0027386590372771025,-1.6975383758544922,1013.6609,
2021.02.13 18:47:49,33.0,24.0,50.21782,-9.547563,-40.008667,0.07776862,0.65616536,9.637119,0.022046857,-0.005480885,0.011360078,-0.06798016279935837,-0.008069519884884357,-1.705230951309204,1013.6609,
2021.02.13 18:47:49,33.0,24.0,49.7874,-10.757552,-40.952858,-0.003948495,0.6642211,9.782089,-0.0036607927,-0.0021958663,-0.008095752,-0.0677976906299591,4.0364533197134733E-4,-1.729329228401184,1013.6609,
2021.02.13 18:47:49,33.0,24.0,50.43875,-10.159656,-41.313515,-0.025584154,0.70741796,9.647463,-0.015415521,-0.014056342,8.2057156E-4,-0.07319558411836624,0.00265189865604043,-1.7109707593917847,1013.66095,
2021.02.13 18:47:49,33.0,24.0,50.5002,-10.618432,-42.188873,0.06994253,0.6703539,9.840629,-0.035628367,-0.0017765017,-0.0011613669,-0.06801425665616989,-0.007107406854629517,-1.7222131490707397,1013.66095,
2021.02.13 18:47:49,33.0,24.0,50.19452,-10.349243,-41.053978,0.039263148,0.61754346,9.642478,-0.011498246,-0.005181139,-0.014613955,-0.06395618617534637,-0.004071871284395456,-1.722852349281311,1013.66095,
2021.02.13 18:47:49,33.0,24.0,49.9075,-8.988667,-40.52652,0.015027843,0.66059345,9.813198,-0.040308237,-0.00589454,-0.0076322514,-0.06721535325050354,-0.0015313897747546434,-1.6952570676803589,1013.66095,
2021.02.13 18:47:49,33.0,24.0,49.773758,-7.973421,-41.949043,0.09037003,0.5626723,9.739659,-0.025369966,-0.0032102033,-0.006135416,-0.057704631239175797,-0.009278295561671257,-1.6813384294509888,1013.6611,
2021.02.13 18:47:49,33.0,24.0,49.635513,-8.975582,-41.46135,-0.014088613,0.65007323,9.825956,-0.027170347,-9.286561E-4,-0.021103358,-0.06606243550777435,0.001433814992196858,-1.6954941749572754,1013.6611,
2021.02.13 18:47:49,33.0,24.0,49.687622,-9.421991,-41.59761,-0.009470753,0.60336465,9.766402,-0.00128819,-5.7011226E-4,-0.0056569874,-0.061701174825429916,9.697276400402188E-4,-1.7076293230056763,1013.6613,
2021.02.13 18:47:50,33.0,24.0,49.88437,-9.839247,-41.579796,0.027953401,0.5958073,9.745305,-0.0036150555,0.002337689,0.0053943247,-0.06106163188815117,-0.0028683890122920275,-1.715611457824707,1013.6614,
2021.02.13 18:47:50,33.0,24.0,49.908966,-9.255624,-41.6531,0.08780271,0.5643471,9.781028,0.0030780456,0.0022262488,-0.012024931,-0.057631924748420715,-0.008976598270237446,-1.7065283060073853,1013.6614,
2021.02.13 18:47:50,33.0,24.0,49.22467,-8.558568,-42.3954,0.047986716,0.5649078,9.751756,0.001853445,-0.0020073513,-0.013436351,-0.05786346271634102,-0.004920788574963808,-1.693705439567566,1013.6614,
2021.02.13 18:47:50,33.0,24.0,50.622818,-9.170343,-40.848404,0.058033973,0.57603353,9.797189,-0.0013359899,-5.8376894E-4,-0.0130429175,-0.058727163821458817,-0.005923463962972164,-1.703208565711975,1013.6614,
2021.02.13 18:47:50,33.0,24.0,51.657333,-8.325239,-41.066406,0.052039433,0.5631832,9.7373705,0.0041309227,-0.0048245215,-0.018382017,-0.057772111147642136,-0.0053442493081092834,-1.6851108074188232,1013.6614,
2021.02.13 18:47:50,33.0,24.0,49.309708,-9.70386,-42.31697,0.027319962,0.591166,9.699153,-0.0031323505,-0.0055505335,-0.022060636,-0.06087472289800644,-0.0028167294804006815,-1.7138562202453613,1013.6614,
2021.02.13 18:47:50,33.0,24.0,49.35898,-9.513243,-41.408783,0.03844717,0.5956709,9.796775,-0.004911108,0.0018470439,-0.01784607,-0.060727525502443314,-0.003924452234059572,-1.7111084461212158,1013.6614,
2021.02.13 18:47:50,33.0,24.0,50.530487,-9.500631,-41.82419,0.01806904,0.5769494,9.7681,-0.0038459117,-4.328544E-4,-0.004864147,-0.058996010571718216,-0.0018497988348826766,-1.708700180053711,1013.6614,
2021.02.13 18:47:50,33.0,24.0,50.538803,-8.64942,-41.789856,0.055206787,0.5740874,9.744499,0.0071931137,0.0023395792,-0.011401821,-0.05884503200650215,-0.005665370263159275,-1.6921789646148682,1013.66205,
2021.02.13 18:47:50,33.0,24.0,49.66165,-9.661555,-40.966934,0.0020905759,0.5982415,9.736568,-0.0017328183,-0.001078111,-0.0019990345,-0.06136560067534447,-2.147138147847727E-4,-1.7134008407592773,1013.66205,
2021.02.13 18:47:50,33.0,24.0,49.325363,-8.589147,-41.222237,0.023063721,0.5970251,9.706737,-0.004895134,4.5831583E-4,-0.002914393,-0.06142870709300041,-0.002376048592850566,-1.6925928592681885,1013.6622,
2021.02.13 18:47:50,33.0,24.0,48.91873,-9.391867,-41.571854,0.04100414,0.58408433,9.767814,-0.008136505,-3.254396E-4,0.0030659926,-0.059725191444158554,-0.004197858273983002,-1.710551381111145,1013.6624,
2021.02.13 18:47:50,33.0,24.0,50.5484,-9.246404,-41.1501,0.045983106,0.5879319,9.762333,-0.012443256,6.730248E-4,2.0354218E-4,-0.060151200741529465,-0.004710223060101271,-1.703439474105835,1013.6624,
2021.02.13 18:47:51,33.0,24.0,49.88388,-9.193164,-41.023697,0.01691132,0.61549354,9.771027,-0.0013365294,3.280983E-4,-0.0039119376,-0.06290848553180695,-0.0017307600937783718,-1.7021820545196533,1013.6624,
2021.02.13 18:47:51,33.0,24.0,50.390198,-9.785094,-40.983223,0.08374295,0.5266257,9.744491,-0.004561019,-6.329162E-4,0.0057291463,-0.05398891121149063,-0.00859366450458765,-1.719139575958252,1013.6624,
2021.02.13 18:47:51,33.0,24.0,50.24666,-8.686472,-41.08622,-0.01465246,0.6136318,9.787736,-0.009376322,0.0036982424,-0.010750955,-0.06261193007230759,0.0014970212941989303,-1.6916340589523315,1013.6624,
2021.02.13 18:47:51,33.0,24.0,49.195755,-9.016361,-41.349464,0.07728227,0.5581809,9.72309,7.598528E-4,-0.0032696961,0.00356832,-0.0573430210351944,-0.00794815644621849,-1.7043629884719849,1013.6624,
2021.02.13 18:47:51,33.0,24.0,48.873047,-8.961668,-40.942467,0.031492006,0.56506085,9.814553,-0.0075368444,-2.7202244E-4,-0.0062667048,-0.05750999227166176,-0.003208693815395236,-1.7047247886657715,1013.6624,
2021.02.13 18:47:51,33.0,24.0,49.504074,-8.8217745,-42.32328,0.006371984,0.57478493,9.711525,0.014577282,-0.0015170964,-0.0068978285,-0.05911688134074211,-6.561258342117071E-4,-1.6974613666534424,1013.6624,
2021.02.13 18:47:51,33.0,24.0,49.99655,-10.073663,-41.054504,0.026804464,0.5761972,9.757289,-0.0011758693,0.0033264281,0.0019564144,-0.05898427963256836,-0.0027471152134239674,-1.7221779823303223,1013.6624,
2021.02.13 18:47:51,33.0,24.0,50.070847,-10.0823145,-40.90275,0.075866066,0.57859737,9.763515,0.0014878362,-0.0012937592,0.004967685,-0.05919015780091286,-0.007770207244902849,-1.7218215465545654,1013.6625,
2021.02.13 18:47:51,33.0,24.0,50.580505,-10.053673,-41.750755,0.02926074,0.5480805,9.728251,0.0015942241,0.004054728,-0.0067932727,-0.05627930909395218,-0.0030078014824539423,-1.721459984779358,1013.6624,
2021.02.13 18:47:51,33.0,24.0,49.349472,-8.658361,-41.909325,0.009816774,0.62661284,9.784656,-0.0034143494,-0.0010017165,0.0014220588,-0.0639529898762703,-0.00100328226108104,-1.6909925937652588,1013.6624,
2021.02.13 18:47:51,33.0,24.0,49.399643,-9.874338,-40.902473,0.10333859,0.5305433,9.704329,-4.1720737E-4,-0.0019393036,0.0073607313,-0.05461332947015762,-0.01064830832183361,-1.7232344150543213,1013.6624,
2021.02.13 18:47:51,33.0,24.0,51.358826,-9.251969,-41.775223,0.014707249,0.59824854,9.8180065,-0.010995966,0.0040426524,-0.008673487,-0.06085849553346634,-0.001497986144386232,-1.7003378868103027,1013.6624,
2021.02.13 18:47:51,33.0,24.0,49.678818,-9.505456,-40.917564,0.03660576,0.56560475,9.713478,0.0012328979,2.9395474E-4,-1.8812716E-6,-0.05816276744008064,-0.003768535563722253,-1.7127482891082764,1013.6624,
2021.02.13 18:47:51,33.0,24.0,50.648773,-9.124929,-41.399292,0.09430072,0.52698153,9.747462,-0.013310819,4.337742E-4,0.0019377223,-0.0540083572268486,-0.009674085304141045,-1.705216407775879,1013.6624,
2021.02.13 18:47:51,33.0,24.0,50.292496,-8.680306,-41.398773,0.011492317,0.61595047,9.783428,-0.011109311,-0.0038737808,-0.0074862745,-0.06287552416324615,-0.0011746712261810899,-1.6907085180282593,1013.6624,
2021.02.13 18:47:52,33.0,24.0,49.360855,-7.8361883,-41.921097,0.062406134,0.5338457,9.760896,-4.8108073E-4,-0.0017201548,0.0031864531,-0.05463673919439316,-0.006393397226929665,-1.6822153329849243,1013.6625,
2021.02.13 18:47:52,33.0,24.0,50.719498,-8.507823,-40.668762,0.05371234,0.56223196,9.770362,-0.0024611207,-6.842279E-4,-0.0040103532,-0.057480379939079285,-0.005497421603649855,-1.691393494606018,1013.66254,
2021.02.13 18:47:52,33.0,24.0,49.23474,-9.969933,-41.34472,0.050419424,0.54668474,9.7053,0.006670097,9.464403E-5,-0.0040721074,-0.05626825615763664,-0.00519499322399497,-1.7241544723510742,1013.66284,
2021.02.13 18:47:52,33.0,24.0,49.91986,-8.160536,-41.912155,0.03553864,0.57622534,9.804572,-0.010047369,0.004512687,-0.0055270228,-0.05870317667722702,-0.003624684875831008,-1.6841092109680176,1013.66296,
2021.02.13 18:47:52,33.0,24.0,50.44908,-8.4238405,-41.000732,0.070522964,0.5450103,9.7375345,0.0012776796,-4.372761E-4,-2.1098717E-4,-0.055910252034664154,-0.007242257706820965,-1.6912086009979248,1013.66296,
2021.02.13 18:47:52,33.0,24.0,49.113785,-8.6720295,-41.276672,0.094170354,0.53402525,9.754439,-0.0016633039,-0.0013526332,-0.0057887724,-0.05468975007534027,-0.009653802029788494,-1.6999224424362183,1013.66296,
2021.02.13 18:47:52,33.0,24.0,49.81215,-8.220382,-40.727333,0.027010808,0.54399097,9.746742,-0.0019014587,0.0014272901,-0.01616634,-0.055754534900188446,-0.002771258121356368,-1.689332127571106,1013.66284,
2021.02.13 18:47:52,33.0,24.0,50.51097,-8.851595,-41.010765,0.06193461,0.52501553,9.772365,-0.006982402,-0.0015284674,-0.006247659,-0.053671836853027344,-0.006337644997984171,-1.7011542320251465,1013.66284,
2021.02.13 18:47:52,33.0,24.0,49.18518,-8.008508,-40.673325,0.040834133,0.53191286,9.737629,-6.888439E-4,-8.056662E-5,-0.014218711,-0.05456976220011711,-0.004193412140011787,-1.6875636577606201,1013.66284,
2021.02.13 18:47:52,33.0,24.0,48.879013,-8.49126,-40.941345,0.010057605,0.53423053,9.738949,-0.0057854857,5.074078E-6,-0.0067800228,-0.05480010062456131,-0.0010327193886041641,-1.6976392269134521,1013.66284,
2021.02.13 18:47:52,33.0,24.0,50.03412,-9.143037,-41.34028,0.05373171,0.51602167,9.79522,-0.0059650242,-0.0016840379,0.002805838,-0.052631523460149765,-0.0054854475893080235,-1.70859694480896,1013.6627,
2021.02.13 18:47:52,33.0,24.0,50.644653,-9.266127,-41.204475,0.057396457,0.5321242,9.76369,0.0025683767,0.003571103,-0.0016616452,-0.05444552004337311,-0.005878494121134281,-1.7080087661743164,1013.6626,
2021.02.13 18:47:52,33.0,24.0,49.340622,-10.154981,-41.401237,-0.032764763,0.54337126,9.731164,0.0020347717,0.0034922662,0.007010199,-0.055780015885829926,0.003366980468854308,-1.7284530401229858,1013.6625,
2021.02.13 18:47:52,33.0,24.0,49.81659,-8.88895,-42.739372,0.11531693,0.5043541,9.764554,-0.0043657906,0.0039612083,0.019679787,-0.0516020767390728,-0.011809200048446655,-1.7032328844070435,1013.6625,
2021.02.13 18:47:53,33.0,24.0,49.90181,-8.682957,-41.209373,0.027351206,0.5252767,9.751743,0.0013760878,0.0076720268,-8.611735E-4,-0.05381268635392189,-0.0028047431260347366,-1.6992685794830322,1013.6625,
2021.02.13 18:47:53,33.0,24.0,48.960953,-9.224489,-40.97168,0.027747,0.536616,9.731696,-0.008229072,-3.6646926E-4,0.009629813,-0.05508505180478096,-0.0028511909767985344,-1.7117213010787964,1013.6625,
2021.02.13 18:47:53,33.0,24.0,50.894455,-9.170132,-42.03814,0.10766462,0.52662325,9.800101,-0.012272843,-0.0033762031,0.0151861105,-0.053681645542383194,-0.010985630564391613,-1.7049617767333984,1013.6625,
2021.02.13 18:47:53,33.0,24.0,49.88414,-9.107624,-41.13349,0.051596075,0.51923555,9.715625,0.004822665,-0.003576545,3.861843E-4,-0.05339180305600166,-0.005310578737407923,-1.7079224586486816,1013.6625,
2021.02.13 18:47:53,33.0,24.0,49.983154,-8.362394,-41.760635,0.06671981,0.51023084,9.809727,-0.013367345,1.2764137E-4,0.0030532195,-0.05196472257375717,-0.006801288109272718,-1.6935145854949951,1013.6625,
2021.02.13 18:47:53,33.0,24.0,50.334213,-9.135948,-40.877922,0.02100227,0.5429972,9.742493,-0.003865525,-0.0030361828,0.006385887,-0.055677201598882675,-0.0021557353902608156,-1.7058817148208618,1013.6625,
2021.02.13 18:47:53,33.0,24.0,50.10411,-8.959706,-40.52729,0.023559349,0.54257625,9.763682,-0.0032513672,0.0015269354,-0.015303428,-0.05551360175013542,-0.002412952482700348,-1.703551173210144,1013.6625,
2021.02.13 18:47:53,33.0,24.0,49.538223,-9.075381,-41.93409,0.067274995,0.5057746,9.802316,-0.0053033717,-0.003281264,0.0051569836,-0.05155053362250328,-0.006863065995275974,-1.708802580833435,1013.6625,
2021.02.13 18:47:53,33.0,24.0,49.323914,-8.782274,-41.02881,0.03984547,0.50237465,9.753623,0.005977506,0.0051371087,-0.004252724,-0.05146055668592453,-0.004085174296051264,-1.7047725915908813,1013.6625,
2021.02.13 18:47:53,33.0,24.0,49.228348,-9.228947,-40.325966,0.04837891,0.47812948,9.770721,0.0027560694,8.579156E-4,0.0014161788,-0.04889531806111336,-0.0049513764679431915,-1.716613531112671,1013.66254,
2021.02.13 18:47:53,33.0,24.0,48.9693,-9.469843,-41.301964,0.11919633,0.5129038,9.757337,0.017563984,-0.0031697513,-0.013587906,-0.052513718605041504,-0.012215465307235718,-1.7177067995071411,1013.66254,
2021.02.13 18:47:53,33.0,24.0,49.87851,-7.3602314,-41.21808,-0.024388433,0.57071424,9.604213,0.004172161,-0.0068578,-0.008661069,-0.059353336691856384,0.002539341803640127,-1.6688216924667358,1013.66266,
2021.02.13 18:47:53,33.0,24.0,49.233566,-8.218371,-40.544,0.09857344,0.49844384,9.862128,-0.034770414,-0.0048405663,0.018290129,-0.05049572139978409,-0.009994816035032272,-1.694791555404663,1013.6627,
2021.02.13 18:47:53,33.0,24.0,49.82292,-9.88457,-40.248093,0.06460197,0.5519387,9.744705,0.0059352,-0.032770537,0.009955416,-0.056578170508146286,-0.0066293468698859215,-1.7216037511825562,1013.66284,
2021.02.13 18:47:54,33.0,24.0,48.897263,-8.799097,-41.179382,0.101239406,0.50175315,9.68329,-0.009412236,-0.025444292,0.024733838,-0.051767271012067795,-0.010454682633280754,-1.7054667472839355,1013.6629,
2021.02.13 18:47:54,33.0,24.0,49.45526,-8.930193,-41.397064,0.16695589,0.5089193,9.829061,-0.019303475,-0.0019200816,0.026575442,-0.05172336474061012,-0.01698431186378002,-1.7059900760650635,1013.66315,
2021.02.13 18:47:54,33.0,24.0,49.192566,-9.280266,-41.239754,0.19033551,0.4681693,9.702628,0.0055922,-0.007976666,0.009264647,-0.04820514842867851,-0.019614387303590775,-1.7163660526275635,1013.6635,
2021.02.13 18:47:54,33.0,24.0,49.512756,-7.87624,-41.182175,0.08325782,0.4900421,9.79042,-0.016241783,0.012260136,-0.0040673167,-0.050009679049253464,-0.008503803983330727,-1.6871700286865234,1013.6636,
2021.02.13 18:47:54,33.0,24.0,49.55986,-8.688304,-41.965393,0.22749424,0.49814007,9.64132,0.0084345965,-0.029968297,0.011757681,-0.05160696431994438,-0.023591376841068268,-1.700134038925171,1013.6636,
2021.02.13 18:47:54,33.0,24.0,49.63916,-8.254794,-42.248566,0.16615885,0.44510856,9.972077,-0.057223707,0.058818094,-0.022004806,-0.04459970444440842,-0.016660869121551514,-1.697264313697815,1013.66364,
