Time,X-cord,Y-cord,Mag_x,Mag_y,Mag_z,Acc_x,Acc_y,Acc_z,Gyro_x,Gyro_y,Gyro_z,Orn_x,Orn_y,Orn_z,Pressure,
2021.02.13 19:04:07,83.0,24.0,59.255814,-7.793002,-34.005486,-0.055066273,0.4461871,10.567116,-0.0905749,-0.010828554,-0.008678727,-0.04219847917556763,0.005211050622165203,-1.6776782274246216,1013.7837,
2021.02.13 19:04:07,83.0,24.0,58.2218,-8.062986,-34.191444,-0.041460704,0.6330107,9.414677,0.11978154,-0.030958105,-0.008520881,-0.06713488698005676,0.004403808619827032,-1.669217824935913,1013.78186,
2021.02.13 19:04:07,83.0,24.0,58.60576,-8.506996,-34.270805,0.08892694,0.40284204,9.7498045,0.0057612956,0.009183549,0.035743397,-0.04129275679588318,-0.009120642207562923,-1.6908481121063232,1013.7826,
2021.02.13 19:04:08,83.0,24.0,57.846695,-8.953845,-33.864998,0.035815153,0.48191682,9.63987,0.010315574,0.012767647,0.010912225,-0.049950115382671356,-0.003715297905728221,-1.6954238414764404,1013.7826,
2021.02.13 19:04:08,83.0,24.0,59.073425,-9.121772,-33.36689,0.14370042,0.4272401,10.007862,5.8586267E-4,0.02135666,-0.021588363,-0.042660146951675415,-0.014357767067849636,-1.699836015701294,1013.7829,
2021.02.13 19:04:08,83.0,24.0,58.664368,-7.415037,-34.27623,0.1444984,0.4232967,9.896478,0.046339232,0.0014156966,-0.043662246,-0.04274185374379158,-0.014599954709410667,-1.6715457439422607,1013.7829,
2021.02.13 19:04:08,83.0,24.0,58.43094,-8.614265,-33.43901,-0.03672669,0.47017395,9.571317,0.013082739,-0.0060476065,-0.049842674,-0.049083411693573,0.0038371430709958076,-1.6894811391830444,1013.7829,
2021.02.13 19:04:08,83.0,24.0,57.684235,-9.159369,-33.860672,0.050224382,0.38213423,10.038774,-0.03197443,0.0040715556,-0.03778018,-0.038046982139348984,-0.005002998281270266,-1.7060985565185547,1013.7826,
2021.02.13 19:04:08,83.0,24.0,58.57228,-8.409392,-34.047745,0.03121569,0.2697462,9.770378,0.014982821,0.022776987,-0.061187238,-0.027601422742009163,-0.0031949207186698914,-1.6974430084228516,1013.78235,
2021.02.13 19:04:08,83.0,24.0,58.576736,-8.393967,-34.044464,-0.11231502,0.41595265,9.726945,-0.007912949,0.029649952,-0.078174725,-0.042734041810035706,0.011546279303729534,-1.688895344734192,1013.78217,
2021.02.13 19:04:08,83.0,24.0,58.703766,-7.107848,-32.625496,-0.23820211,0.45379862,9.885448,-0.015339463,0.037359744,-0.040026855,-0.04586022347211838,0.024091575294733047,-1.666191816329956,1013.78204,
2021.02.13 19:04:08,83.0,24.0,58.671326,-7.024415,-33.213837,-0.02360349,0.3713615,9.976173,-0.022791842,0.033631876,0.017664105,-0.03720755875110626,0.002365981927141547,-1.6691064834594727,1013.78186,
2021.02.13 19:04:08,83.0,24.0,58.058075,-7.6405745,-33.798996,0.12099879,0.5124159,9.262601,0.021983774,-0.017407851,-0.01874864,-0.05525991693139076,-0.013062411919236183,-1.6696984767913818,1013.7817,
2021.02.13 19:04:08,83.0,24.0,58.072098,-7.2973585,-32.767204,-0.061158687,0.655134,9.640361,-0.04801605,-0.0020110055,-0.02911554,-0.0678517296910286,0.006343939807265997,-1.6575767993927002,1013.7817,
2021.02.13 19:04:08,83.0,24.0,58.01602,-7.238802,-33.31398,-0.04520829,0.37714186,9.855534,-0.06066389,-0.04488211,0.040716533,-0.03824795037508011,0.00458706496283412,-1.673256754875183,1013.7817,
2021.02.13 19:04:08,83.0,24.0,58.429367,-7.325223,-33.69922,0.39287695,0.100444056,9.517978,-0.025598248,-0.041946158,0.016666487,-0.010543718002736568,-0.041253939270973206,-1.6873029470443726,1013.7817,
2021.02.13 19:04:08,83.0,24.0,59.474792,-6.5969467,-33.038757,-0.45622587,0.93299323,9.891606,-0.07983855,0.010688273,-0.12146732,-0.09394419938325882,0.046089861541986465,-1.6262738704681396,1013.7817,
2021.02.13 19:04:09,83.0,24.0,59.04933,-5.9537992,-33.60952,-0.36440682,0.88672775,10.41113,-0.0488605,-0.0062846527,0.04241186,-0.08491433411836624,0.034987375140190125,-1.6210397481918335,1013.7817,
2021.02.13 19:04:09,83.0,24.0,59.30185,-7.200186,-33.107567,0.33439377,0.24203318,9.301242,0.09716993,-0.022294588,0.08948898,-0.02599893882870674,-0.03593603894114494,-1.676156759262085,1013.7817,
2021.02.13 19:04:09,83.0,24.0,59.46649,-6.278701,-34.294136,0.25943753,0.26350787,9.774873,-0.030618291,0.013473895,-0.0046715173,-0.02694166637957096,-0.0265350379049778,-1.6599534749984741,1013.7812,
2021.02.13 19:04:09,83.0,24.0,58.10617,-6.1862955,-34.16961,-0.26523387,0.6799018,9.899839,0.012839269,0.0077654915,-0.011736529,-0.0685458704829216,0.02678532712161541,-1.6358723640441895,1013.7809,
2021.02.13 19:04:09,83.0,24.0,58.28389,-7.0328417,-33.5884,-0.1731767,0.56503206,9.77837,0.020867066,-8.9841546E-5,0.012308899,-0.05771065503358841,0.01770833134651184,-1.6576882600784302,1013.7809,
2021.02.13 19:04:09,83.0,24.0,58.800827,-7.979788,-33.16858,-0.16672409,0.5141285,9.83004,0.03589848,0.022638096,-0.07373809,-0.052246659994125366,0.016959046944975853,-1.6766149997711182,1013.7807,
2021.02.13 19:04:09,83.0,24.0,58.433167,-6.9441185,-33.838356,-0.26273003,0.5546912,9.630502,0.04076135,-0.002122945,-0.033357732,-0.05751240998506546,0.027274267747998238,-1.6557682752609253,1013.7807,
2021.02.13 19:04:09,83.0,24.0,58.595673,-5.4198856,-33.878906,-0.05260067,0.48031107,9.73813,-0.0029015793,0.0067346087,-6.971448E-4,-0.04928206279873848,0.005401464179158211,-1.6345460414886475,1013.7807,
2021.02.13 19:04:09,83.0,24.0,57.86087,-7.3336735,-33.055344,-0.009478684,0.40249053,9.851039,-0.019027503,-0.0040427083,-0.014085341,-0.040834940969944,9.622011566534638E-4,-1.673767328262329,1013.7808,
2021.02.13 19:04:09,83.0,24.0,58.30516,-6.7167616,-33.407173,-0.17988539,0.5284541,9.751797,0.0066069313,0.016349792,-0.06261778,-0.05412829667329788,0.01844429224729538,-1.6545413732528687,1013.7808,
2021.02.13 19:04:09,83.0,24.0,58.376343,-7.1304493,-33.02706,-0.09217156,0.50135297,9.632289,-0.012804631,-0.017427793,-0.011792736,-0.05199990049004555,0.00956872757524252,-1.6631174087524414,1013.78107,
2021.02.13 19:04:09,83.0,24.0,57.977005,-7.2891684,-32.828697,-0.12488767,0.47524214,9.918465,-0.027008643,0.0043996214,-0.0219481,-0.047874487936496735,0.012590765953063965,-1.6690722703933716,1013.7812,
2021.02.13 19:04:09,83.0,24.0,58.198776,-6.5570974,-33.170044,-0.23901129,0.45095953,9.626372,0.023252985,-0.0038080798,-0.017623559,-0.04679763689637184,0.02482370287179947,-1.6565568447113037,1013.78143,
2021.02.13 19:04:09,83.0,24.0,57.965424,-6.0587645,-33.06591,-0.13774167,0.4823345,9.765479,-0.01912505,-0.020757765,0.029450644,-0.04934678226709366,0.014104022644460201,-1.6468355655670166,1013.78143,
2021.02.13 19:04:10,83.0,24.0,57.78087,-6.778598,-33.977486,-0.021497874,0.45267704,9.883099,6.8047503E-4,-0.0064156624,0.025130674,-0.045771051198244095,0.0021752126049250364,-1.6608551740646362,1013.78143,
2021.02.13 19:04:10,83.0,24.0,58.987198,-7.788974,-33.0085,-0.055267062,0.45001563,9.6890135,0.021407004,-0.010659139,0.0054527535,-0.04641185700893402,0.005704034119844437,-1.676418423652649,1013.78143,
2021.02.13 19:04:10,83.0,24.0,59.011505,-6.3351736,-34.021454,-0.11659268,0.49560642,9.787847,0.004105231,-0.011618922,-0.0020678113,-0.05058808624744415,0.01191142201423645,-1.6486444473266602,1013.7812,
2021.02.13 19:04:10,83.0,24.0,58.591095,-8.492697,-34.08976,-0.046980117,0.49394587,9.692475,0.009703652,-0.018119961,0.0125987325,-0.05091714486479759,0.0048470329493284225,-1.6855189800262451,1013.7812,
2021.02.13 19:04:10,83.0,24.0,59.443924,-7.214072,-33.625618,-0.03957573,0.49076214,9.814218,-0.009183644,-0.0031866413,0.0036162357,-0.049963198602199554,0.00403246795758605,-1.6634984016418457,1013.7812,
2021.02.13 19:04:10,83.0,24.0,57.80365,-6.517229,-34.16851,-0.116960764,0.5543717,9.689464,-0.007913018,0.005937252,0.011125097,-0.05714740604162216,0.012070336379110813,-1.6493161916732788,1013.78143,
2021.02.13 19:04:10,83.0,24.0,58.703827,-7.262414,-34.199844,0.0024318572,0.48959073,9.76996,-0.002158105,0.010629723,-0.005255011,-0.050069961696863174,-2.4891167413443327E-4,-1.6649162769317627,1013.78143,
2021.02.13 19:04:10,83.0,24.0,58.32231,-7.583544,-33.436447,-0.03621907,0.53661495,9.768552,-0.0029289695,0.0057847966,-0.012907181,-0.054877374321222305,0.003707704832777381,-1.6688740253448486,1013.78174,
2021.02.13 19:04:10,83.0,24.0,58.736145,-6.046404,-33.048584,-0.09407105,0.5215208,9.726318,8.275169E-4,0.006573352,-0.009640699,-0.053565748035907745,0.009671502746641636,-1.6432204246520996,1013.78174,
2021.02.13 19:04:10,83.0,24.0,58.551773,-7.927203,-33.456406,-0.09754744,0.527131,9.731826,-0.009827987,0.0019411437,-0.011072457,-0.0541100911796093,0.010023213922977448,-1.6747688055038452,1013.78174,
2021.02.13 19:04:10,83.0,24.0,58.49823,-7.5738564,-33.88053,-0.09654659,0.52849865,9.801162,-0.01486308,9.769943E-4,-4.7369255E-4,-0.053867265582084656,0.009850205853581429,-1.6686192750930786,1013.78174,
2021.02.13 19:04:10,83.0,24.0,57.856598,-7.4448404,-34.136223,-0.066613756,0.5235552,9.766309,-0.0065586194,-0.004451896,7.465612E-4,-0.05355578660964966,0.006820665206760168,-1.6674317121505737,1013.7815,
2021.02.13 19:04:10,83.0,24.0,58.472473,-7.316307,-33.794075,-0.006210226,0.49629927,9.793773,4.9731624E-4,-0.0077678463,0.0032206993,-0.05063165724277496,6.340993568301201E-4,-1.6662222146987915,1013.7815,
2021.02.13 19:04:10,83.0,24.0,57.661438,-6.7034693,-32.626045,-0.028642857,0.5115087,9.707471,0.0029241308,-0.008533891,-0.01514289,-0.05264336243271828,0.0029505908023566008,-1.6568939685821533,1013.7815,
2021.02.13 19:04:11,83.0,24.0,58.923904,-7.3091717,-32.669662,-0.058710754,0.5302074,9.764782,-0.00719716,0.0015169849,-0.021580286,-0.05424368008971214,0.006012427620589733,-1.6643134355545044,1013.78107,
2021.02.13 19:04:11,83.0,24.0,58.943924,-7.627859,-33.11611,-0.05709253,0.5382282,9.73482,-0.0017074558,0.003711583,-0.026490053,-0.055231790989637375,0.005864707287400961,-1.6686811447143555,1013.78107,
2021.02.13 19:04:11,83.0,24.0,58.56572,-6.4886866,-33.19004,-0.06757843,0.49319473,9.791839,-0.010686284,0.008179514,-0.023779301,-0.0503242127597332,0.006901395972818136,-1.652734637260437,1013.78107,
2021.02.13 19:04:11,83.0,24.0,58.48932,-6.7647514,-33.546394,-0.11129009,0.46295798,9.732007,-0.0019820249,0.006794191,-0.031481564,-0.047531723976135254,0.01143497321754694,-1.6588870286941528,1013.78107,
2021.02.13 19:04:11,83.0,24.0,58.64157,-6.320492,-32.234657,-0.20528227,0.50567234,9.771122,-0.023980971,-0.008515013,-0.0093295,-0.05169420689344406,0.021005988121032715,-1.6497182846069336,1013.7815,
2021.02.13 19:04:11,83.0,24.0,58.06392,-7.587492,-33.852905,-0.1456486,0.47796428,9.794729,-0.0023378176,-0.011549626,0.02058121,-0.04875405132770538,0.014869004487991333,-1.6727241277694702,1013.7817,
2021.02.13 19:04:11,83.0,24.0,59.363037,-7.2369337,-33.486206,-0.118737735,0.4894959,9.7661085,-0.010644355,-0.005539161,0.010572553,-0.05007629469037056,0.012157543562352657,-1.6640880107879639,1013.7817,
2021.02.13 19:04:11,83.0,24.0,59.45729,-7.060153,-33.72045,-0.08910614,0.4819934,9.763259,-0.005638569,0.0010668157,0.01723663,-0.049325983971357346,0.009126427583396435,-1.6612088680267334,1013.7817,
2021.02.13 19:04:11,83.0,24.0,58.96971,-7.113765,-33.65564,-0.09300417,0.51533026,9.784364,-0.0060523613,-0.0014986641,0.015120432,-0.052617765963077545,0.009505100548267365,-1.660997748374939,1013.7817,
2021.02.13 19:04:11,83.0,24.0,58.118652,-8.476389,-33.99228,-0.020741815,0.4485167,9.742787,-0.010421031,-0.007892724,0.025978938,-0.046003181487321854,0.002128937281668186,-1.689087152481079,1013.7817,
2021.02.13 19:04:11,83.0,24.0,58.861237,-6.9448595,-32.773056,-0.04039731,0.47827244,9.805744,-0.0049691834,-0.0030820721,8.4775593E-4,-0.048735685646533966,0.0041197361424565315,-1.661279320716858,1013.7817,
2021.02.13 19:04:11,83.0,24.0,58.735596,-6.523756,-34.208237,-0.10040013,0.51579934,9.709407,0.012563965,-0.011487381,-4.6777632E-4,-0.05307094380259514,0.0103401318192482,-1.6505844593048096,1013.7817,
2021.02.13 19:04:11,83.0,24.0,58.229767,-7.292117,-33.53553,-0.06525061,0.49477792,9.8109045,-0.0020064688,-1.7214543E-4,0.0030631418,-0.05038762465119362,0.006650727242231369,-1.6666022539138794,1013.7817,
2021.02.13 19:04:11,83.0,24.0,58.54045,-6.9837923,-32.22506,-0.025802026,0.47100663,9.781056,0.007896588,-0.004587901,0.0033102161,-0.04811764881014824,0.0026379527989774942,-1.6632235050201416,1013.7817,
2021.02.13 19:04:12,83.0,24.0,58.33281,-7.458089,-34.292435,-0.023987716,0.47463453,9.704581,0.012962167,-0.0127201555,-0.006638545,-0.04886920750141144,0.00247178808785975,-1.6694821119308472,1013.7817,
2021.02.13 19:04:12,83.0,24.0,58.39186,-7.2763157,-34.19905,-0.06866593,0.5349297,9.775319,6.077386E-4,-0.001852242,-0.018486427,-0.054666608572006226,0.007024302612990141,-1.6629583835601807,1013.7817,
2021.02.13 19:04:12,83.0,24.0,58.672775,-7.083332,-34.28843,-0.036204312,0.4585065,9.725521,6.68771E-4,-0.007882953,-0.014944574,-0.047109462320804596,0.0037225920241326094,-1.6636282205581665,1013.7817,
2021.02.13 19:04:12,83.0,24.0,57.864532,-6.8433676,-34.22307,-0.09714115,0.5029226,9.740037,-0.0062650815,-0.00485495,-0.024257299,-0.05158619210124016,0.009973055683076382,-1.6581932306289673,1013.7817,
2021.02.13 19:04:12,83.0,24.0,56.589096,-7.585243,-34.86628,-0.09321662,0.4999714,9.823696,-0.007095193,-0.0070312154,-0.012821026,-0.05084826797246933,0.009488671086728573,-1.6731135845184326,1013.78156,
2021.02.13 19:04:12,83.0,24.0,58.062683,-7.276331,-34.557304,-0.046261042,0.46091497,9.697967,0.011577421,-0.019115072,-0.005216678,-0.047490693628787994,0.004770143423229456,-1.6674671173095703,1013.7815,
2021.02.13 19:04:12,83.0,24.0,58.314163,-7.1649675,-33.37622,-0.03564882,0.47827116,9.766232,-0.015811766,-0.0044764876,-0.013388561,-0.048932503908872604,0.0036501961294561625,-1.6652604341506958,1013.78143,
2021.02.13 19:04:12,83.0,24.0,58.79019,-6.533556,-32.97461,-0.09647092,0.5138254,9.770572,-0.009218578,-0.0080116205,-0.0069784634,-0.052538126707077026,0.009873299859464169,-1.6520806550979614,1013.78107,
2021.02.13 19:04:12,83.0,24.0,57.990875,-6.99203,-33.903435,0.012974571,0.42793354,9.790963,-0.013049887,-0.002847295,0.0024036537,-0.04367915168404579,-0.0013251571217551827,-1.6654253005981445,1013.7808,
2021.02.13 19:04:12,83.0,24.0,58.97003,-7.8834867,-32.60367,-0.08172765,0.46979538,9.727781,-0.00142454,0.0012097239,-0.023661172,-0.04825500026345253,0.008401270024478436,-1.6773490905761719,1013.7808,
2021.02.13 19:04:12,83.0,24.0,57.755493,-7.612499,-33.87822,-0.12537439,0.4714104,9.778096,-0.0071146116,0.008347516,-0.012032587,-0.04816960170865059,0.012821259908378124,-1.674009084701538,1013.7806,
2021.02.13 19:04:12,83.0,24.0,58.618973,-7.0714684,-34.014694,-0.09527942,0.5025109,9.747303,-0.007038702,-0.003261726,-0.005418758,-0.05150578171014786,0.009774641133844852,-1.6611665487289429,1013.7806,
2021.02.13 19:04:12,83.0,24.0,58.68953,-6.2926702,-33.073296,-0.036191262,0.44948807,9.786032,-0.0031371722,0.00157918,-0.003510088,-0.04589902609586716,0.003698240499943495,-1.6518689393997192,1013.78015,
2021.02.13 19:04:12,83.0,24.0,57.786728,-7.0158443,-32.7734,-0.1312658,0.50892967,9.738048,-0.0025664316,-1.1718972E-4,-0.015924716,-0.05220974236726761,0.013478867709636688,-1.6621960401535034,1013.77997,
2021.02.13 19:04:13,83.0,24.0,58.522964,-7.4472322,-33.11319,-0.06011663,0.47221354,9.80718,-0.008039812,-0.0027042949,4.7205063E-4,-0.04811171442270279,0.006129782181233168,-1.6704137325286865,1013.77997,
2021.02.13 19:04:13,83.0,24.0,57.9924,-7.5312147,-33.61685,-0.09265851,0.4974326,9.738168,0.0049910937,-0.0019918606,-0.0061469185,-0.051034051924943924,0.009514696896076202,-1.6706621646881104,1013.7799,
2021.02.13 19:04:13,83.0,24.0,58.390686,-6.682171,-33.32222,-0.07065051,0.49422827,9.760562,0.0011926646,-0.0036535875,2.0182552E-4,-0.050590693950653076,0.007238239049911499,-1.6560132503509521,1013.7796,
2021.02.13 19:04:13,83.0,24.0,58.05124,-7.976634,-33.64884,-0.042735685,0.45729658,9.720864,0.0032763844,0.0027973666,-0.00260624,-0.04700767993927002,0.004396256059408188,-1.6804474592208862,1013.7795,
2021.02.13 19:04:13,83.0,24.0,59.316742,-6.7168055,-34.29209,-0.11076069,0.50780183,9.792228,-0.012773327,-0.0019385504,-0.008451249,-0.05180792137980461,0.011310598812997341,-1.6537173986434937,1013.7791,
2021.02.13 19:04:13,83.0,24.0,57.86737,-7.8929567,-34.686226,-0.061642896,0.501998,9.709661,8.138805E-5,-0.007827621,5.923463E-4,-0.05165385082364082,0.006348529830574989,-1.6757525205612183,1013.77875,
2021.02.13 19:04:13,83.0,24.0,57.9377,-7.204196,-33.002884,-0.04734282,0.5105251,9.801974,-0.009072262,-0.005259493,0.0010601277,-0.05203628167510033,0.004829889163374901,-1.6650739908218384,1013.7777,
2021.02.13 19:04:13,83.0,24.0,58.991516,-5.965905,-33.84491,-0.029921396,0.46885395,9.734996,0.00746549,0.0047563533,-0.009562306,-0.0481242910027504,0.003073581261560321,-1.6440620422363281,1013.7776,
2021.02.13 19:04:13,83.0,24.0,59.242996,-8.313733,-33.18033,-0.10671089,0.52022815,9.784226,-0.002454999,0.0040828553,-0.019290866,-0.05311691015958786,0.01090598851442337,-1.6808536052703857,1013.777,
2021.02.13 19:04:13,83.0,24.0,58.469116,-7.105303,-34.65039,-0.03772253,0.49776128,9.788656,0.003618354,3.003449E-4,-0.004668911,-0.050806690007448196,0.00385367963463068,-1.661826729774475,1013.777,
2021.02.13 19:04:13,83.0,24.0,57.933746,-7.5426493,-34.495796,-0.041533653,0.47918046,9.728348,0.007832247,0.0010537278,-0.018119933,-0.04921587556600571,0.0042693172581493855,-1.671248197555542,1013.777,
2021.02.13 19:04:13,83.0,24.0,58.401825,-6.332301,-34.688858,-0.09950151,0.5318462,9.735539,-0.002381105,-0.005768306,-0.012662249,-0.05457226186990738,0.010220085270702839,-1.6464269161224365,1013.77686,
2021.02.13 19:04:13,83.0,24.0,58.07103,-7.089757,-32.599586,-0.02522017,0.4788309,9.787298,-0.0036331578,-0.008895306,-0.010596976,-0.048884566873311996,0.002576821018010378,-1.665037751197815,1013.7768,
2021.02.13 19:04:13,83.0,24.0,58.49225,-7.2715836,-33.77868,-0.09501249,0.51438457,9.716785,0.0037024305,-0.006830191,-0.015812278,-0.05288584157824516,0.009777870029211044,-1.6641583442687988,1013.7759,
2021.02.13 19:04:13,83.0,24.0,58.836502,-6.925873,-34.148872,-0.033317674,0.47639704,9.795049,-0.004877431,-0.002804949,-0.009975902,-0.04859793931245804,0.0034014680422842503,-1.659950852394104,1013.77545,
2021.02.13 19:04:14,83.0,24.0,58.51689,-6.3283796,-33.841476,-0.065012194,0.46572992,9.745133,-8.200412E-6,-0.009228634,-0.012156111,-0.047753628343343735,0.006671148352324963,-1.6510343551635742,1013.77527,
2021.02.13 19:04:14,83.0,24.0,59.117325,-6.724575,-33.919174,-0.1453179,0.5367095,9.749845,-0.007078355,-0.0027320185,-0.0103832055,-0.05498640611767769,0.014903533272445202,-1.6525524854660034,1013.775,
2021.02.13 19:04:14,83.0,24.0,57.836975,-5.761876,-32.22663,-0.030364057,0.47456095,9.756421,-0.007814635,-0.0073632305,0.008886915,-0.04860234633088112,0.003112202510237694,-1.6430796384811401,1013.77496,
2021.02.13 19:04:14,83.0,24.0,57.96907,-7.449259,-32.951378,-0.08840456,0.49626312,9.7771225,-0.0068781995,2.737774E-5,4.564938E-4,-0.050711993128061295,0.009041734971106052,-1.6700527667999268,1013.77484,
2021.02.13 19:04:14,83.0,24.0,59.610718,-7.5946817,-33.585327,-0.07879316,0.49815187,9.758486,-0.00243167,0.0047096964,0.006082685,-0.0510021410882473,0.008074146695435047,-1.6690362691879272,1013.77454,
2021.02.13 19:04:14,83.0,24.0,59.021774,-6.3003054,-34.287163,-0.075503886,0.4843625,9.736679,-0.0024428028,0.0071586613,0.005235161,-0.04970370605587959,0.007754427846521139,-1.6483598947525024,1013.7744,
2021.02.13 19:04:14,83.0,24.0,59.184677,-6.5832157,-32.73529,-0.08453285,0.50477356,9.785389,-0.010581492,0.0023221183,0.0059980233,-0.051536813378334045,0.008638465777039528,-1.6531546115875244,1013.77423,
2021.02.13 19:04:14,83.0,24.0,58.119156,-6.7104807,-33.16661,-0.07384529,0.4659401,9.709087,4.8227725E-4,0.0093498835,0.0024671475,-0.047951921820640564,0.007605644408613443,-1.6585649251937866,1013.774,
2021.02.13 19:04:14,83.0,24.0,58.168274,-5.986455,-32.58309,-0.10738802,0.50398636,9.763068,-0.008112542,0.0034240708,0.005025539,-0.051572829484939575,0.010998968966305256,-1.6444602012634277,1013.7739,
2021.02.13 19:04:14,83.0,24.0,58.567657,-6.1781797,-32.77617,-0.07427648,0.49811658,9.747841,5.594267E-4,0.0013023174,-0.008860346,-0.05105431005358696,0.007619640324264765,-1.6473790407180786,1013.77386,
2021.02.13 19:04:14,83.0,24.0,57.40663,-5.8670254,-33.432243,-0.10816545,0.5046978,9.804847,-0.0054063764,-0.005692914,-0.008865195,-0.05142580717802048,0.011031387373805046,-1.6427041292190552,1013.77386,
2021.02.13 19:04:14,83.0,24.0,57.084534,-6.187228,-33.720085,-0.076926276,0.46085575,9.674836,0.004203924,-0.0072162566,-0.011705322,-0.047596994787454605,0.007951002568006516,-1.6507861614227295,1013.77374,
2021.02.13 19:04:14,83.0,24.0,59.307053,-6.910223,-33.44915,-0.08826066,0.4982214,9.799881,-0.0170609,-0.0075143836,-0.020437282,-0.05079374834895134,0.009006056003272533,-1.658295750617981,1013.7736,
2021.02.13 19:04:15,83.0,24.0,58.621048,-5.908243,-33.52281,-0.114268005,0.45996928,9.782824,1.4852977E-4,-8.8328146E-4,-0.015139973,-0.046980246901512146,0.011679941788315773,-1.644433856010437,1013.7736,
2021.02.13 19:04:15,83.0,24.0,58.858032,-6.0132294,-33.409996,-0.12286112,0.4781238,9.766609,4.173515E-4,-0.0071910727,-0.016819915,-0.04891202971339226,0.012579047121107578,-1.644873023033142,1013.7736,
2021.02.13 19:04:15,83.0,24.0,58.606888,-5.411066,-32.774033,-0.13762276,0.45196006,9.760223,0.0019148086,6.626985E-4,-0.009302825,-0.04626867547631264,0.014099434949457645,-1.6369433403015137,1013.7736,
2021.02.13 19:04:15,83.0,24.0,58.35614,-5.766452,-32.87619,-0.13762327,0.47908485,9.711478,-0.0064815846,-0.0046116672,-0.00701015,-0.04928691312670708,0.014170247130095959,-1.641494631767273,1013.7736,
2021.02.13 19:04:15,83.0,24.0,58.926804,-6.3961573,-32.940567,-0.17705607,0.51897997,9.827665,-0.008111828,-8.35701E-4,0.016477814,-0.05275051295757294,0.01801413856446743,-1.649413824081421,1013.7736,
2021.02.13 19:04:15,83.0,24.0,57.573456,-7.8981667,-33.72773,0.025374455,0.386422,9.702504,0.0055049947,1.16316485E-4,0.030437857,-0.03980586677789688,-0.0026152420323342085,-1.6840031147003174,1013.7736,
2021.02.13 19:04:15,83.0,24.0,57.834198,-5.862709,-33.24553,-0.17747335,0.57192534,9.779732,-0.0067216167,-7.821593E-4,3.1556285E-4,-0.058404553681612015,0.018145063892006874,-1.6379982233047485,1013.7736,
2021.02.13 19:04:15,83.0,24.0,59.002823,-7.038231,-34.167625,-0.043805305,0.4460919,9.802283,0.0022024626,-0.0011697436,0.026197724,-0.04547714442014694,0.004468858242034912,-1.6634060144424438,1013.7736,
2021.02.13 19:04:15,83.0,24.0,57.705276,-5.613015,-31.675768,-0.004182868,0.43274114,9.685863,0.0039708787,-0.0072967513,0.0072986134,-0.044647909700870514,4.318529099691659E-4,-1.6433401107788086,1013.7734,
2021.02.13 19:04:15,83.0,24.0,58.897614,-5.2259693,-32.490257,-0.117066205,0.48560223,9.764038,-0.004162958,0.0026710355,-0.010856651,-0.049689240753650665,0.011988953687250614,-1.6317561864852905,1013.7734,
2021.02.13 19:04:15,83.0,24.0,58.631577,-5.6780624,-33.06839,-0.13542654,0.5059136,9.719573,7.024355E-4,0.0037050475,-6.580315E-4,-0.0519990399479866,0.013932482339441776,-1.637906551361084,1013.77325,
2021.02.13 19:04:15,83.0,24.0,57.619553,-7.154788,-33.736008,-0.097301565,0.4540812,9.717839,-0.008418552,0.008959837,0.005893845,-0.04669025540351868,0.010012339800596237,-1.667312502861023,1013.77325,
2021.02.13 19:04:15,83.0,24.0,57.973083,-7.879998,-33.026924,-0.08211274,0.4224507,9.621688,-0.043491617,0.0015556872,0.014778607,-0.04387631639838219,0.008533922024071217,-1.6813205480575562,1013.77325,
2021.02.13 19:04:15,83.0,24.0,58.03662,-7.4392653,-32.56723,-0.34190035,0.46008492,9.632426,-0.09552707,0.056707256,0.00828912,-0.04769791290163994,0.0354798324406147,-1.6721426248550415,1013.77325,
2021.02.13 19:04:15,83.0,24.0,58.852844,-7.254489,-32.488594,-0.14206974,0.37188908,10.061512,-0.10691465,0.027867518,0.0762716,-0.0369410514831543,0.014119179919362068,-1.673520565032959,1013.77325,
2021.02.13 19:04:16,83.0,24.0,59.333496,-6.30009,-33.25331,0.088232495,0.31111982,10.010242,0.02458835,-0.0036668344,0.057315513,-0.031068939715623856,-0.008813993073999882,-1.6591264009475708,1013.77325,
2021.02.13 19:04:16,83.0,24.0,58.948685,-5.897649,-32.917686,-0.13956161,0.46995792,9.747897,0.11069175,-0.05961854,0.012368908,-0.048168979585170746,0.014316121116280556,-1.6436147689819336,1013.7734,
2021.02.13 19:04:16,83.0,24.0,57.62314,-7.164611,-32.355698,-0.07961347,0.5661144,9.540029,0.12148766,-0.030284984,0.025969792,-0.059269391000270844,0.008345008827745914,-1.6613402366638184,1013.7737,
2021.02.13 19:04:16,83.0,24.0,57.691086,-7.5286055,-33.808395,0.07140827,0.43279946,10.197307,0.26743072,-0.17679474,0.005297359,-0.042416032403707504,-0.007002545055001974,-1.675808072090149,1013.77386,
