Time,X-cord,Y-cord,Mag_x,Mag_y,Mag_z,Acc_x,Acc_y,Acc_z,Gyro_x,Gyro_y,Gyro_z,Orn_x,Orn_y,Orn_z,Pressure,
2021.02.13 18:45:07,19.0,24.0,40.135117,-3.2541018,-38.490295,-0.05667879,0.6912098,9.866996,0.070163615,0.016847502,-0.052643865,-0.06993730366230011,0.005744217429310083,-1.5843340158462524,1013.6262,
2021.02.13 18:45:08,19.0,24.0,40.422897,-2.751504,-39.69848,0.063690335,0.37517008,9.711535,0.065654576,0.015365687,1.04006846E-4,-0.038611359894275665,-0.006558120716363192,-1.6009547710418701,1013.6266,
2021.02.13 18:45:08,19.0,24.0,40.047012,-3.4892826,-39.001602,0.018873487,0.44707465,9.623602,0.04176665,0.0014182895,-0.007503092,-0.04642259329557419,-0.001961163943633437,-1.6126244068145752,1013.62665,
2021.02.13 18:45:08,19.0,24.0,41.553116,-3.9844866,-39.22824,-0.088606894,0.5963185,9.831086,0.029725667,-0.006613275,0.0039528003,-0.06057974323630333,0.009012686088681221,-1.6091197729110718,1013.6267,
2021.02.13 18:45:08,19.0,24.0,40.18849,-2.9589453,-38.85289,-0.11013942,0.62525725,9.625573,0.039349087,-0.010261799,0.03689872,-0.06486255675554276,0.01144187618046999,-1.580980658531189,1013.6267,
2021.02.13 18:45:08,19.0,24.0,40.007156,-4.451315,-38.811165,0.046254963,0.5353978,9.691037,0.010809744,-0.0141877765,0.066650316,-0.05518997088074684,-0.004772927146404982,-1.6283113956451416,1013.6267,
2021.02.13 18:45:08,19.0,24.0,40.75377,-6.5308676,-38.572746,0.024330817,0.6587028,9.653839,-0.0045964736,-0.008099317,0.037799284,-0.06812639534473419,-0.002520320238545537,-1.6659026145935059,1013.6267,
2021.02.13 18:45:08,19.0,24.0,40.18817,-5.0432377,-39.441856,0.059030164,0.6787928,9.8296585,-0.010726364,0.012664014,0.006050624,-0.06894488632678986,-0.006005239672958851,-1.6283901929855347,1013.6267,
2021.02.13 18:45:08,19.0,24.0,39.8907,-4.4021196,-39.530907,0.04530762,0.6242683,9.684845,-0.03906517,-0.0018921552,-0.0033649781,-0.06436851620674133,-0.004678163677453995,-1.6172317266464233,1013.6267,
2021.02.13 18:45:08,19.0,24.0,41.13887,-4.2963285,-38.90335,0.026066551,0.65084475,9.804978,-0.033765987,-0.002475541,-0.004636292,-0.06628153473138809,-0.002658495446667075,-1.6124156713485718,1013.62683,
2021.02.13 18:45:08,19.0,24.0,40.42044,-3.8423834,-39.63211,-0.045369405,0.6496484,9.768484,-0.0227829,-0.018605221,3.9581908E-4,-0.06640602648258209,0.004644433967769146,-1.6004031896591187,1013.6267,
2021.02.13 18:45:08,19.0,24.0,40.96811,-2.5923014,-38.60372,0.08018999,0.52929944,9.698649,-0.02123751,-0.025400985,0.005734558,-0.05451860651373863,-0.008267971687018871,-1.5829887390136719,1013.6267,
2021.02.13 18:45:08,19.0,24.0,39.629425,-4.913294,-38.80169,0.02306428,0.5858422,9.810009,-0.035283044,-0.021408768,-0.02239126,-0.0596478171646595,-0.0023510924074798822,-1.6360864639282227,1013.62665,
2021.02.13 18:45:08,19.0,24.0,40.28264,-4.6135025,-39.066902,-0.0106837265,0.60668546,9.9383745,-0.019247316,-0.020145826,-0.021756392,-0.060969043523073196,0.0010749970097094774,-1.625955581665039,1013.62665,
2021.02.13 18:45:08,19.0,24.0,41.33113,-3.2483253,-38.279007,-0.063495636,0.5322871,9.621299,0.047978066,-0.010538148,-0.026093166,-0.05526629090309143,0.006599390879273415,-1.597906231880188,1013.62665,
2021.02.13 18:45:09,19.0,24.0,40.761368,-4.162609,-38.48075,0.033717986,0.52250665,9.795602,-0.023175485,-0.021812946,0.00951619,-0.05329012870788574,-0.0034421421587467194,-1.6224579811096191,1013.62665,
2021.02.13 18:45:09,19.0,24.0,39.70993,-4.7092457,-38.831078,0.051774442,0.60620695,9.726691,0.017098187,-0.00598681,-0.013582085,-0.06224267929792404,-0.005322874058037996,-1.6283016204833984,1013.62665,
2021.02.13 18:45:09,19.0,24.0,39.969437,-4.0554314,-38.495567,0.06302232,0.5365937,9.731603,0.004305872,0.001247485,-0.009849424,-0.05508235841989517,-0.0064759571105241776,-1.6191009283065796,1013.6267,
2021.02.13 18:45:09,19.0,24.0,40.122803,-4.3020077,-39.582764,-0.08768093,0.661506,9.706902,0.009262301,0.01581197,-0.023998927,-0.06804004311561584,0.009032598696649075,-1.610419511795044,1013.6267,
2021.02.13 18:45:09,19.0,24.0,40.27797,-4.212632,-39.131523,0.09726124,0.5325559,9.950501,-0.012306003,0.00414857,0.026139677,-0.05346694216132164,-0.009774195961654186,-1.623295545578003,1013.6267,
2021.02.13 18:45:09,19.0,24.0,39.398148,-3.3183308,-39.435356,0.078267716,0.6242965,9.624501,0.06031431,0.0049443264,-0.011945277,-0.06477245688438416,-0.008131952956318855,-1.590423822402954,1013.6267,
2021.02.13 18:45:09,19.0,24.0,40.92209,-4.325966,-38.43769,0.033642836,0.57486993,9.7790785,0.017753167,0.009058337,-0.011541892,-0.05871777608990669,-0.0034402732271701097,-1.6212018728256226,1013.6267,
2021.02.13 18:45:09,19.0,24.0,39.713913,-3.0327902,-39.210396,-0.042245496,0.7590408,9.754723,0.04256521,-0.0016719684,-0.0055598365,-0.07765544205904007,0.004330746829509735,-1.5699995756149292,1013.62665,
2021.02.13 18:45:09,19.0,24.0,40.84764,-3.9297667,-39.035027,0.04445839,0.6378012,9.613041,0.030854035,-0.01180506,0.02320123,-0.06624969094991684,-0.004624766763299704,-1.6036771535873413,1013.6265,
2021.02.13 18:45:09,19.0,24.0,41.063858,-5.5299873,-39.65358,0.10392856,0.6719537,9.919438,8.225278E-5,5.2733085E-4,0.011855348,-0.06763406842947006,-0.01047687977552414,-1.6398013830184937,1013.6261,
2021.02.13 18:45:09,19.0,24.0,39.960007,-5.215206,-40.041702,-0.005650872,0.7131172,9.629043,0.027353391,-0.0020357477,-0.0018454099,-0.07392401993274689,5.868569714948535E-4,-1.6268736124038696,1013.62604,
2021.02.13 18:45:09,19.0,24.0,40.71881,-4.7937737,-40.891144,0.10488021,0.67725444,9.82723,-0.01594454,0.012785336,0.01291087,-0.06880339980125427,-0.010672002099454403,-1.6193873882293701,1013.62604,
2021.02.13 18:45:09,19.0,24.0,40.814774,-5.6532955,-38.356323,0.033258297,0.76071525,9.806857,0.021370389,0.01109299,-0.0049966285,-0.07741425931453705,-0.00339131779037416,-1.6361750364303589,1013.62604,
2021.02.13 18:45:09,19.0,24.0,40.070175,-4.4906683,-38.910416,0.0021982072,0.65670353,9.621008,0.028108291,-0.0016917641,0.009457968,-0.06815153360366821,-2.284799120388925E-4,-1.6164520978927612,1013.62604,
2021.02.13 18:45:09,19.0,24.0,40.38359,-5.054859,-40.265793,0.06472891,0.66412205,9.789989,-0.014133237,-0.013502336,0.009452475,-0.06773160398006439,-0.006611648015677929,-1.6282062530517578,1013.6259,
2021.02.13 18:45:10,19.0,24.0,41.040558,-4.4977646,-39.133736,-0.032128785,0.78529996,9.749246,0.010466864,-0.009616691,-0.0052860733,-0.08037585020065308,0.0032955030910670757,-1.6033034324645996,1013.6259,
2021.02.13 18:45:10,19.0,24.0,40.023575,-4.86322,-39.645256,-0.002246124,0.6974187,9.759206,0.009897713,-0.015709683,0.024377774,-0.0713413655757904,2.3015437182039022E-4,-1.6213411092758179,1013.6259,
2021.02.13 18:45:10,19.0,24.0,41.47522,-4.4313774,-39.302994,0.024042614,0.7479098,9.758219,0.015915042,-0.0047617946,0.012206304,-0.07649431377649307,-0.0024638271424919367,-1.6050058603286743,1013.6259,
2021.02.13 18:45:10,19.0,24.0,40.306366,-4.567707,-39.106262,0.044004757,0.7388763,9.752716,0.014521407,0.0011104544,0.013820562,-0.07561586797237396,-0.004512020852416754,-1.6106489896774292,1013.6259,
2021.02.13 18:45:10,19.0,24.0,40.022064,-4.9307814,-39.58468,0.056862187,0.7425496,9.678083,0.011108613,0.001387415,0.007345885,-0.07657352834939957,-0.005875288508832455,-1.6181151866912842,1013.6259,
2021.02.13 18:45:10,19.0,24.0,40.385376,-4.9028196,-39.307465,0.09651959,0.76559854,9.725623,-0.0022580535,0.0015896702,0.0064685633,-0.07855388522148132,-0.009923932142555714,-1.6157639026641846,1013.62585,
2021.02.13 18:45:10,19.0,24.0,38.93537,-4.788537,-39.289497,0.12471199,0.72046596,9.738445,-6.4336066E-4,0.0021190615,-0.00977741,-0.07384105771780014,-0.012805449776351452,-1.6192926168441772,1013.62585,
2021.02.13 18:45:10,19.0,24.0,39.911926,-4.634801,-38.74865,0.042275097,0.7988241,9.671715,-0.006386151,0.0011436108,-0.030301854,-0.08240601420402527,-0.004370975773781538,-1.606806755065918,1013.62585,
2021.02.13 18:45:10,19.0,24.0,40.173065,-3.4761868,-38.914444,0.03817338,0.7665236,9.841872,-0.019871902,0.0135614695,-0.030261777,-0.07772643119096756,-0.003878651186823845,-1.582108736038208,1013.62585,
2021.02.13 18:45:10,19.0,24.0,40.09996,-4.626074,-39.7732,0.032650184,0.7548237,9.608289,0.0031362006,0.0022562402,-0.03366332,-0.07839816808700562,-0.003398113651201129,-1.6082488298416138,1013.6258,
2021.02.13 18:45:10,19.0,24.0,39.87149,-3.9651175,-39.036507,0.09391204,0.655169,9.754298,-0.03607872,7.835076E-4,-0.026198208,-0.06706337630748749,-0.00962746236473322,-1.6047272682189941,1013.6256,
2021.02.13 18:45:10,19.0,24.0,40.045517,-5.1150055,-40.189056,-0.043948542,0.77808005,9.778817,-0.022871407,-0.020908486,-0.018222379,-0.07939983159303665,0.004494229331612587,-1.6183465719223022,1013.6256,
2021.02.13 18:45:10,19.0,24.0,39.842804,-4.5844116,-39.3908,0.048132822,0.6415393,9.730586,-8.050022E-4,-0.0110147195,-0.018015224,-0.06583409011363983,-0.004946508910506964,-1.6206110715866089,1013.6255,
2021.02.13 18:45:10,19.0,24.0,39.929306,-3.4439154,-39.94867,0.06769138,0.64795023,9.765022,-0.0028854986,-0.0036263713,-0.021047221,-0.06625548750162125,-0.0069319140166044235,-1.5909368991851807,1013.62506,
2021.02.13 18:45:11,19.0,24.0,39.614136,-2.5930452,-38.737343,-0.012878421,0.66751647,9.727422,-4.7093793E-4,-0.0053046937,-0.027045425,-0.06851466000080109,0.001323928707279265,-1.5690616369247437,1013.625,
2021.02.13 18:45:11,19.0,24.0,39.674698,-4.298867,-39.67453,2.9501566E-4,0.68168086,9.6394615,-0.008948987,-0.015814573,-0.008238144,-0.07060019671916962,-3.06049914797768E-5,-1.6083214282989502,1013.6249,
2021.02.13 18:45:11,19.0,24.0,41.501343,-3.0811777,-39.67202,0.139718,0.6744349,9.913821,-0.044321183,-0.0065667033,0.0038827416,-0.06791838258504868,-0.014092319644987583,-1.5808216333389282,1013.6248,
2021.02.13 18:45:11,19.0,24.0,40.51494,-4.429351,-39.911514,0.07531222,0.67009944,9.652829,-0.017585503,0.0024224767,-0.016863327,-0.06930670887231827,-0.007801929488778114,-1.6118452548980713,1013.6247,
2021.02.13 18:45:11,19.0,24.0,40.147156,-3.5295544,-38.958992,-0.015201467,0.6279865,9.865028,0.0023995112,-0.011546043,0.009306997,-0.063571996986866,0.0015409438638016582,-1.59682035446167,1013.6248,
2021.02.13 18:45:11,19.0,24.0,40.30139,-3.6921053,-39.727783,0.12673268,0.645427,9.922605,-0.015378224,-0.0047362954,0.0118623795,-0.06494934111833572,-0.0127714229747653,-1.5987131595611572,1013.6248,
2021.02.13 18:45:11,19.0,24.0,40.20871,-3.349473,-38.802216,0.032296214,0.6082916,9.673804,0.045360353,-0.002056288,-0.0022029465,-0.06279727071523666,-0.0033385101705789566,-1.5935063362121582,1013.6248,
2021.02.13 18:45:11,19.0,24.0,40.7368,-4.083623,-38.461617,0.070319965,0.5820279,9.747536,0.001180346,-0.009097697,0.023695908,-0.05963790416717529,-0.0072140018455684185,-1.6146936416625977,1013.6248,
2021.02.13 18:45:11,19.0,24.0,40.80034,-4.881687,-40.12255,0.09620086,0.7042268,9.6998415,0.020305227,-0.0028313305,0.00567324,-0.07247117906808853,-0.009917451068758965,-1.6191400289535522,1013.6248,
2021.02.13 18:45:11,19.0,24.0,39.36084,-4.4434633,-39.796204,0.12463197,0.5785554,9.718369,-0.009110684,0.0015383781,-0.0030178095,-0.059457097202539444,-0.012823669239878654,-1.623447299003601,1013.6248,
2021.02.13 18:45:11,19.0,24.0,39.776337,-4.130575,-38.556946,0.06418863,0.6444079,9.735672,-0.011677636,-0.0038598538,2.0537246E-4,-0.06609254330396652,-0.0065930429846048355,-1.6105573177337646,1013.6248,
2021.02.13 18:45:11,19.0,24.0,39.9523,-4.654085,-38.869316,0.120316446,0.6469231,9.7527895,-0.008483622,-0.0033038445,0.0052139834,-0.06623005867004395,-0.012335993349552155,-1.622797966003418,1013.6248,
2021.02.13 18:45:11,19.0,24.0,39.542633,-3.6486301,-39.757263,0.2060848,0.59376466,9.770698,-0.013444647,-0.0026756022,-0.0026212859,-0.06068182736635208,-0.02108900062739849,-1.6025390625,1013.6247,
2021.02.13 18:45:12,19.0,24.0,40.961594,-3.6644201,-39.62446,0.074818045,0.6596544,9.812139,-0.0017276015,0.0037915744,-0.034113888,-0.06712544709444046,-0.007624901831150055,-1.5954960584640503,1013.6247,
2021.02.13 18:45:12,19.0,24.0,40.76277,-3.3001986,-40.69551,0.0975895,0.5864384,9.756532,0.004070405,0.002433906,-0.025443085,-0.060032036155462265,-0.010002144612371922,-1.5921027660369873,1013.6247,
2021.02.13 18:45:12,19.0,24.0,40.01532,-2.9766874,-39.172333,-0.002695748,0.5956414,9.613015,0.021646984,-0.010942708,-0.03333331,-0.061882853507995605,2.804268733598292E-4,-1.5844876766204834,1013.62445,
2021.02.13 18:45:12,19.0,24.0,40.44554,-2.9903774,-40.04766,0.15460245,0.623981,9.830602,-0.036885954,-0.0075721247,-0.005225845,-0.06338047236204147,-0.015725355595350266,-1.582688331604004,1013.6243,
2021.02.13 18:45:12,19.0,24.0,40.401627,-2.7280226,-39.7875,0.051848438,0.60995364,9.746498,0.0061851433,-0.005317029,-0.023433663,-0.062499430030584335,-0.005319648887962103,-1.5769784450531006,1013.6241,
2021.02.13 18:45:12,19.0,24.0,40.26706,-2.5393605,-39.37568,0.028058141,0.5759786,9.747846,-0.009571172,8.4880873E-4,-0.009114136,-0.05901891738176346,-0.0028783860616385937,-1.5762252807617188,1013.624,
2021.02.13 18:45:12,19.0,24.0,41.327484,-3.8458738,-38.00183,0.10879835,0.5924036,9.789655,-0.004442314,0.0058050994,-0.002533227,-0.06043580546975136,-0.011113147251307964,-1.6084208488464355,1013.62384,
2021.02.13 18:45:12,19.0,24.0,39.797745,-3.1905155,-38.846466,0.008972853,0.6156953,9.722951,0.0014655284,0.004339981,-0.009418425,-0.0632394477725029,-9.228526032529771E-4,-1.5891573429107666,1013.6237,
2021.02.13 18:45:12,19.0,24.0,39.614197,-2.7688055,-39.32113,0.06855278,0.620603,9.758306,-0.009978285,7.856695E-6,0.013859036,-0.06351032108068466,-0.0070249540731310844,-1.5779491662979126,1013.62366,
2021.02.13 18:45:12,19.0,24.0,39.387894,-3.8510332,-39.211197,0.14545427,0.56561494,9.707545,-0.005638938,-6.711227E-4,0.012513072,-0.058193180710077286,-0.01498250849545002,-1.6107679605484009,1013.6236,
2021.02.13 18:45:12,19.0,24.0,40.62088,-4.1383934,-40.126724,0.13870938,0.5573395,9.684003,-0.015731929,-0.004314806,-8.466877E-4,-0.05748329311609268,-0.01432257890701294,-1.615917682647705,1013.62354,
2021.02.13 18:45:12,19.0,24.0,40.303406,-4.4902515,-38.299683,0.09995351,0.6349358,9.813941,-0.037971534,-0.0023845728,-0.013559945,-0.06460394710302353,-0.010184497572481632,-1.6207634210586548,1013.6232,
2021.02.13 18:45:12,19.0,24.0,40.445023,-3.701891,-39.02392,0.120472796,0.6065435,9.808637,-0.010567622,0.004418858,-0.014185099,-0.06175440922379494,-0.012281700037419796,-1.6029764413833618,1013.62317,
2021.02.13 18:45:12,19.0,24.0,40.040726,-3.4061155,-40.200417,0.104421906,0.5027288,9.694323,-0.0042075296,0.0021076147,-0.017945984,-0.05180865526199341,-0.01077103242278099,-1.6039483547210693,1013.6231,
2021.02.13 18:45:12,19.0,24.0,40.115646,-3.8632755,-39.195312,0.046061005,0.59540206,9.833668,-0.022242192,0.0019755403,-0.023498751,-0.06047281622886658,-0.004683976527303457,-1.6079710721969604,1013.6231,
2021.02.13 18:45:13,19.0,24.0,40.818512,-3.0596867,-39.192192,0.07434035,0.55514336,9.7526045,0.0061234776,-6.5560313E-4,-0.015866188,-0.056859564036130905,-0.007622467819601297,-1.591350793838501,1013.6228,
2021.02.13 18:45:13,19.0,24.0,41.410965,-2.9177122,-38.89559,0.12850276,0.50842446,9.796905,-3.0551152E-4,-0.0035501071,-0.009457225,-0.05184546858072281,-0.013115917332470417,-1.5928945541381836,1013.6228,
2021.02.13 18:45:13,19.0,24.0,41.384888,-3.776207,-39.332603,0.07116032,0.5159109,9.743755,0.011843145,0.0010139351,-0.025642168,-0.052897050976753235,-0.007303041871637106,-1.6117455959320068,1013.62317,
2021.02.13 18:45:13,19.0,24.0,39.47493,-3.175417,-39.789856,0.03419516,0.5153006,9.7283745,0.0026034175,-0.004134827,-0.017247494,-0.052919045090675354,-0.0035149776376783848,-1.5978925228118896,1013.6232,
2021.02.13 18:45:13,19.0,24.0,39.407623,-3.3300705,-39.947723,0.072996676,0.531649,9.820731,-0.0035410458,-8.616415E-4,-0.010983971,-0.05408109724521637,-0.007432779762893915,-1.6005514860153198,1013.6232,
2021.02.13 18:45:13,19.0,24.0,38.681458,-4.5036526,-38.681145,0.09410863,0.5146349,9.703068,-0.0031750314,-0.0048632356,-0.012453776,-0.05298623815178871,-0.009698549285531044,-1.6339231729507446,1013.6232,
2021.02.13 18:45:13,19.0,24.0,39.129585,-3.4207487,-38.870094,0.1422408,0.5753717,9.758246,0.0075458447,-0.0056543048,-0.019703433,-0.058888182044029236,-0.014575440436601639,-1.6000372171401978,1013.6232,
2021.02.13 18:45:13,19.0,24.0,40.9225,-3.8965902,-38.4225,0.21271117,0.53776336,9.71999,0.0067757694,-0.010144389,-0.037545256,-0.055255960673093796,-0.021880395710468292,-1.6143248081207275,1013.6232,
2021.02.13 18:45:13,19.0,24.0,40.032425,-2.10425,-38.465935,0.12582704,0.5402593,9.752458,-9.878045E-4,-0.005434209,-0.06977454,-0.05533608794212341,-0.012901369482278824,-1.5708531141281128,1013.6232,
2021.02.13 18:45:13,19.0,24.0,39.739807,-3.6625757,-40.343185,0.09913725,0.5473253,9.789612,-0.0012289258,-0.015212346,-0.074444756,-0.055847782641649246,-0.01012643426656723,-1.606339693069458,1013.6232,
2021.02.13 18:45:13,19.0,24.0,39.142563,-3.6496143,-39.46498,0.026221165,0.52548236,9.659816,0.002998331,-0.015120173,-0.07639786,-0.054345034062862396,-0.002714451402425766,-1.6091558933258057,1013.6232,
2021.02.13 18:45:13,19.0,24.0,39.817566,-2.4091935,-38.92331,-0.003877538,0.54663223,9.804298,-0.010875193,-0.0107957665,-0.062263798,-0.055696677416563034,3.954936400987208E-4,-1.5767709016799927,1013.6232,
2021.02.13 18:45:13,19.0,24.0,39.888535,-2.0472693,-39.0596,-0.028262168,0.53695554,9.750432,-0.0044887834,-0.0012655196,-0.037400577,-0.055014122277498245,0.0028985473327338696,-1.5680327415466309,1013.62354,
2021.02.13 18:45:13,19.0,24.0,39.61357,-2.3485713,-39.758827,0.015593335,0.5507452,9.842015,-0.003152077,0.0037769028,-0.01359841,-0.0559002123773098,-0.0015843628207221627,-1.5739983320236206,1013.62354,
2021.02.13 18:45:14,19.0,24.0,39.90329,-1.5563931,-39.054283,0.024523204,0.54201853,9.737801,0.0126354825,0.009295626,0.006967768,-0.05560373514890671,-0.002518346067517996,-1.5555264949798584,1013.62354,
2021.02.13 18:45:14,19.0,24.0,39.89041,-2.351767,-39.89386,0.07774404,0.5660432,9.783596,0.004538643,0.0043715034,0.026118267,-0.057790108025074005,-0.007946198806166649,-1.5723391771316528,1013.62354,
2021.02.13 18:45:14,19.0,24.0,39.929398,-3.0754404,-38.64686,0.15503287,0.530825,9.733936,0.014743496,0.0053997342,0.03189515,-0.054472584277391434,-0.015925703570246696,-1.5954982042312622,1013.62354,
2021.02.13 18:45:14,19.0,24.0,40.36563,-2.4774551,-38.586327,0.10667022,0.5718482,9.772835,0.01269508,0.0031241411,0.022048566,-0.058443937450647354,-0.010914538986980915,-1.576809287071228,1013.6234,
2021.02.13 18:45:14,19.0,24.0,39.806152,-2.218656,-39.97737,0.14782079,0.52502126,9.69062,0.015698941,0.0045772363,0.023809206,-0.054119087755680084,-0.015252823010087013,-1.5729248523712158,1013.6232,
2021.02.13 18:45:14,19.0,24.0,40.428955,-2.959815,-39.07625,0.08997873,0.58343905,9.764985,2.8668437E-6,0.0041984105,0.012789221,-0.05967460572719574,-0.009214164689183235,-1.5866427421569824,1013.6232,
2021.02.13 18:45:14,19.0,24.0,39.68004,-2.3820934,-39.4113,0.11114142,0.5828995,9.7031355,0.0064412723,-0.00259344,0.022768673,-0.059997279196977615,-0.011453675106167793,-1.571844458580017,1013.62317,
2021.02.13 18:45:14,19.0,24.0,38.713615,-3.787363,-39.348793,0.19113167,0.55503625,9.796605,-0.00795489,-0.0024483362,0.021301087,-0.05658473074436188,-0.0195075161755085,-1.6112841367721558,1013.6227,
2021.02.13 18:45:14,19.0,24.0,37.779236,-4.5583115,-39.36979,0.06870187,0.5992773,9.713664,0.005838412,-0.0044363798,0.002480358,-0.06161462515592575,-0.007072586100548506,-1.627020239830017,1013.6226,
2021.02.13 18:45:14,19.0,24.0,39.691574,-3.8632221,-39.8313,0.14066218,0.5664764,9.769572,-0.011641711,-0.011197551,0.02153024,-0.05791290104389191,-0.014396993443369865,-1.6101343631744385,1013.6226,
2021.02.13 18:45:14,19.0,24.0,39.466354,-3.106885,-39.63183,0.14271565,0.55027825,9.795468,-0.005074627,-0.012391469,0.010802154,-0.0561118945479393,-0.014568528160452843,-1.593565583229065,1013.6226,
2021.02.13 18:45:14,19.0,24.0,39.99362,-4.4660187,-40.08911,0.050670266,0.59877527,9.729996,0.0016762788,-0.007838224,0.010224414,-0.061460770666599274,-0.0052075874991714954,-1.620704174041748,1013.6226,
2021.02.13 18:45:14,19.0,24.0,40.04709,-3.4732876,-39.71425,0.18286051,0.5135565,9.7982645,-0.003149922,0.0030518323,0.023528595,-0.052355989813804626,-0.018660373985767365,-1.6058390140533447,1013.6226,
2021.02.13 18:45:14,19.0,24.0,39.745743,-3.7872705,-39.33928,0.11812935,0.5814576,9.71598,0.005583523,0.0044752657,0.007872477,-0.05976979061961174,-0.012157655321061611,-1.6070709228515625,1013.6226,
2021.02.13 18:45:14,19.0,24.0,38.737778,-4.4059515,-39.236107,0.06482553,0.6297605,9.8392,0.009903559,0.011080017,0.012671449,-0.06391668319702148,-0.006588400341570377,-1.6196650266647339,1013.6226,
2021.02.13 18:45:15,19.0,24.0,40.57718,-3.4802237,-40.760986,0.15656705,0.5522348,9.670316,0.03227764,0.0074214917,0.030603826,-0.05703677237033844,-0.01618906669318676,-1.5996180772781372,1013.6226,
2021.02.13 18:45:15,19.0,24.0,39.965576,-3.541997,-40.339226,0.11101846,0.6184301,9.761212,1.4472893E-4,-0.0013370829,0.024467435,-0.06326722353696823,-0.011372937820851803,-1.5958608388900757,1013.6227,
2021.02.13 18:45:15,19.0,24.0,41.03589,-3.1638536,-38.954666,0.05917738,0.7036965,9.778531,0.014944179,-0.020323228,0.039176676,-0.07183825969696045,-0.006051692180335522,-1.5799438953399658,1013.6227,
2021.02.13 18:45:15,19.0,24.0,41.32219,-3.3405247,-39.357506,0.27173746,0.5837049,9.676726,0.015798056,-0.030866297,0.06782167,-0.06022380292415619,-0.028074169531464577,-1.5952284336090088,1013.6228,
2021.02.13 18:45:15,19.0,24.0,40.374466,-2.7453585,-40.067596,0.23151092,0.667756,9.907924,0.0026073135,-0.021661744,0.027572058,-0.06727609038352966,-0.023361988365650177,-1.5734531879425049,1013.6232,
2021.02.13 18:45:15,19.0,24.0,40.159454,-3.4460478,-40.405495,0.34797058,0.73475623,9.454654,0.09350942,-0.08957149,0.044631287,-0.07750555872917175,-0.03678755834698677,-1.5809757709503174,1013.6232,
2021.02.13 18:45:15,19.0,24.0,40.472534,-4.2288246,-40.619293,0.33573398,0.6301844,10.00323,-0.009513702,0.03854932,-0.0100801755,-0.06287963688373566,-0.033549964427948,-1.6127395629882812,1013.6234,
