Time,X-cord,Y-cord,Mag_x,Mag_y,Mag_z,Acc_x,Acc_y,Acc_z,Gyro_x,Gyro_y,Gyro_z,Orn_x,Orn_y,Orn_z,Pressure,
2021.02.13 18:56:41,66.0,24.0,51.34085,-2.3816671,-36.463882,0.24014618,0.6577943,9.42065,0.12369449,-0.031255927,-0.0033113784,-0.06968902051448822,-0.025485947728157043,-1.5694324970245361,1013.77576,
2021.02.13 18:56:41,66.0,24.0,51.958664,-1.599092,-36.12149,-0.012231461,0.6956374,9.485389,-0.0174556,0.01788977,-0.032858994,-0.07320666313171387,0.0012895048130303621,-1.5505328178405762,1013.77576,
2021.02.13 18:56:41,66.0,24.0,51.51332,-2.0767283,-35.79991,-0.033101406,0.7731895,9.976077,-0.063504964,0.031663705,-0.011522633,-0.07734930515289307,0.003318066243082285,-1.5570017099380493,1013.77563,
2021.02.13 18:56:41,66.0,24.0,51.319,-1.5507836,-36.23149,0.08149954,0.6463081,9.732511,0.024880778,-0.0077969497,0.003137788,-0.06630745530128479,-0.008373752236366272,-1.5548210144042969,1013.77466,
2021.02.13 18:56:41,66.0,24.0,51.406357,-2.091754,-36.071045,0.04009426,0.6863144,9.661618,-0.0020598574,-0.0060915034,-0.010590686,-0.07091541588306427,-0.004149825777858496,-1.5619863271713257,1013.7745,
2021.02.13 18:56:41,66.0,24.0,51.06343,-1.3447933,-36.50763,0.08315734,0.6317597,9.855705,-0.0089671,-0.0034884408,-0.013652023,-0.06401105970144272,-0.008437281474471092,-1.5520011186599731,1013.7742,
2021.02.13 18:56:42,66.0,24.0,51.02722,-1.3279538,-35.093338,-0.10519462,0.70678854,9.766068,0.005910177,-0.009930796,-0.027579855,-0.07224173098802567,0.010771023109555244,-1.5461591482162476,1013.7745,
2021.02.13 18:56:42,66.0,24.0,50.61267,-1.9513769,-36.500526,0.005423212,0.65589887,10.057443,0.011226784,0.004364851,0.0055519277,-0.0651230439543724,-5.392236635088921E-4,-1.5623763799667358,1013.7746,
2021.02.13 18:56:42,66.0,24.0,50.217377,-3.1882915,-37.20121,-0.0053454083,0.5718438,9.664655,0.090554,-0.004879821,0.0027341356,-0.05909966304898262,5.530883208848536E-4,-1.5903923511505127,1013.77466,
2021.02.13 18:56:42,66.0,24.0,51.58557,-1.8619852,-36.437767,0.027658613,0.57250476,9.587537,0.048446998,-0.012123196,0.014496904,-0.05964236706495285,-0.002884842688217759,-1.5649076700210571,1013.7746,
2021.02.13 18:56:42,66.0,24.0,51.931656,-1.9706802,-35.96501,0.1712501,0.58282405,9.762486,0.014960108,-0.009519458,0.011572238,-0.059620440006256104,-0.017539849504828453,-1.5684901475906372,1013.7746,
2021.02.13 18:56:42,66.0,24.0,50.746872,-2.8637447,-36.747597,0.060625285,0.5612371,9.553494,0.014533846,-0.006944539,-0.025432644,-0.05867816135287285,-0.006345790345221758,-1.5849717855453491,1013.7743,
2021.02.13 18:56:42,66.0,24.0,51.626053,-2.6028767,-37.135002,-0.11045138,0.7100487,9.763972,-0.02502643,0.01191824,0.020100614,-0.07258888334035873,0.01131165400147438,-1.5680742263793945,1013.7742,
2021.02.13 18:56:42,66.0,24.0,51.49582,-2.0589905,-35.808586,0.14336212,0.6114586,9.678239,-0.020320661,0.0052045034,0.0058956603,-0.06308794766664505,-0.014811748638749123,-1.5678290128707886,1013.7741,
2021.02.13 18:56:42,66.0,24.0,51.77452,-1.0402637,-36.470505,0.03361048,0.69059277,9.786407,-0.02930472,0.006153416,-0.0059242817,-0.0704493299126625,-0.0034343907609581947,-1.5415754318237305,1013.7741,
2021.02.13 18:56:42,66.0,24.0,50.41765,-1.977601,-36.310326,0.055867877,0.7253831,9.822014,-0.021441258,-0.0022946047,0.003112661,-0.07371776551008224,-0.0056879655458033085,-1.5573468208312988,1013.7741,
2021.02.13 18:56:42,66.0,24.0,51.0988,-3.476964,-36.35492,0.1427678,0.6400853,9.792333,-5.6702853E-4,-0.0055992417,0.00541778,-0.0652661919593811,-0.014578517526388168,-1.593017816543579,1013.77405,
2021.02.13 18:56:42,66.0,24.0,51.294296,-1.197351,-36.940353,0.101093285,0.60497266,9.70021,9.1913505E-4,-0.0037382545,-0.022708254,-0.06228291615843773,-0.010421385057270527,-1.5500773191452026,1013.774,
2021.02.13 18:56:42,66.0,24.0,49.48372,-1.279417,-36.662804,0.09189788,0.6218694,9.682504,0.028119128,-0.009363001,-0.0064033545,-0.0641351193189621,-0.009490842930972576,-1.549872636795044,1013.774,
2021.02.13 18:56:43,66.0,24.0,51.307404,-2.030733,-37.449013,0.040775437,0.647033,9.721669,0.0067949835,6.607529E-4,-0.024104295,-0.06645715236663818,-0.004194258712232113,-1.5621232986450195,1013.7738,
2021.02.13 18:56:43,66.0,24.0,51.274887,-2.0276432,-37.091293,0.039499298,0.65432304,9.756459,0.0034710222,-0.0026979214,-0.018402621,-0.06696479767560959,-0.004048505797982216,-1.562144160270691,1013.7738,
2021.02.13 18:56:43,66.0,24.0,51.836548,-1.3154044,-36.14335,-0.005884751,0.6657335,9.721907,0.0012444423,-4.6126323E-4,-0.01861794,-0.06837092339992523,6.053082761354744E-4,-1.5484310388565063,1013.7736,
2021.02.13 18:56:43,66.0,24.0,50.627686,-1.0136476,-35.582184,0.034903232,0.6802495,9.724449,0.0013329608,0.005230373,-0.013444186,-0.06983828544616699,-0.003589209169149399,-1.5420562028884888,1013.77344,
2021.02.13 18:56:43,66.0,24.0,51.936646,-1.8408947,-38.735237,0.05561444,0.7002036,9.801841,0.008467304,-0.0031285153,-0.016786993,-0.07131364196538925,-0.005673816427588463,-1.5534892082214355,1013.77344,
2021.02.13 18:56:43,66.0,24.0,51.524155,-0.8844557,-36.711815,0.015664874,0.6803942,9.716874,8.8790315E-4,1.9876001E-4,-0.0045344117,-0.06990772485733032,-0.001612129621207714,-1.5383118391036987,1013.77344,
2021.02.13 18:56:43,66.0,24.0,51.432037,-2.0869694,-36.35041,0.09970205,0.63195217,9.72246,0.020672929,-0.0015952298,0.003731202,-0.06490449607372284,-0.010254457592964172,-1.5661489963531494,1013.77344,
2021.02.13 18:56:43,66.0,24.0,51.043533,-2.1073608,-36.100098,0.022965409,0.69208837,9.768508,0.007309317,2.4401466E-5,-0.009265515,-0.0707305520772934,-0.002350959461182356,-1.5621775388717651,1013.7731,
2021.02.13 18:56:43,66.0,24.0,50.89073,-0.56754637,-36.67193,0.019140117,0.68624383,9.729823,0.015240423,-0.00661275,-0.0019486812,-0.07041320204734802,-0.0019671572372317314,-1.531437635421753,1013.773,
2021.02.13 18:56:43,66.0,24.0,51.571808,-1.0995865,-36.58831,0.071723044,0.64343154,9.692816,0.0038241213,-0.0050624358,0.0044743884,-0.06628325581550598,-0.0073994738049805164,-1.5457075834274292,1013.773,
2021.02.13 18:56:43,66.0,24.0,49.99829,-2.569911,-36.503166,0.035854567,0.6868271,9.772367,-0.006505018,-5.541148E-4,0.0023162973,-0.07016672939062119,-0.003668958554044366,-1.5711406469345093,1013.7728,
2021.02.13 18:56:43,66.0,24.0,50.88829,-2.76505,-36.118507,0.05313796,0.6803996,9.71005,-0.0065641217,-0.002714161,0.0047844667,-0.06995629519224167,-0.005472416058182716,-1.5757514238357544,1013.7728,
2021.02.13 18:56:43,66.0,24.0,50.894806,-2.2300777,-35.980766,0.0696255,0.73889613,9.785889,-0.004104006,6.046563E-4,0.0016502787,-0.07536138594150543,-0.007114767096936703,-1.5618441104888916,1013.77234,
2021.02.13 18:56:44,66.0,24.0,50.89331,-0.8155384,-35.35032,0.15364404,0.627019,9.739646,0.00336776,0.0019743715,-0.018221786,-0.06428132206201553,-0.01577380672097206,-1.5434902906417847,1013.7721,
2021.02.13 18:56:44,66.0,24.0,51.357758,-1.4909458,-36.715836,0.08563394,0.6388256,9.687925,0.009809154,-8.633026E-4,-0.004332696,-0.06584250926971436,-0.008839013986289501,-1.5534212589263916,1013.7719,
2021.02.13 18:56:44,66.0,24.0,51.804382,-1.7439189,-37.48741,0.060896054,0.7082269,9.776847,-0.0060886433,-0.0010116149,-0.009947404,-0.07231148332357407,-0.0062285177409648895,-1.552625060081482,1013.77167,
2021.02.13 18:56:44,66.0,24.0,51.6409,-1.532187,-35.644875,0.08179002,0.6526107,9.758455,1.7182436E-4,-2.7807395E-4,-0.0068713673,-0.06677466630935669,-0.008381255902349949,-1.5549966096878052,1013.77167,
2021.02.13 18:56:44,66.0,24.0,51.25,-1.1023288,-36.529465,0.051844895,0.7032483,9.719525,0.0028227337,-0.0049732346,-0.0118529955,-0.07222729921340942,-0.005334046669304371,-1.5413182973861694,1013.7715,
2021.02.13 18:56:44,66.0,24.0,51.251175,-0.40474892,-37.623383,0.048121255,0.6816402,9.809005,-0.0025334912,-0.002717617,-1.3544317E-4,-0.06937890499830246,-0.004905784968286753,-1.5283035039901733,1013.77124,
2021.02.13 18:56:44,66.0,24.0,51.831116,-1.7338223,-37.11853,0.048308473,0.67496276,9.683133,0.013445605,-0.003625346,-0.0036161505,-0.06959156692028046,-0.004988888278603554,-1.554775357246399,1013.77094,
2021.02.13 18:56:44,66.0,24.0,51.233078,-1.3923655,-36.958023,0.0788706,0.6436514,9.790852,-0.00448309,-0.0014529792,0.002271285,-0.06564350426197052,-0.008055366575717926,-1.5512410402297974,1013.7706,
2021.02.13 18:56:44,66.0,24.0,52.534927,-2.004169,-36.515297,-0.009724442,0.73458433,9.7458,0.008912713,-0.0012881141,-0.0021816466,-0.07523214817047119,9.97808063402772E-4,-1.556511640548706,1013.7705,
2021.02.13 18:56:44,66.0,24.0,50.75952,-1.023202,-36.517036,0.13830465,0.61577266,9.711529,0.0067037717,-0.0017106752,0.016978558,-0.06331519037485123,-0.014240322634577751,-1.5465507507324219,1013.77045,
2021.02.13 18:56:44,66.0,24.0,51.07875,-1.4167051,-35.739105,0.034666914,0.72014123,9.773958,-0.004020079,0.0034309714,-0.0034397712,-0.07354623824357986,-0.003546850522980094,-1.5473673343658447,1013.77045,
2021.02.13 18:56:44,66.0,24.0,50.33098,-1.8259869,-35.826187,0.06467664,0.71318126,9.762406,0.0062099947,-8.3824235E-4,0.008036352,-0.07292269170284271,-0.006624975241720676,-1.5556741952896118,1013.7704,
2021.02.13 18:56:44,66.0,24.0,51.359665,-1.3640375,-36.470573,0.12929524,0.649244,9.721363,0.010403033,0.004509098,0.0049310913,-0.06668037921190262,-0.01329933013767004,-1.5510586500167847,1013.7699,
2021.02.13 18:56:44,66.0,24.0,50.595306,-1.7879548,-36.221687,0.04631434,0.7262235,9.751367,-0.0013535055,7.4913236E-4,-0.010883447,-0.07433595508337021,-0.004749487154185772,-1.5532827377319336,1013.76917,
2021.02.13 18:56:44,66.0,24.0,51.68071,-0.8887644,-35.968704,0.072806716,0.6816084,9.729884,0.005127932,0.0014383156,-0.002422299,-0.06993686407804489,-0.007482653949409723,-1.5400100946426392,1013.7686,
2021.02.13 18:56:45,66.0,24.0,51.016296,-0.91577387,-36.61882,0.08734387,0.7031439,9.766042,-0.0028765448,-0.0012574908,-0.0024720426,-0.07187198102474213,-0.008943391963839531,-1.538021445274353,1013.76807,
2021.02.13 18:56:45,66.0,24.0,50.29181,-0.73853064,-36.020126,0.06501419,0.70531243,9.78473,0.007134013,-9.724018E-4,-0.010071657,-0.07195692509412766,-0.006644356530159712,-1.5346165895462036,1013.76794,
2021.02.13 18:56:45,66.0,24.0,51.822342,-0.21078014,-36.505974,0.06308935,0.69477296,9.687436,0.014948981,-0.0042499406,-0.0067578303,-0.07159487158060074,-0.006512399762868881,-1.525168776512146,1013.76764,
2021.02.13 18:56:45,66.0,24.0,50.462738,-1.4155736,-37.07441,0.066932805,0.6922788,9.801453,0.002427166,0.0037770001,-0.00837865,-0.07051149010658264,-0.0068287597969174385,-1.5476195812225342,1013.76764,
2021.02.13 18:56:45,66.0,24.0,51.27562,-0.24879646,-36.48854,0.048392516,0.6859111,9.674474,0.01341898,-0.0025137747,-0.0065340707,-0.07077974081039429,-0.005002040881663561,-1.5258545875549316,1013.7676,
2021.02.13 18:56:45,66.0,24.0,50.347977,-1.3082228,-36.8068,0.023766205,0.7453558,9.786167,-0.0063562077,-0.0031720495,-0.0037567618,-0.07601723074913025,-0.002428546082228422,-1.5414313077926636,1013.7674,
2021.02.13 18:56:45,66.0,24.0,50.453094,-0.9085851,-37.535797,0.12885948,0.6960375,9.676017,0.005045172,-0.009185904,0.0085820295,-0.07180425524711609,-0.013316622003912926,-1.5366921424865723,1013.76666,
2021.02.13 18:56:45,66.0,24.0,50.174988,-1.2400379,-37.23529,0.11729463,0.72646886,9.784344,-0.009184599,-0.0028395376,-0.009234509,-0.07410679757595062,-0.011987417005002499,-1.5416547060012817,1013.76654,
2021.02.13 18:56:45,66.0,24.0,49.21054,-2.177813,-36.53969,0.031451102,0.7152095,9.740151,0.004994017,-0.0061743855,-0.016986504,-0.07329706102609634,-0.0032290045637637377,-1.560817837715149,1013.76636,
2021.02.13 18:56:45,66.0,24.0,50.256516,-1.3061562,-36.791298,0.12645207,0.69698554,9.762887,-0.005510102,-0.010892489,0.0010392044,-0.07126446068286896,-0.012951599434018135,-1.5457607507705688,1013.76636,
2021.02.13 18:56:45,66.0,24.0,50.55635,-1.0926113,-36.216278,0.09647498,0.71425253,9.769044,0.006064741,-0.007661597,-0.012316057,-0.07298044860363007,-0.00987525936216116,-1.5410574674606323,1013.76636,
2021.02.13 18:56:45,66.0,24.0,51.042725,-1.7641025,-36.76644,0.051683605,0.6951654,9.827957,0.012086512,8.4363687E-4,-0.010620027,-0.07061487436294556,-0.005258786492049694,-1.554882526397705,1013.76636,
2021.02.13 18:56:45,66.0,24.0,51.64572,-2.1144652,-36.666054,0.065609656,0.71413475,9.687079,0.028414402,3.7008914E-4,0.0015304631,-0.07358554005622864,-0.006772800348699093,-1.5599833726882935,1013.76636,
2021.02.13 18:56:45,66.0,24.0,51.28322,-1.6522727,-36.561142,0.10729176,0.71119183,9.73017,0.019522674,0.0047697457,0.004044722,-0.07295724749565125,-0.011026261374354362,-1.551918625831604,1013.76636,
2021.02.13 18:56:45,66.0,24.0,50.175613,-1.674243,-37.079674,0.12542365,0.7363291,9.732118,-0.0026866808,0.0018266893,0.0077286884,-0.07550957053899765,-0.012886888347566128,-1.5495015382766724,1013.76636,
2021.02.13 18:56:46,66.0,24.0,49.908386,-2.557827,-36.08072,0.08045185,0.75586057,9.73684,0.014974685,0.007266799,0.004349136,-0.07747092843055725,-0.008262435905635357,-1.5666085481643677,1013.76636,
2021.02.13 18:56:46,66.0,24.0,51.304794,-1.4208894,-36.75418,0.14204586,0.722475,9.715898,-0.0064863767,-0.003994802,0.01823414,-0.0742155909538269,-0.014618899673223495,-1.54664146900177,1013.76636,
2021.02.13 18:56:46,66.0,24.0,51.702896,-0.8373804,-36.672325,0.17264497,0.7228406,9.773369,-0.0014744089,0.0027843555,0.007164701,-0.07381433248519897,-0.017663000151515007,-1.5363900661468506,1013.76636,
2021.02.13 18:56:46,66.0,24.0,51.31836,-1.433259,-37.503746,0.058017556,0.75728416,9.702961,0.0021754708,0.0011396571,-0.002853052,-0.07788742333650589,-0.005979294888675213,-1.5423749685287476,1013.76636,
2021.02.13 18:56:46,66.0,24.0,51.514587,-1.5654783,-37.054726,0.1334529,0.71974486,9.752658,-0.0063421847,-0.0025655834,0.008756439,-0.07365944981575012,-0.013682892546057701,-1.5493910312652588,1013.76636,
2021.02.13 18:56:46,66.0,24.0,51.95833,-0.84003353,-37.348663,0.12638663,0.71280175,9.712951,-0.0054626074,-6.807168E-4,-0.0024583568,-0.07324922829866409,-0.013011441566050053,-1.535611867904663,1013.76636,
2021.02.13 18:56:46,66.0,24.0,50.764954,-1.3269897,-36.61634,0.10803489,0.7719533,9.74706,-0.016083822,-0.0022309101,-0.0051685125,-0.07902877777814865,-0.01108338963240385,-1.5410345792770386,1013.76636,
2021.02.13 18:56:46,66.0,24.0,50.943268,-1.2226295,-36.395126,0.1654282,0.6622876,9.6827135,-0.0071859397,-0.004309398,-0.012147583,-0.06828265637159348,-0.017083238810300827,-1.547453761100769,1013.76636,
2021.02.13 18:56:46,66.0,24.0,50.452225,-1.0289984,-37.109207,0.023971908,0.78869724,9.805934,-0.005314216,-0.003233963,-0.0017987319,-0.0802576020359993,-0.0024446279276162386,-1.5324413776397705,1013.76636,
2021.02.13 18:56:46,66.0,24.0,49.906845,-0.9702139,-35.842476,0.105966605,0.7273269,9.748501,-0.0067048892,0.0043914285,-0.013458676,-0.0744667500257492,-0.010869612917304039,-1.5378304719924927,1013.76636,
2021.02.13 18:56:46,66.0,24.0,50.857132,-1.6129723,-37.033386,0.030781796,0.7510039,9.729603,0.0089858975,-4.266971E-6,-0.0109816985,-0.07703439146280289,-0.003163715358823538,-1.5466821193695068,1013.76636,
2021.02.13 18:56:46,66.0,24.0,51.501495,-1.8307862,-37.576622,0.051390085,0.7435724,9.721068,0.0044663735,0.0013996006,0.0039043445,-0.07634109258651733,-0.005286415107548237,-1.5510772466659546,1013.76636,
2021.02.13 18:56:46,66.0,24.0,51.65573,-0.48374987,-37.793213,0.09564129,0.70224565,9.775079,0.0022708117,0.006793342,0.011862172,-0.07171378284692764,-0.009783884510397911,-1.5287412405014038,1013.76636,
2021.02.13 18:56:46,66.0,24.0,51.105484,-0.97980547,-36.585205,0.046341818,0.719949,9.704999,0.0055121817,0.0059430385,0.007602221,-0.07404683530330658,-0.004775010049343109,-1.5374360084533691,1013.76636,
2021.02.13 18:56:47,66.0,24.0,50.289764,-1.1144714,-36.288803,0.07862263,0.738486,9.757329,-0.0029813512,0.004081459,0.016996782,-0.07553879916667938,-0.008057627826929092,-1.5392404794692993,1013.76636,
2021.02.13 18:56:47,66.0,24.0,51.003006,-1.5436525,-37.022964,0.11400914,0.6810642,9.707355,0.0050099017,0.0030219427,0.015296152,-0.0700400099158287,-0.011744075454771519,-1.551181435585022,1013.76636,
2021.02.13 18:56:47,66.0,24.0,50.63008,-1.187068,-36.690285,0.073868446,0.696369,9.732745,-0.0072337706,8.500278E-4,0.009662346,-0.07142531871795654,-0.007589536719024181,-1.5431677103042603,1013.7663,
2021.02.13 18:56:47,66.0,24.0,51.384842,-1.7565756,-36.89161,0.05591281,0.7471092,9.748263,-0.007013941,0.0014017036,0.011193384,-0.07648945599794388,-0.005735605955123901,-1.550544261932373,1013.7663,
2021.02.13 18:56:47,66.0,24.0,50.764267,-1.4216433,-36.276787,0.16495045,0.67395496,9.722782,-0.0016951534,0.0014094596,0.016509313,-0.06919646263122559,-0.01696372777223587,-1.5507477521896362,1013.7663,
2021.02.13 18:56:47,66.0,24.0,51.193314,-1.5987487,-37.338707,0.10031635,0.6837454,9.717332,-0.008270685,0.0050648246,-4.003125E-4,-0.07024397701025009,-0.01032307930290699,-1.5516303777694702,1013.7663,
2021.02.13 18:56:47,66.0,24.0,51.047714,-1.3670993,-36.211945,0.056247275,0.72915363,9.819385,-0.015738823,0.006723552,-6.775068E-4,-0.07411929965019226,-0.0057281251065433025,-1.545506238937378,1013.7663,
2021.02.13 18:56:47,66.0,24.0,51.893066,-0.8310509,-37.7101,0.15511544,0.6896748,9.688851,-0.0018505406,-0.004651631,0.0071597015,-0.07105336338281631,-0.016008315607905388,-1.5367286205291748,1013.7663,
2021.02.13 18:56:47,66.0,24.0,50.17552,-2.2795825,-35.348434,0.11221042,0.6683752,9.76264,-0.008950129,0.004490812,-0.014397221,-0.0683513805270195,-0.01149335503578186,-1.5688107013702393,1013.7663,
2021.02.13 18:56:47,66.0,24.0,50.626343,-1.136025,-36.632088,0.0344659,0.7169722,9.742146,-0.007936204,0.0020206957,-0.015612268,-0.07346199452877045,-0.0035377994645386934,-1.5404144525527954,1013.7663,
2021.02.13 18:56:47,66.0,24.0,50.979584,-1.6085815,-36.615166,0.08906,0.66289216,9.76575,-0.004107357,0.0048186798,-0.0081893895,-0.0677725151181221,-0.009119373746216297,-1.5543662309646606,1013.7663,
2021.02.13 18:56:47,66.0,24.0,51.876816,-0.7035713,-36.12516,0.09100438,0.66534615,9.77809,0.003609614,0.006044374,-0.013357232,-0.06793694198131561,-0.009306700900197029,-1.537912368774414,1013.7663,
2021.02.13 18:56:47,66.0,24.0,51.60495,-0.9266596,-36.730957,0.06407416,0.65699166,9.717106,-5.8205065E-4,5.1528914E-5,0.001531592,-0.06750765442848206,-0.006593859288841486,-1.5412908792495728,1013.7661,
2021.02.13 18:56:47,66.0,24.0,50.191788,-1.1922002,-37.0812,0.06861938,0.6732518,9.781409,-0.006597098,4.9049687E-4,6.5393443E-4,-0.06871967017650604,-0.0070151700638234615,-1.544389009475708,1013.766,
2021.02.13 18:56:48,66.0,24.0,50.8282,-1.2921853,-36.4582,0.04192987,0.6551078,9.709052,0.0011519485,7.814205E-4,0.005859471,-0.0673711821436882,-0.0043186102993786335,-1.5482382774353027,1013.76575,
2021.02.13 18:56:48,66.0,24.0,50.93683,-0.560009,-36.781815,0.096567415,0.6703333,9.755527,-0.010653542,-3.8899528E-4,0.009801409,-0.06860200315713882,-0.009898415766656399,-1.5332309007644653,1013.7656,
2021.02.13 18:56:48,66.0,24.0,49.929123,-0.14910412,-36.708847,0.07274162,0.68810815,9.746853,-0.0031029582,0.0015397836,0.006878329,-0.07047908008098602,-0.007462949492037296,-1.5228264331817627,1013.7656,
2021.02.13 18:56:48,66.0,24.0,50.825836,-1.0487971,-36.41236,0.15384938,0.62893397,9.729476,-0.007954137,-0.0017383567,0.009142224,-0.06454426050186157,-0.015811391174793243,-1.5464829206466675,1013.76544,
2021.02.13 18:56:48,66.0,24.0,50.048798,-1.0244045,-36.744087,0.0627115,0.6941571,9.769621,-0.0012698193,9.1308774E-4,-0.0012906733,-0.07093194872140884,-0.006418942473828793,-1.5397922992706299,1013.76544,
2021.02.13 18:56:48,66.0,24.0,50.71881,0.6287241,-37.028854,0.15752198,0.60087484,9.767407,-1.7798005E-4,0.0019921197,-0.014247679,-0.06143295764923096,-0.016125908121466637,-1.5153002738952637,1013.76385,
2021.02.13 18:56:48,66.0,24.0,50.242783,-0.27061844,-36.203995,0.03317046,0.74200207,9.838104,0.010445236,-7.0071244E-4,-0.028274607,-0.07527830451726913,-0.003371618455275893,-1.5223835706710815,1013.76373,
2021.02.13 18:56:48,66.0,24.0,50.98723,0.6764655,-36.668243,0.1554171,0.60312325,9.724249,0.027172366,-0.0016325263,-0.010866602,-0.061935365200042725,-0.01598106510937214,-1.5147325992584229,1013.7636,
2021.02.13 18:56:48,66.0,24.0,50.791702,-1.0010462,-36.030273,0.041494466,0.6520733,9.693646,0.013844386,0.0018790377,-0.03349929,-0.06716631352901459,-0.004280557855963707,-1.5432287454605103,1013.7636,
2021.02.13 18:56:48,66.0,24.0,51.52501,0.27711105,-35.93315,0.013686649,0.6256761,9.690505,0.007576697,0.0019788947,-0.0133964475,-0.06447633355855942,-0.001412376295775175,-1.5206775665283203,1013.7636,
2021.02.13 18:56:48,66.0,24.0,50.236374,-0.4330182,-35.036896,0.11470351,0.60115457,9.687278,-0.014628521,0.0012315398,-0.0052569085,-0.061972275376319885,-0.011840080842375755,-1.5372289419174194,1013.7636,
2021.02.13 18:56:48,66.0,24.0,50.272232,-1.534452,-36.898155,0.011502807,0.70666856,9.767999,-0.024579862,0.0024247142,-0.0054534306,-0.07221940159797668,-0.0011776007013395429,-1.5483871698379517,1013.7636,
2021.02.13 18:56:48,66.0,24.0,51.568466,0.16424084,-36.65486,0.101258576,0.6157155,9.702307,-0.013942572,2.8479192E-4,0.0093502235,-0.06337230652570724,-0.010436167940497398,-1.5236486196517944,1013.7636,
2021.02.13 18:56:48,66.0,24.0,51.795074,-1.6670794,-37.871567,0.07254372,0.652785,9.829989,-0.034065988,-0.0016354788,0.011891728,-0.06630833446979523,-0.0073797027580440044,-1.5550400018692017,1013.7636,
2021.02.13 18:56:49,66.0,24.0,50.875504,-0.0034604073,-35.3239,0.10116309,0.651886,9.758395,-0.0089389505,0.0035890532,0.009099552,-0.06669989228248596,-0.010366403497755527,-1.5256344079971313,1013.7636,
2021.02.13 18:56:49,66.0,24.0,50.446243,-1.0871797,-36.14183,0.078114815,0.6141379,9.746844,-0.008765184,0.006126737,0.0087244315,-0.06292368471622467,-0.008014198392629623,-1.5478936433792114,1013.7636,
2021.02.13 18:56:49,66.0,24.0,51.713196,-0.093698025,-36.652588,0.09889222,0.5909252,9.771031,0.010694129,0.005517577,-0.0043907454,-0.06040060892701149,-0.010120614431798458,-1.5307409763336182,1013.7636,
2021.02.13 18:56:49,66.0,24.0,49.522186,-0.878047,-37.271378,0.17103945,0.6309894,9.802236,0.020069458,-0.0116043985,-0.013367248,-0.06427352875471115,-0.017447253689169884,-1.5416642427444458,1013.7636,
2021.02.13 18:56:49,66.0,24.0,50.28386,-1.8014989,-36.13897,0.017690431,0.6809322,9.706174,3.4288736E-4,-0.011759,0.016790181,-0.07003968209028244,-0.0018225937383249402,-1.5563862323760986,1013.7636,
2021.02.13 18:56:49,66.0,24.0,51.42163,-0.85761166,-37.096016,0.13344167,0.62981725,9.743564,0.0054897154,-0.016904663,0.021588773,-0.0645434707403183,-0.013694509863853455,-1.5420862436294556,1013.7636,
2021.02.13 18:56:49,66.0,24.0,50.26416,0.52232695,-35.947624,0.06905776,0.6561942,9.722432,-0.007499628,-0.018455189,0.05676938,-0.06738890707492828,-0.007102811709046364,-1.5131055116653442,1013.7636,
2021.02.13 18:56:49,66.0,24.0,51.83423,-0.16033459,-36.518982,0.20714183,0.6199234,9.578071,-0.07611559,0.07302472,0.018427996,-0.06461798399686813,-0.02162330597639084,-1.530423879623413,1013.7636,
