Time,X-cord,Y-cord,Mag_x,Mag_y,Mag_z,Acc_x,Acc_y,Acc_z,Gyro_x,Gyro_y,Gyro_z,Orn_x,Orn_y,Orn_z,Pressure,
2021.02.13 19:04:52,87.0,24.0,54.075058,-9.071134,-41.136612,0.094233565,0.39382538,10.962403,-0.0993008,0.030872473,0.05209034,-0.03590832278132439,-0.008595856837928295,-1.7096303701400757,1013.7793,
2021.02.13 19:04:53,87.0,24.0,54.274246,-9.273807,-39.82437,-0.14109708,0.6534932,9.157168,0.17343646,-0.05374316,-0.0123599125,-0.07123491168022156,0.015407155267894268,-1.688720464706421,1013.7795,
2021.02.13 19:04:53,87.0,24.0,53.546722,-9.238485,-40.276886,-0.271378,0.6488084,9.695634,-0.05795178,0.006823469,0.02596134,-0.06679188460111618,0.027982408180832863,-1.6929130554199219,1013.7797,
2021.02.13 19:04:53,87.0,24.0,53.397446,-10.360316,-40.59366,-0.095436566,0.7399103,10.163027,-0.05384262,0.008380973,0.06927244,-0.07267270982265472,0.009390288963913918,-1.7085468769073486,1013.7797,
2021.02.13 19:04:53,87.0,24.0,53.33844,-10.109964,-39.87271,0.09854627,0.5487357,9.591519,0.045125276,-0.04027941,0.076594494,-0.05714520066976547,-0.010273951105773449,-1.715786099433899,1013.7797,
2021.02.13 19:04:53,87.0,24.0,53.41545,-10.014606,-39.54624,3.3274232E-4,0.6021399,9.66487,-0.006543657,-0.012095202,0.03255438,-0.06222148984670639,-3.442801607889123E-5,-1.71095609664917,1013.7797,
2021.02.13 19:04:53,87.0,24.0,53.855682,-10.02083,-41.560715,-0.08639481,0.691253,9.79181,-0.03411935,0.003282135,0.010497151,-0.07047535479068756,0.008822942152619362,-1.7015920877456665,1013.7797,
2021.02.13 19:04:53,87.0,24.0,53.525696,-10.525417,-40.83049,-0.092564255,0.57627964,9.776822,-0.010785417,0.0041165003,0.020588113,-0.05887269973754883,0.009467440657317638,-1.7216099500656128,1013.7797,
2021.02.13 19:04:53,87.0,24.0,54.118942,-10.040125,-41.012566,0.029803133,0.5472463,9.6245775,-0.012053943,-8.5219566E-4,0.0129034445,-0.056797824800014496,-0.003096555359661579,-1.7118966579437256,1013.7797,
2021.02.13 19:04:53,87.0,24.0,53.443466,-10.0539875,-40.61065,-0.011420091,0.6525888,9.860706,-0.04348213,-0.008040726,-0.011565177,-0.06608432531356812,0.0011581408325582743,-1.7075163125991821,1013.7797,
2021.02.13 19:04:53,87.0,24.0,54.244156,-10.152233,-41.33867,-0.02728126,0.55331224,9.748177,-0.0049852096,-0.035321113,-0.011142972,-0.05669952929019928,0.002798594068735838,-1.7136362791061401,1013.7797,
2021.02.13 19:04:53,87.0,24.0,52.862213,-9.698385,-41.161034,0.010241729,0.50890017,9.650203,-0.016980179,-0.031116474,-0.016358973,-0.052685827016830444,-0.0010612963233143091,-1.711995005607605,1013.77966,
2021.02.13 19:04:53,87.0,24.0,54.41307,-7.991638,-40.474586,-0.065257795,0.59180206,9.846202,-0.03243499,-0.025786344,-0.023707354,-0.06003107130527496,0.006627615541219711,-1.6725313663482666,1013.7795,
2021.02.13 19:04:53,87.0,24.0,53.039474,-9.102995,-40.376335,-0.010748912,0.46875143,9.644903,-0.008048024,-0.020107929,-0.010805637,-0.048562705516815186,0.0011144650634378195,-1.7045241594314575,1013.7793,
2021.02.13 19:04:53,87.0,24.0,53.18196,-8.730906,-40.77073,0.028431421,0.45573822,9.742199,-0.049824893,-0.011852262,-0.01710148,-0.046745527535676956,-0.002918369835242629,-1.6981221437454224,1013.77924,
2021.02.13 19:04:53,87.0,24.0,52.192383,-10.246249,-40.470848,-0.07100182,0.46560892,9.842727,-0.050226007,-0.00442399,-0.026916273,-0.047268401831388474,0.007213508244603872,-1.7294690608978271,1013.77875,
2021.02.13 19:04:54,87.0,24.0,52.406647,-9.316284,-40.51947,-0.12731607,0.5199556,9.8175125,-0.0194326,-0.009269948,-0.007317542,-0.052908170968294144,0.012967534363269806,-1.7072808742523193,1013.77875,
2021.02.13 19:04:54,87.0,24.0,53.398407,-9.053294,-41.000328,0.09072564,0.38835058,9.817058,-0.018970765,-0.010114147,0.030205632,-0.039536453783512115,-0.009241369552910328,-1.708372712135315,1013.77875,
2021.02.13 19:04:54,87.0,24.0,51.18257,-8.739422,-41.467346,0.017689288,0.44851038,9.833231,0.0019286626,-0.005628871,0.001082811,-0.04558003321290016,-0.001798927434720099,-1.7035555839538574,1013.7786,
2021.02.13 19:04:54,87.0,24.0,52.6904,-9.308679,-41.327797,-0.03260014,0.44423044,9.772351,0.020716881,-0.0019966862,0.009508269,-0.04542636126279831,0.0033359441440552473,-1.7109570503234863,1013.77844,
2021.02.13 19:04:54,87.0,24.0,52.648575,-9.48798,-41.68045,0.09888478,0.39007965,9.7050495,0.021087825,-0.0024555803,0.026762903,-0.040169768035411835,-0.010188651271164417,-1.717244267463684,1013.77844,
2021.02.13 19:04:54,87.0,24.0,53.885925,-9.546367,-40.5987,0.06874318,0.43439856,9.795669,-7.613739E-4,0.0012286361,0.014796016,-0.04431585595011711,-0.007017596624791622,-1.7129957675933838,1013.77826,
2021.02.13 19:04:54,87.0,24.0,52.681976,-9.009033,-40.429634,-0.008876288,0.49327064,9.733752,0.008689223,-7.8666466E-4,0.005179506,-0.05063297972083092,9.119079331867397E-4,-1.7020320892333984,1013.77795,
2021.02.13 19:04:54,87.0,24.0,53.882034,-8.263619,-42.15159,0.16426963,0.3476069,9.782744,0.0042885873,6.5666356E-4,0.019543126,-0.035512711852788925,-0.016790196299552917,-1.6946347951889038,1013.77765,
2021.02.13 19:04:54,87.0,24.0,52.53694,-9.164072,-41.18184,0.044705983,0.46662188,9.709744,0.01178889,-0.00254316,-0.0101348385,-0.048019614070653915,-0.004604206420481205,-1.7062952518463135,1013.7774,
2021.02.13 19:04:54,87.0,24.0,53.107224,-10.156083,-41.293205,-0.05572993,0.4877267,9.876785,0.007176576,0.007901264,-6.73898E-4,-0.049340251833200455,0.0056424569338560104,-1.7226699590682983,1013.77734,
2021.02.13 19:04:54,87.0,24.0,52.657852,-10.614425,-40.73265,0.0693808,0.46800816,9.562851,0.028594658,-0.0073466324,0.017603403,-0.04889992997050285,-0.0072551146149635315,-1.732343316078186,1013.77734,
2021.02.13 19:04:54,87.0,24.0,52.888397,-11.247777,-42.804268,0.1328575,0.47481477,9.923875,-0.0052481303,-0.015814597,0.008753007,-0.04780496656894684,-0.013386864215135574,-1.7416551113128662,1013.7767,
2021.02.13 19:04:54,87.0,24.0,53.18451,-9.305368,-41.106743,0.0214686,0.49659085,9.66988,0.033164777,-0.018294895,-0.0059023686,-0.05130919814109802,-0.0022201479878276587,-1.704961895942688,1013.7756,
2021.02.13 19:04:54,87.0,24.0,53.13234,-10.849332,-40.643906,0.18536286,0.4192631,9.795262,0.023109522,0.009830271,-0.039215237,-0.04276888445019722,-0.018921468406915665,-1.738885760307312,1013.77527,
2021.02.13 19:04:54,87.0,24.0,53.16127,-9.288212,-39.9255,0.028531395,0.49232888,9.708107,0.0041335896,0.016068159,-0.023658471,-0.05066954344511032,-0.0029389162082225084,-1.7062658071517944,1013.77515,
2021.02.13 19:04:55,87.0,24.0,53.544907,-9.157959,-41.04212,-0.08822441,0.5206846,9.890785,0.038803577,0.011996898,0.0016296529,-0.05259276553988457,0.008919622749090195,-1.7009917497634888,1013.7749,
2021.02.13 19:04:55,87.0,24.0,52.48642,-9.726078,-41.495018,-0.02703245,0.50034255,9.782005,0.0388691,0.021405006,0.010559169,-0.05110454931855202,0.002763480646535754,-1.7146514654159546,1013.7735,
2021.02.13 19:04:55,87.0,24.0,52.268402,-10.706548,-41.364296,-0.039128385,0.519596,9.7640085,0.062548384,0.0136762755,0.007809745,-0.05316486582159996,0.004007388837635517,-1.7321799993515015,1013.7732,
2021.02.13 19:04:55,87.0,24.0,52.86331,-11.020995,-40.9404,-0.034497727,0.5997359,9.493947,0.060700282,-0.01097871,0.023510238,-0.06308609992265701,0.0036336390767246485,-1.7289271354675293,1013.773,
2021.02.13 19:04:55,87.0,24.0,53.14415,-9.601784,-41.035973,0.07163376,0.6420702,9.883835,-0.0057576736,-0.0034500344,0.033774942,-0.06486879289150238,-0.007247440982609987,-1.7000586986541748,1013.7729,
2021.02.13 19:04:55,87.0,24.0,53.860855,-10.008682,-41.085243,0.032883715,0.6629962,9.652133,0.031596042,-0.020322528,0.019313386,-0.06858096271753311,-0.0034068727400153875,-1.7030243873596191,1013.7728,
2021.02.13 19:04:55,87.0,24.0,53.821487,-9.414223,-40.183678,0.09321302,0.65527135,9.712688,-0.0057680365,-0.020752048,0.019374415,-0.06736031919717789,-0.009596740826964378,-1.6941964626312256,1013.7727,
2021.02.13 19:04:55,87.0,24.0,52.837234,-9.584776,-41.584335,0.13467707,0.6154397,9.882533,-0.0037473477,-0.0072981347,-0.0019060554,-0.06218942254781723,-0.013626945205032825,-1.7016350030899048,1013.77264,
2021.02.13 19:04:55,87.0,24.0,53.24292,-9.28214,-41.50492,0.01563739,0.6779304,9.711523,0.02222405,-0.008359111,-0.017818587,-0.0696936622262001,-0.0016101879300549626,-1.6898207664489746,1013.7721,
2021.02.13 19:04:55,87.0,24.0,52.52011,-11.091664,-41.66279,0.08876046,0.5809304,9.724001,0.004581571,-0.0060349423,-0.010793064,-0.059668511152267456,-0.0091277239844203,-1.732259750366211,1013.7721,
2021.02.13 19:04:55,87.0,24.0,52.4485,-10.232031,-43.069427,0.002089436,0.6040651,9.780215,0.012727283,0.015959827,-0.026716584,-0.061685625463724136,-2.1363903942983598E-4,-1.713892936706543,1013.7721,
2021.02.13 19:04:55,87.0,24.0,52.080353,-10.819753,-40.490845,-0.033812232,0.6466511,9.739129,0.0040399972,0.0012069372,0.009241881,-0.06629951298236847,0.003471778007224202,-1.7255284786224365,1013.7721,
2021.02.13 19:04:55,87.0,24.0,51.74678,-9.677092,-42.17124,0.12922461,0.5499926,9.800883,0.01771103,1.7570802E-4,-0.013344994,-0.056052979081869125,-0.013184232637286186,-1.7101918458938599,1013.7721,
2021.02.13 19:04:56,87.0,24.0,53.5717,-10.07329,-41.29686,0.003869084,0.61881834,9.889367,-0.008697398,0.012801397,-0.009934563,-0.06249263137578964,-3.912367392331362E-4,-1.7094084024429321,1013.7721,
2021.02.13 19:04:56,87.0,24.0,53.96559,-10.409016,-40.90708,-0.025627615,0.6720726,9.662412,0.016406564,0.009258055,0.016940316,-0.06944327801465988,0.0026522937696427107,-1.7098121643066406,1013.7721,
2021.02.13 19:04:56,87.0,24.0,53.22551,-10.634978,-41.230476,0.09640177,0.6273698,9.811452,0.02492408,-0.005657537,0.0037318838,-0.06385260075330734,-0.009825117886066437,-1.719170331954956,1013.7721,
2021.02.13 19:04:56,87.0,24.0,53.12674,-10.93496,-41.069496,-0.09868124,0.7951563,9.753853,0.012114035,-0.018134976,0.042125974,-0.08133826404809952,0.010116809979081154,-1.7124829292297363,1013.7721,
2021.02.13 19:04:56,87.0,24.0,53.117126,-10.040848,-41.32482,0.112450294,0.7066586,9.85221,-0.03529313,-2.8881987E-4,0.028412705,-0.07159862667322159,-0.011413217522203922,-1.702572226524353,1013.7721,
2021.02.13 19:04:56,87.0,24.0,53.409378,-9.475274,-41.675682,0.042813074,0.6577541,9.910384,0.007932525,0.002643867,0.014301465,-0.06627238541841507,-0.004319994710385799,-1.6953577995300293,1013.7721,
2021.02.13 19:04:56,87.0,24.0,52.260483,-10.693173,-40.432457,-0.028556556,0.672754,9.605617,0.034969557,-0.003967129,0.010219097,-0.06992307305335999,0.0029728931840509176,-1.7198801040649414,1013.7721,
2021.02.13 19:04:56,87.0,24.0,53.13791,-12.494182,-41.384163,0.1043489,0.67788666,9.776997,0.0016841227,0.0029614745,0.017758092,-0.06922014057636261,-0.010672492906451225,-1.7488447427749634,1013.7721,
2021.02.13 19:04:56,87.0,24.0,52.619293,-9.794287,-40.211365,0.09427603,0.69030046,9.7681,0.009512133,0.0044541853,-0.0026039244,-0.07054829597473145,-0.009651120752096176,-1.701568603515625,1013.77264,
2021.02.13 19:04:56,87.0,24.0,52.978058,-10.690463,-41.397675,0.02883169,0.6442973,9.635336,0.010064973,0.007851958,-0.0111081395,-0.06676847487688065,-0.002992277964949608,-1.7187647819519043,1013.77264,
2021.02.13 19:04:56,87.0,24.0,52.975693,-9.434937,-41.449646,0.030111367,0.6543134,9.790181,-0.020620149,0.014369688,-0.0108810235,-0.06673407554626465,-0.0030756602063775063,-1.6955758333206177,1013.7728,
2021.02.13 19:04:56,87.0,24.0,53.23091,-9.809031,-41.198135,0.0323918,0.6531858,9.667954,-0.023709103,0.008252795,-0.008806538,-0.06745904684066772,-0.0033504171296954155,-1.701614260673523,1013.773,
2021.02.13 19:04:56,87.0,24.0,53.08821,-10.212095,-40.6448,0.039958443,0.6003957,9.684556,-0.015995413,-2.6823048E-4,0.0032034607,-0.061915405094623566,-0.004125972744077444,-1.714224934577942,1013.773,
2021.02.13 19:04:57,87.0,24.0,52.895676,-10.16845,-41.658386,-0.06996662,0.6709458,9.806091,-0.015707098,0.008656707,-0.0058960477,-0.0683131292462349,0.007134895771741867,-1.7082481384277344,1013.7732,
2021.02.13 19:04:57,87.0,24.0,52.15901,-10.316478,-40.16722,0.072954394,0.6013868,9.793445,-0.010558163,0.009761452,0.016089465,-0.06132836639881134,-0.007449171040207148,-1.7195110321044922,1013.7738,
2021.02.13 19:04:57,87.0,24.0,53.25206,-9.91232,-41.178314,0.09117419,0.61383325,9.86691,0.0030993933,0.018715229,-0.0155001525,-0.06212858110666275,-0.009240136481821537,-1.7073111534118652,1013.7751,
2021.02.13 19:04:57,87.0,24.0,52.680237,-10.51169,-41.747185,-0.10856231,0.7016197,9.756663,0.028490968,0.0019373016,-0.02879589,-0.07178383320569992,0.011126532219350338,-1.7124989032745361,1013.7753,
2021.02.13 19:04:57,87.0,24.0,53.6649,-9.356666,-40.738045,-0.051250268,0.6282292,9.840749,0.014638862,0.0062273284,-0.004380256,-0.0637521892786026,0.005207917187362909,-1.6959433555603027,1013.77545,
2021.02.13 19:04:57,87.0,24.0,53.79918,-11.080747,-41.541428,-0.08888793,0.69323254,9.546584,0.01706816,-0.029078823,0.004371715,-0.07248540967702866,0.009310698136687279,-1.7196035385131836,1013.7767,
2021.02.13 19:04:57,87.0,24.0,52.58542,-9.53175,-40.137634,0.0444002,0.64996463,9.974899,-0.026950542,2.3464795E-4,0.023469774,-0.06506739556789398,-0.004451163578778505,-1.7011475563049316,1013.77704,
2021.02.13 19:04:57,87.0,24.0,53.69696,-9.87792,-40.906784,-0.035759803,0.66989136,9.712056,0.036232848,-0.0076998607,0.008156246,-0.06886570155620575,0.003681984730064869,-1.7012666463851929,1013.7771,
2021.02.13 19:04:57,87.0,24.0,54.105316,-11.113791,-40.993034,0.008567347,0.6415009,9.677175,0.016128592,-0.0053177513,0.023518851,-0.06619323045015335,-8.853147155605257E-4,-1.7243777513504028,1013.77716,
2021.02.13 19:04:57,87.0,24.0,52.45488,-11.216065,-40.49665,0.12002484,0.6521192,9.839139,-2.7788477E-4,-0.0019935353,0.025764516,-0.06617637723684311,-0.012198109179735184,-1.7310141324996948,1013.77716,
2021.02.13 19:04:57,87.0,24.0,51.980682,-9.680277,-40.52845,0.108983845,0.62318003,9.667674,0.017688273,-0.0065208767,-0.0019153453,-0.06436704099178314,-0.011272539384663105,-1.7052204608917236,1013.77716,
2021.02.13 19:04:57,87.0,24.0,53.261993,-9.887576,-41.83525,-0.010979332,0.69586587,9.745323,0.005015357,-0.0050652814,-0.019808363,-0.07128408551216125,0.001126625225879252,-1.699343204498291,1013.7776,
2021.02.13 19:04:57,87.0,24.0,53.306213,-10.164692,-40.564278,0.012831907,0.67086506,9.695023,0.0037420564,-0.011932573,-0.0068565197,-0.06908667087554932,-0.001323555363342166,-1.707588791847229,1013.7776,
2021.02.13 19:04:57,87.0,24.0,53.531433,-10.036753,-40.63569,0.041280467,0.68475777,9.831155,0.017294753,-0.006215368,-0.012438741,-0.0695388913154602,-0.004198919050395489,-1.7041608095169067,1013.7779,
2021.02.13 19:04:57,87.0,24.0,51.671494,-11.790515,-42.109528,-0.008954243,0.69937617,9.688846,0.0035864664,-0.0020049517,-0.006101505,-0.07205863296985626,9.241803199984133E-4,-1.7381926774978638,1013.778,
2021.02.13 19:04:58,87.0,24.0,53.878296,-10.198496,-40.831207,0.02621994,0.6551904,9.707821,-0.0069416715,-0.0039185877,-0.0075985203,-0.06738854944705963,-0.00270090252161026,-1.7076627016067505,1013.77814,
2021.02.13 19:04:58,87.0,24.0,53.013138,-10.418184,-40.827133,0.026911637,0.64702326,9.736844,-0.010179578,-0.001442542,-0.0029774993,-0.0663532242178917,-0.0027638901956379414,-1.7146954536437988,1013.77826,
2021.02.13 19:04:58,87.0,24.0,53.09015,-10.842603,-40.304016,7.965329E-4,0.6898195,9.774384,-0.0019301241,0.006081978,3.1205534E-4,-0.07045739889144897,-8.149188215611503E-5,-1.7199556827545166,1013.77826,
2021.02.13 19:04:58,87.0,24.0,54.230377,-9.406639,-41.342873,0.0044689714,0.6540055,9.740116,0.006443834,0.0041509955,-0.006511842,-0.06704491376876831,-4.5882113045081496E-4,-1.6921782493591309,1013.7787,
2021.02.13 19:04:58,87.0,24.0,52.815674,-9.319859,-41.28898,0.0015802005,0.70769024,9.758816,0.0042088693,0.002175278,0.001165298,-0.0723913237452507,-1.6192544717341661E-4,-1.6896846294403076,1013.7787,
2021.02.13 19:04:58,87.0,24.0,52.596924,-10.739606,-40.683357,0.019116582,0.64717823,9.780206,0.010348553,0.008065609,0.0035300904,-0.06607579439878464,-0.0019546172115951777,-1.7221969366073608,1013.779,
2021.02.13 19:04:58,87.0,24.0,52.92633,-9.060541,-40.815422,-0.03117308,0.6586568,9.713817,0.012669365,0.008848692,-4.9605884E-4,-0.06770220398902893,0.0032091373577713966,-1.6889500617980957,1013.7792,
2021.02.13 19:04:58,87.0,24.0,51.77095,-9.184327,-42.44719,-0.061073337,0.68965095,9.768628,0.0014600081,0.0058515295,0.0076763975,-0.07048022747039795,0.006251906044781208,-1.6896324157714844,1013.77924,
2021.02.13 19:04:58,87.0,24.0,53.015427,-10.688857,-42.007317,-0.022406751,0.64654654,9.646348,0.008863559,0.00898587,0.021270394,-0.06692472845315933,0.0023228179197758436,-1.7180191278457642,1013.7793,
2021.02.13 19:04:58,87.0,24.0,52.812576,-11.006194,-40.446815,0.023210654,0.6812703,9.78645,-0.017675914,0.010620414,0.021549528,-0.06950130313634872,-0.0023717086296528578,-1.7241792678833008,1013.7793,
2021.02.13 19:04:58,87.0,24.0,53.254547,-10.178495,-41.838875,0.030784039,0.71637183,9.765412,-0.0050897487,0.004129764,0.019063493,-0.07322654128074646,-0.003152343910187483,-1.7030603885650635,1013.7799,
2021.02.13 19:04:58,87.0,24.0,53.854477,-9.472745,-40.9869,0.008328863,0.70576304,9.682733,-0.008792623,0.0024301612,5.970574E-4,-0.07276013493537903,-8.601766894571483E-4,-1.690311312675476,1013.78,
2021.02.13 19:04:58,87.0,24.0,53.292007,-9.987422,-41.44026,0.04885608,0.67004395,9.778373,-0.0063202,-0.0042641032,-0.010119161,-0.06841524690389633,-0.004996298812329769,-1.7036460638046265,1013.7803,
2021.02.13 19:04:59,87.0,24.0,53.030502,-10.267454,-40.77498,-0.014697275,0.70265657,9.779449,0.0023555302,-0.005908732,-0.008646482,-0.0717269778251648,0.001502872328273952,-1.707993984222412,1013.7806,
2021.02.13 19:04:59,87.0,24.0,52.652786,-10.30434,-40.037025,0.017452424,0.6690109,9.775013,0.0035717408,-0.0069795353,-0.016643977,-0.06833424419164658,-0.0017854099860414863,-1.713082194328308,1013.7806,
2021.02.13 19:04:59,87.0,24.0,53.253174,-10.528667,-40.728004,-0.04886173,0.6772721,9.766812,-0.0018132003,-8.7820797E-4,-0.026970107,-0.06923253834247589,0.005002791061997414,-1.7143409252166748,1013.78076,
2021.02.13 19:04:59,87.0,24.0,53.636765,-10.5969095,-40.94816,-0.019709112,0.66809136,9.78764,8.012899E-4,-0.0031058798,-0.010297091,-0.06815283000469208,0.0020136709790676832,-1.7149944305419922,1013.7808,
2021.02.13 19:04:59,87.0,24.0,53.135742,-10.6472025,-40.412354,0.03602931,0.5960677,9.72691,0.012433258,-0.004981081,-0.007932355,-0.06120332330465317,-0.0037040691822767258,-1.7228918075561523,1013.7809,
2021.02.13 19:04:59,87.0,24.0,52.79808,-10.849786,-40.330353,-0.048083156,0.6521033,9.7036295,0.0062370826,-0.0015551497,-0.012834947,-0.06710029393434525,0.004955131560564041,-1.723664402961731,1013.7811,
2021.02.13 19:04:59,87.0,24.0,54.452454,-9.826145,-41.10285,0.0033880037,0.6587035,9.780202,-0.0061036386,1.4135588E-4,0.003898313,-0.06724914163351059,-3.464144829194993E-4,-1.6993939876556396,1013.7812,
2021.02.13 19:04:59,87.0,24.0,52.993027,-9.392845,-40.839302,0.02306208,0.63369393,9.719188,-1.8567685E-4,-0.0035268655,0.0037065048,-0.06510796397924423,-0.002372835762798786,-1.6967798471450806,1013.7812,
2021.02.13 19:04:59,87.0,24.0,53.125,-9.301716,-40.634705,-0.03109557,0.65325063,9.789588,-0.0060239974,-0.0030513036,0.00877179,-0.06663001328706741,0.003176381578668952,-1.6940346956253052,1013.7812,
2021.02.13 19:04:59,87.0,24.0,52.339706,-10.231008,-41.711517,0.04261635,0.54425,9.67566,0.0048498847,9.688012E-4,0.007941643,-0.0561896376311779,-0.0044044614769518375,-1.7198141813278198,1013.7812,
2021.02.13 19:04:59,87.0,24.0,53.29608,-9.24515,-41.74289,-0.050596077,0.6865847,9.826053,-0.02053354,0.004093087,0.010017075,-0.06975959986448288,0.005149130709469318,-1.688819408416748,1013.7812,
2021.02.13 19:04:59,87.0,24.0,52.198242,-10.246605,-40.18168,0.10313716,0.5549003,9.739384,0.0065835984,-7.3217915E-4,0.027854618,-0.05691017210483551,-0.010589304380118847,-1.7212276458740234,1013.7812,
2021.02.13 19:04:59,87.0,24.0,52.93048,-9.581528,-39.9664,0.007813687,0.6300151,9.780945,-0.00693978,0.0054658856,0.0033965518,-0.06432361155748367,-7.988681900314987E-4,-1.702118992805481,1013.7812,
2021.02.13 19:04:59,87.0,24.0,52.631454,-9.00058,-41.390945,0.00853991,0.66734666,9.783957,0.0026426155,0.0025681893,0.0144255785,-0.06810275465250015,-8.728481479920447E-4,-1.6873432397842407,1013.7812,
2021.02.13 19:04:59,87.0,24.0,52.409927,-8.570992,-40.339203,0.1271117,0.57085705,9.707162,0.011789429,0.010126818,0.0064808913,-0.05873515084385872,-0.01309388317167759,-1.687928318977356,1013.7812,
2021.02.13 19:05:00,87.0,24.0,52.657257,-10.346044,-40.197777,2.5282227E-4,0.6127486,9.78737,0.017087543,0.022028226,-0.017167455,-0.0625244528055191,-2.5831481252680533E-5,-1.7181158065795898,1013.7812,
2021.02.13 19:05:00,87.0,24.0,54.016266,-9.644882,-40.738487,-0.07637606,0.6958294,9.715335,0.055451233,0.06506653,-0.023896348,-0.07149747014045715,0.00786123052239418,-1.6945642232894897,1013.7812,
2021.02.13 19:05:00,87.0,24.0,53.45363,-9.260066,-41.29075,-0.051927,0.7137955,9.760078,0.023622967,-0.010086991,-0.001371444,-0.07300319522619247,0.005320296622812748,-1.6867985725402832,1013.7812,
2021.02.13 19:05:00,87.0,24.0,53.61621,-9.917942,-40.564484,-0.04688704,0.72924584,9.804072,0.018830627,-0.047812875,0.0069091627,-0.07424435764551163,0.004782367963343859,-1.6985598802566528,1013.7812,
2021.02.13 19:05:00,87.0,24.0,53.059204,-11.1517935,-41.00927,0.03216281,0.69945717,9.726462,0.03591682,-0.053781323,0.019055448,-0.07178883254528046,-0.0033067206386476755,-1.7236369848251343,1013.7812,
2021.02.13 19:05:00,87.0,24.0,52.793747,-10.051164,-41.603065,0.10028619,0.7255225,9.719226,0.014439324,-0.049055915,0.020136967,-0.07450603693723679,-0.010317965410649776,-1.7009683847427368,1013.7812,
2021.02.13 19:05:00,87.0,24.0,52.8179,-9.271422,-42.564453,0.137815,0.72943896,9.719749,0.013387956,-0.034049645,0.00956125,-0.07489918172359467,-0.014177912846207619,-1.6848106384277344,1013.7812,
2021.02.13 19:05:00,87.0,24.0,53.14171,-9.381122,-41.235977,0.11392242,0.6925052,9.994628,0.0031998593,-0.037757903,0.0068967277,-0.069172702729702,-0.011397871188819408,-1.692387580871582,1013.78345,
2021.02.13 19:05:00,87.0,24.0,52.021378,-10.404485,-41.027565,0.2176835,0.82581085,9.247273,0.052111104,-0.03837222,-0.013251727,-0.08904235810041428,-0.023535942658782005,-1.6989266872406006,1013.78345,
