Time,X-cord,Y-cord,Mag_x,Mag_y,Mag_z,Acc_x,Acc_y,Acc_z,Gyro_x,Gyro_y,Gyro_z,Orn_x,Orn_y,Orn_z,Pressure,
2021.02.13 18:59:31,77.0,21.0,21.752602,-46.425682,-38.24958,0.12807746,0.6538192,10.743171,-0.042241685,-0.010081436,-0.019871373,-0.06077977269887924,-0.011921191588044167,-2.674484968185425,1013.7378,
2021.02.13 18:59:31,77.0,21.0,21.131256,-47.120415,-37.196724,0.2635042,0.8186948,9.259378,-0.056654744,-0.011652644,0.15437622,-0.08815305680036545,-0.028450408950448036,-2.6720635890960693,1013.7378,
2021.02.13 18:59:31,77.0,21.0,21.357765,-45.051746,-36.99163,0.07306655,0.7207718,9.765681,-0.028592499,0.03210538,0.001538143,-0.07367096841335297,-0.007481831591576338,-2.66805362701416,1013.7378,
2021.02.13 18:59:31,77.0,21.0,21.493492,-45.71338,-37.800446,-0.12005227,0.8425352,9.678067,-0.04500528,-0.04251693,0.007098938,-0.08683055639266968,0.012403934262692928,-2.679785966873169,1013.7378,
2021.02.13 18:59:31,77.0,21.0,21.266464,-45.772427,-37.653824,0.27780017,0.6426522,9.571317,-0.053971525,-0.009299751,0.025646055,-0.06701478362083435,-0.02901609241962433,-2.66406512260437,1013.7378,
2021.02.13 18:59:31,77.0,21.0,21.058273,-45.196922,-36.852844,0.16694613,0.6518375,9.911042,-0.030022582,-0.016876148,-0.08587619,-0.06566493958234787,-0.01684286631643772,-2.671903133392334,1013.7378,
2021.02.13 18:59:31,77.0,21.0,21.551987,-45.514313,-37.097366,-0.12395173,0.764085,9.658584,-0.048449237,-0.048816692,-0.018580096,-0.0789385437965393,0.01283261924982071,-2.680562973022461,1013.7378,
2021.02.13 18:59:31,77.0,21.0,20.36171,-44.89022,-37.61818,-0.202226,0.83344203,9.840243,-0.02318904,-0.04137748,0.049094327,-0.08447788655757904,0.020548023283481598,-2.7008628845214844,1013.7378,
2021.02.13 18:59:31,77.0,21.0,21.035957,-47.25345,-38.06759,0.12803014,0.5127879,9.779003,0.05684986,-2.8975727E-4,-0.02039363,-0.052385177463293076,-0.013091602362692356,-2.6971020698547363,1013.7378,
2021.02.13 18:59:31,77.0,21.0,21.328102,-46.145554,-37.10356,-0.035903737,0.5518907,9.59899,0.04173034,-0.00230403,-0.038157113,-0.05743103101849556,0.0037403483875095844,-2.6922192573547363,1013.7378,
2021.02.13 18:59:31,77.0,21.0,20.94445,-44.307774,-36.31649,-0.27119926,0.58923954,9.724526,0.018149396,0.00541752,-0.024659226,-0.06049567833542824,0.027880944311618805,-2.698620319366455,1013.73724,
2021.02.13 18:59:31,77.0,21.0,20.994858,-47.090954,-38.600433,-0.123116516,0.43384194,9.702436,0.01386917,-0.0020041482,0.041811783,-0.044681381434202194,0.012688555754721165,-2.7166340351104736,1013.7365,
2021.02.13 18:59:31,77.0,21.0,20.869087,-45.90026,-37.972588,-0.2529379,0.93888324,10.1596575,-0.02252645,-0.005875135,0.02260803,-0.09212276339530945,0.024891160428524017,-2.7002980709075928,1013.73486,
2021.02.13 18:59:31,77.0,21.0,19.3609,-45.57504,-37.00956,0.02654373,0.6172208,9.612346,0.07826646,0.020314278,0.055858094,-0.06412298232316971,-0.002761413808912039,-2.7175424098968506,1013.7345,
2021.02.13 18:59:32,77.0,21.0,20.969818,-46.553085,-37.410423,-0.028826484,0.425038,9.588936,0.021921441,0.044088766,-0.0037426627,-0.04429668188095093,0.0030062145087867975,-2.7062811851501465,1013.7345,
2021.02.13 18:59:32,77.0,21.0,19.298729,-46.72249,-36.567627,0.018894339,0.6393495,10.055896,-0.022139901,0.040750302,-0.0058152988,-0.0634939968585968,-0.0018789292080327868,-2.7295305728912354,1013.73444,
2021.02.13 18:59:32,77.0,21.0,20.998451,-45.997402,-36.422592,0.15870231,0.47367033,9.417659,0.058877148,0.02585061,-0.0216532,-0.05024650692939758,-0.016849974170327187,-2.686225175857544,1013.73444,
2021.02.13 18:59:32,77.0,21.0,19.857262,-46.052937,-36.50847,-0.022366738,0.70373195,9.834164,-0.013127239,0.024128964,-0.046050094,-0.07143796235322952,0.002274387516081333,-2.7134289741516113,1013.7324,
2021.02.13 18:59:32,77.0,21.0,20.914978,-46.054043,-37.7163,0.1213282,0.6579448,9.960841,-0.003641672,0.013748844,-0.025774764,-0.06595245003700256,-0.012179914861917496,-2.6847715377807617,1013.7324,
2021.02.13 18:59:32,77.0,21.0,20.121788,-46.192406,-35.895752,0.123065256,0.529963,9.423047,0.03430481,-4.6202773E-4,-0.035965748,-0.056177183985710144,-0.013059285469353199,-2.7049660682678223,1013.7324,
2021.02.13 18:59:32,77.0,21.0,21.276237,-45.132767,-36.23802,0.10840241,0.5373258,9.583801,-0.044390153,-0.0026543362,-0.061985575,-0.05600382760167122,-0.011310520581901073,-2.674954891204834,1013.7324,
2021.02.13 18:59:32,77.0,21.0,20.619278,-46.0021,-35.876244,-0.15383676,0.65032345,9.802361,-0.0661381,-0.0121105155,-0.07583745,-0.06623835116624832,0.015692560002207756,-2.7096712589263916,1013.7324,
2021.02.13 18:59:32,77.0,21.0,20.718796,-46.008232,-35.722084,-0.062347773,0.59801096,9.532817,-0.054357477,-0.0185003,-0.026105082,-0.06264839321374893,0.006540237460285425,-2.703012704849243,1013.7324,
2021.02.13 18:59:32,77.0,21.0,20.310173,-45.12305,-36.425842,0.25837663,0.4064614,9.91132,-0.0930734,-0.016439933,-0.01677401,-0.04097294062376022,-0.026062939316034317,-2.6881790161132812,1013.7324,
2021.02.13 18:59:32,77.0,21.0,20.30069,-44.425014,-36.639587,-0.18029296,0.76750344,9.919145,-0.045628197,-0.008058312,-0.099634945,-0.07720940560102463,0.01817426085472107,-2.6991655826568604,1013.7324,
2021.02.13 18:59:32,77.0,21.0,20.62925,-44.26865,-37.271904,-0.19924228,0.69730586,9.961333,-0.0014322016,-0.00423891,-0.035543896,-0.06987331807613373,0.019998900592327118,-2.695143699645996,1013.7324,
2021.02.13 18:59:32,77.0,21.0,21.462326,-44.40236,-36.16118,-0.0033852255,0.48712096,9.616121,0.04220768,0.0043872846,0.0056579798,-0.05061342939734459,3.5203644074499607E-4,-2.6743431091308594,1013.7324,
2021.02.13 18:59:32,77.0,21.0,21.645432,-45.504776,-35.33609,-0.057740692,0.53779954,9.801987,-0.009953417,0.015729014,-0.011598337,-0.054810475558042526,0.005890644621104002,-2.683661937713623,1013.7324,
2021.02.13 18:59:33,77.0,21.0,20.360832,-45.603676,-37.20833,-0.19803019,0.63036495,9.7501,-0.0017487273,-0.0042678416,0.03251549,-0.064549021422863,0.020307786762714386,-2.714616298675537,1013.7324,
2021.02.13 18:59:33,77.0,21.0,20.86953,-45.542286,-37.60002,0.044026952,0.5475975,9.791195,-0.013111343,8.7830005E-4,0.017991457,-0.055868782103061676,-0.0044965557754039764,-2.6900060176849365,1013.73157,
2021.02.13 18:59:33,77.0,21.0,20.898361,-45.04985,-37.68737,-0.08932227,0.57766503,9.663144,-0.005242943,0.0075969594,-0.0032632204,-0.05970663204789162,0.00924333930015564,-2.6931471824645996,1013.7309,
2021.02.13 18:59:33,77.0,21.0,20.633385,-43.965683,-36.100754,-0.06438759,0.6367447,9.804689,-0.024493868,8.9770695E-4,0.013633192,-0.06485040485858917,0.006566925439983606,-2.6850335597991943,1013.7306,
2021.02.13 18:59:33,77.0,21.0,20.52124,-45.00894,-36.496536,0.067441486,0.579463,9.762348,-0.010725129,-0.0013862501,0.016593209,-0.059285953640937805,-0.006908216048032045,-2.689513921737671,1013.7302,
2021.02.13 18:59:33,77.0,21.0,20.69777,-45.978336,-37.10955,0.009224829,0.60577375,9.759461,-0.0060998024,0.0017793613,-0.011535253,-0.061990849673748016,-9.452187805436552E-4,-2.697648048400879,1013.7297,
2021.02.13 18:59:33,77.0,21.0,20.94561,-44.69303,-36.19017,-0.065119356,0.60112745,9.795709,6.58871E-4,0.009333396,-0.01859934,-0.061288200318813324,0.006647645495831966,-2.687187433242798,1013.7295,
2021.02.13 18:59:33,77.0,21.0,21.331917,-45.02568,-38.23353,-0.04795839,0.6140804,9.684914,0.006060778,0.0041105486,-0.008349592,-0.0633203312754631,0.004951824899762869,-2.6800625324249268,1013.72943,
2021.02.13 18:59:33,77.0,21.0,21.848473,-45.082466,-38.16326,0.017692398,0.6108139,9.792152,0.008033222,0.005505518,-0.01955491,-0.06229708716273308,-0.001806791638955474,-2.666623830795288,1013.7295,
2021.02.13 18:59:33,77.0,21.0,22.414963,-44.372166,-37.679504,-0.031086152,0.60767895,9.761204,-3.8001096E-4,0.005646942,-0.024478909,-0.062173955142498016,0.0031846531201153994,-2.6530025005340576,1013.7295,
2021.02.13 18:59:33,77.0,21.0,21.985764,-44.981472,-36.99417,-0.026224097,0.60484785,9.735634,5.4705364E-4,-7.207219E-4,-0.019417142,-0.062047239392995834,0.0026936132926493883,-2.6669747829437256,1013.73004,
2021.02.13 18:59:33,77.0,21.0,21.235428,-45.20603,-37.490356,5.886853E-4,0.60056436,9.766508,-0.0024609552,-0.0027906958,-0.014582317,-0.061414897441864014,-6.027592462487519E-5,-2.6811683177948,1013.7302,
2021.02.13 18:59:33,77.0,21.0,21.563797,-45.134872,-37.963707,-0.03352632,0.5492254,9.728361,-0.0040463186,-0.0073645217,-0.020834325,-0.05639590695500374,0.0034462318290024996,-2.67844295501709,1013.7302,
2021.02.13 18:59:33,77.0,21.0,21.625618,-46.106716,-36.572327,-0.06863963,0.563295,9.7173,-0.012608016,-0.0055514593,-0.0140339285,-0.0579020194709301,0.007063534576445818,-2.6886680126190186,1013.7302,
2021.02.13 18:59:34,77.0,21.0,21.269753,-45.90849,-36.553406,7.2303787E-4,0.5190379,9.742372,-0.01731693,-0.0032340807,-0.009671312,-0.05322601646184921,-7.421579357469454E-5,-2.6903579235076904,1013.7306,
2021.02.13 18:59:34,77.0,21.0,21.092926,-45.619663,-37.483063,-0.040254787,0.54023266,9.789636,-0.021074861,0.0042447727,-0.0137525555,-0.055127762258052826,0.004111956804990768,-2.692800760269165,1013.7309,
2021.02.13 18:59:34,77.0,21.0,21.653893,-45.005985,-37.686623,-0.059818815,0.5551309,9.688862,-0.014051149,0.0054925256,-0.007806201,-0.05723211541771889,0.006173898931592703,-2.6772658824920654,1013.7319,
2021.02.13 18:59:34,77.0,21.0,21.778519,-44.896194,-37.39393,-0.0065621734,0.50788903,9.784775,-0.025851153,0.0050947145,-0.007031939,-0.051859498023986816,6.706513231620193E-4,-2.672271728515625,1013.7321,
2021.02.13 18:59:34,77.0,21.0,21.171616,-44.82015,-37.788322,-0.05021591,0.5065439,9.770156,-0.022034474,-0.0028943818,-0.004026861,-0.051798976957798004,0.0051396796479821205,-2.685861110687256,1013.7324,
2021.02.13 18:59:34,77.0,21.0,22.275833,-44.50011,-38.512627,-0.010925297,0.49099565,9.746563,-0.015997699,-7.179505E-4,-0.0019804402,-0.05033370479941368,0.0011209378717467189,-2.6596662998199463,1013.7326,
2021.02.13 18:59:34,77.0,21.0,22.17836,-45.244423,-37.073082,-0.064987354,0.4884126,9.819851,-0.014740166,0.0077429563,-0.0074703395,-0.04969523102045059,0.006617860868573189,-2.6731081008911133,1013.73267,
2021.02.13 18:59:34,77.0,21.0,21.950104,-45.669075,-37.157776,-0.018126728,0.47171912,9.71273,-0.0041074394,-1.5810272E-4,0.005376931,-0.04852888360619545,0.0018662833608686924,-2.678395986557007,1013.73285,
2021.02.13 18:59:34,77.0,21.0,21.48108,-45.622887,-38.777046,-0.012752712,0.46677718,9.789523,-0.013265655,0.003321751,-0.0022394399,-0.047645170241594315,0.0013026890810579062,-2.6858606338500977,1013.73285,
2021.02.13 18:59:34,77.0,21.0,22.516312,-44.324078,-38.601967,-0.009155831,0.4601144,9.776909,-0.011817731,0.0019112567,-6.009275E-4,-0.0470266155898571,9.364747675135732E-4,-2.654663562774658,1013.73303,
2021.02.13 18:59:34,77.0,21.0,21.697418,-44.273968,-38.36609,-0.028720295,0.4816881,9.788154,-0.006882093,0.0025527708,-0.0090171695,-0.04917145147919655,0.002934180898591876,-2.6700587272644043,1013.73315,
2021.02.13 18:59:34,77.0,21.0,20.78981,-44.10097,-38.11902,-0.041420054,0.44984427,9.749957,0.0021454769,0.003454306,-0.0065199593,-0.04610496386885643,0.004248203709721565,-2.6878087520599365,1013.73315,
2021.02.13 18:59:34,77.0,21.0,21.866234,-44.81025,-37.002815,-0.0048114024,0.44078052,9.788102,-0.004540696,-0.0022235338,7.509319E-4,-0.04500186815857887,4.915561876259744E-4,-2.6724259853363037,1013.7332,
2021.02.13 18:59:34,77.0,21.0,22.20472,-44.65395,-37.7899,-0.0115841525,0.47117212,9.715966,-0.00232455,-0.0039126854,-0.00469923,-0.04845662787556648,0.0011922793928533792,-2.6635587215423584,1013.7333,
2021.02.13 18:59:34,77.0,21.0,21.520485,-45.152603,-38.525078,0.016387949,0.44273362,9.797741,-0.0033395616,-0.0061508957,-0.004831465,-0.045156534761190414,-0.0016726236790418625,-2.6797852516174316,1013.73334,
2021.02.13 18:59:35,77.0,21.0,21.805061,-44.81478,-38.759468,-0.040215645,0.4628276,9.752194,-0.0047575375,-0.0068363044,-0.005338348,-0.047422830015420914,0.00412373011931777,-2.674527645111084,1013.7336,
2021.02.13 18:59:35,77.0,21.0,22.406334,-45.641434,-37.735687,-0.0041629397,0.47654995,9.772933,0.0010176719,0.0017999852,-0.011202605,-0.048723626881837845,4.259662237018347E-4,-2.6685574054718018,1013.73395,
2021.02.13 18:59:35,77.0,21.0,20.960892,-44.29016,-36.590233,-0.048011154,0.4758807,9.719552,0.0069032824,0.002736907,-0.0071511045,-0.04892151802778244,0.004939606878906488,-2.6863014698028564,1013.7347,
2021.02.13 18:59:35,77.0,21.0,21.421822,-44.016346,-38.168304,0.0066302028,0.46952763,9.791127,-0.014095973,0.0020711352,-2.5031436E-4,-0.0479176826775074,-6.77164294756949E-4,-2.6707844734191895,1013.7352,
2021.02.13 18:59:35,77.0,21.0,21.237099,-44.84896,-38.06141,-0.021652443,0.45099077,9.73362,-0.0017844744,0.008729723,-0.0089804875,-0.04630007594823837,0.0022244970314204693,-2.68477463722229,1013.73584,
2021.02.13 18:59:35,77.0,21.0,21.854744,-44.555447,-36.176224,-0.043428525,0.51680475,9.7597885,-0.0059794197,2.427809E-4,-0.0033733475,-0.052902523428201675,0.0044497111812233925,-2.670344829559326,1013.7365,
2021.02.13 18:59:35,77.0,21.0,20.60788,-46.225307,-37.456337,0.024538115,0.4546779,9.749101,-0.0011539025,0.004740752,0.0048104725,-0.04660401493310928,-0.0025169565342366695,-2.7055773735046387,1013.7373,
2021.02.13 18:59:35,77.0,21.0,22.748344,-44.747818,-37.526688,-0.02149558,0.4883473,9.777756,-0.0037217652,0.003398047,-0.0060935505,-0.04990313574671745,0.00219841324724257,-2.6547372341156006,1013.7375,
2021.02.13 18:59:35,77.0,21.0,20.95008,-44.743114,-36.316536,-0.015329146,0.49577737,9.767063,-0.0014940186,-0.002246979,-0.0017533924,-0.05071654170751572,0.0015694721369072795,-2.6878600120544434,1013.7382,
2021.02.13 18:59:35,77.0,21.0,20.411713,-44.702415,-37.269043,0.03711732,0.445833,9.699681,-0.0066300947,-0.0013028115,-0.014628574,-0.04593101516366005,-0.003826635191217065,-2.6952221393585205,1013.7382,
2021.02.13 18:59:35,77.0,21.0,21.354088,-45.787716,-37.249527,-0.03480608,0.47682476,9.759276,0.008446175,9.3983184E-4,-0.0027755063,-0.04881948605179787,0.003566446015611291,-2.691420078277588,1013.7386,
2021.02.13 18:59:35,77.0,21.0,22.248116,-46.083755,-37.504402,-0.014478308,0.49863684,9.741978,0.0099582365,0.0064696623,-0.0026738306,-0.05113966763019562,0.0014861763920634985,-2.6754086017608643,1013.7388,
2021.02.13 18:59:35,77.0,21.0,22.25328,-45.55829,-36.822624,-0.022376308,0.49854732,9.7779455,0.0046608737,0.010236606,-0.003085924,-0.05094267427921295,0.0022884428035467863,-2.6713979244232178,1013.73944,
2021.02.13 18:59:35,77.0,21.0,20.14618,-45.5491,-36.99494,0.0016905051,0.48257613,9.7509985,0.009103892,0.00722214,-0.0021987916,-0.04944957047700882,-1.7336738528683782E-4,-2.709193706512451,1013.7396,
2021.02.13 18:59:36,77.0,21.0,21.443863,-45.396152,-37.95617,-0.07603418,0.5122786,9.752807,0.00476666,0.01055853,-0.00842089,-0.05247645825147629,0.00779597507789731,-2.6875858306884766,1013.7396,
2021.02.13 18:59:36,77.0,21.0,20.924286,-44.733654,-37.28444,-0.011078711,0.50534576,9.735278,8.649726E-4,0.0063123144,0.0033836733,-0.05186212807893753,0.0011379957431927323,-2.687119245529175,1013.7396,
2021.02.13 18:59:36,77.0,21.0,22.546295,-44.79394,-37.8636,-0.010187853,0.49601635,9.742541,-0.011959498,0.0030734732,-0.006373014,-0.05086847022175789,0.0010457076132297516,-2.6575658321380615,1013.7397,
2021.02.13 18:59:36,77.0,21.0,21.395782,-45.895187,-37.316795,-0.046476085,0.5486503,9.814586,-0.013683898,0.004125588,-0.0016658958,-0.05584278330206871,0.004735374823212624,-2.689882755279541,1013.74005,
2021.02.13 18:59:36,77.0,21.0,21.389252,-44.266323,-37.27265,1.4359814E-4,0.5005017,9.680325,0.0031711534,7.1691885E-4,-0.0028974328,-0.05165698751807213,-1.4834021385468077E-5,-2.673255681991577,1013.74005,
2021.02.13 18:59:36,77.0,21.0,21.715416,-44.093594,-37.957573,-0.027894365,0.5255418,9.763211,-0.01307779,-6.677415E-4,-0.013531884,-0.05377666652202606,0.0028570813592523336,-2.6663193702697754,1013.74054,
2021.02.13 18:59:36,77.0,21.0,21.250221,-45.076614,-37.61692,-0.07363951,0.5273168,9.790988,-0.009275098,4.7389837E-4,-0.008698748,-0.053803861141204834,0.0075210100039839745,-2.6877315044403076,1013.74054,
2021.02.13 18:59:36,77.0,21.0,21.80619,-45.149166,-37.82704,-0.012458843,0.49576962,9.751053,-0.0040975553,0.0031432176,-0.0025281438,-0.050798896700143814,0.0012776913354173303,-2.6747357845306396,1013.74054,
2021.02.13 18:59:36,77.0,21.0,20.599014,-44.474792,-37.35959,-0.049295675,0.49634972,9.728894,-7.2309806E-5,0.0053508887,-0.012783678,-0.05097325146198273,0.0050668916665017605,-2.693967342376709,1013.74054,
2021.02.13 18:59:36,77.0,21.0,21.695541,-44.680763,-36.994576,-0.057557717,0.5205217,9.777669,-0.00553488,0.0042114877,6.715283E-4,-0.053184643387794495,0.005886582657694817,-2.6750361919403076,1013.74054,
2021.02.13 18:59:36,77.0,21.0,22.664993,-46.235798,-38.78518,0.007266968,0.45942736,9.76559,-0.0043295957,0.0016441605,-0.011600506,-0.04701085388660431,-7.441400666721165E-4,-2.6687471866607666,1013.74054,
2021.02.13 18:59:36,77.0,21.0,22.787735,-44.115887,-38.158234,-0.04051463,0.4740232,9.775486,-0.007847176,0.0042426246,-0.0058017657,-0.04845264554023743,0.004144489299505949,-2.649486541748047,1013.74054,
2021.02.13 18:59:36,77.0,21.0,21.351372,-45.446278,-37.962006,-0.02521657,0.47843242,9.766248,-0.008799591,7.229119E-4,-0.0027156263,-0.04894906282424927,0.002582006389275193,-2.687408924102783,1013.74054,
2021.02.13 18:59:37,77.0,21.0,21.66439,-44.11254,-38.103523,-0.024481328,0.4870626,9.765228,-0.0021072412,0.002661884,-0.007425536,-0.04983578249812126,0.002506984630599618,-2.6686835289001465,1013.74066,
2021.02.13 18:59:37,77.0,21.0,23.323647,-44.443813,-38.654778,-0.066057295,0.47842297,9.73302,-2.2340877E-4,0.002269234,-0.007993338,-0.04911397024989128,0.006786822807043791,-2.6442933082580566,1013.7407,
2021.02.13 18:59:37,77.0,21.0,21.024391,-46.41922,-37.13492,-0.021815874,0.46781668,9.766255,-0.008551063,0.003379606,0.0018598628,-0.047864627093076706,0.002233797451481223,-2.7024986743927,1013.7407,
2021.02.13 18:59:37,77.0,21.0,20.901955,-44.883575,-38.442513,-0.059727192,0.49339035,9.769504,0.0014923897,5.9932953E-4,0.0016889455,-0.050459299236536026,0.006113559938967228,-2.6924889087677,1013.74097,
2021.02.13 18:59:37,77.0,21.0,21.201424,-44.857803,-37.51893,-0.03146523,0.47671893,9.7693815,0.0038101482,0.00296004,0.0065336297,-0.04875832051038742,0.003220789134502411,-2.685528039932251,1013.7415,
2021.02.13 18:59:37,77.0,21.0,21.9682,-44.992245,-37.674644,-0.04335062,0.45116726,9.768159,0.0041874126,0.0028356507,0.0038390742,-0.046154286712408066,0.00443792250007391,-2.674248695373535,1013.7418,
2021.02.13 18:59:37,77.0,21.0,22.045044,-45.061775,-37.641243,-0.06139229,0.49471462,9.7382,0.0031625265,0.003750622,0.0036934186,-0.050756797194480896,0.006304190959781408,-2.6730589866638184,1013.742,
2021.02.13 18:59:37,77.0,21.0,21.304405,-45.273476,-36.077408,-0.049681846,0.46712685,9.779069,0.0076847216,0.0059267133,0.007724181,-0.04773113504052162,0.005080383270978928,-2.6895411014556885,1013.742,
2021.02.13 18:59:37,77.0,21.0,21.417809,-43.6386,-37.949493,-0.057589848,0.4837874,9.6869135,0.0038345566,0.002013619,0.007015371,-0.04990002512931824,0.0059450482949614525,-2.671264171600342,1013.742,
2021.02.13 18:59:37,77.0,21.0,21.055626,-44.941254,-36.38778,-0.020462768,0.4717041,9.826107,-0.011283752,-0.0017631538,0.013193723,-0.04796825721859932,0.0020824868697673082,-2.688973903656006,1013.742,
2021.02.13 18:59:37,77.0,21.0,21.560814,-45.109062,-37.748207,-0.041937247,0.46102223,9.707234,0.0040508406,-0.0043656714,0.008518692,-0.047456540167331696,0.004320178646594286,-2.6822822093963623,1013.742,
2021.02.13 18:59:37,77.0,21.0,20.97136,-43.66004,-37.027855,-0.042160828,0.49681783,9.831395,-0.005700929,5.1021413E-4,0.004776427,-0.05049039423465729,0.0042883604764938354,-2.6789650917053223,1013.742,
2021.02.13 18:59:37,77.0,21.0,22.96875,-42.747272,-37.050293,-0.059255738,0.4480063,9.719077,0.0039491276,-0.001482076,0.005022714,-0.04606209695339203,0.006096772383898497,-2.635044574737549,1013.7415,
2021.02.13 18:59:37,77.0,21.0,21.546875,-44.488106,-37.126984,-0.029365443,0.45109263,9.761539,0.00959133,0.0038357726,-0.0077915937,-0.04617816209793091,0.0030082708690315485,-2.6765758991241455,1013.74097,
2021.02.13 18:59:38,77.0,21.0,21.871346,-45.075527,-37.16739,-0.10263201,0.49499533,9.834648,0.0016934648,0.0012371363,0.011968325,-0.05028660222887993,0.010435379110276699,-2.67956280708313,1013.74066,
2021.02.13 18:59:38,77.0,21.0,21.80951,-44.106598,-37.914078,0.012668774,0.44974896,9.702388,0.009842449,7.0953934E-4,0.014486655,-0.046321265399456024,-0.001305737067013979,-2.6646745204925537,1013.74054,
2021.02.13 18:59:38,77.0,21.0,21.841393,-44.52736,-37.41996,-0.06294243,0.4826403,9.725595,0.009404917,0.011886697,-0.009798625,-0.04958406835794449,0.0064717428758740425,-2.6724541187286377,1013.7403,
2021.02.13 18:59:38,77.0,21.0,21.375816,-44.052246,-38.934105,-0.106834054,0.4909966,9.857701,-0.002961649,0.008337033,0.0014380984,-0.049764376133680344,0.010837199166417122,-2.67931866645813,1013.7402,
2021.02.13 18:59:38,77.0,21.0,21.405373,-44.300175,-37.329742,-0.09484262,0.50562704,9.654214,0.027626734,-0.016295584,0.0058265687,-0.05232338234782219,0.00982364546507597,-2.679849147796631,1013.74005,
2021.02.13 18:59:38,77.0,21.0,20.599525,-45.043526,-37.272675,-0.013160531,0.4976908,9.837026,-0.0063879257,-0.025831109,0.030173698,-0.05055047199130058,0.0013378559378907084,-2.6966962814331055,1013.74005,
2021.02.13 18:59:38,77.0,21.0,20.779274,-44.66652,-36.902573,-0.053263325,0.5131419,9.773911,0.018638704,-0.039568998,0.04301944,-0.05245224013924599,0.005449486430734396,-2.6921896934509277,1013.74,
2021.02.13 18:59:38,77.0,21.0,20.276962,-45.676506,-36.86151,-0.077593796,0.54173297,9.72952,0.023887565,-0.053519666,0.077008024,-0.055620115250349045,0.00797492079436779,-2.711394786834717,1013.7396,
2021.02.13 18:59:38,77.0,21.0,21.057236,-45.91326,-36.930183,0.20599115,0.5210798,9.6601095,0.069174044,-0.074110575,0.07580364,-0.05387694761157036,-0.021320663392543793,-2.6797971725463867,1013.7396,
2021.02.13 18:59:38,77.0,21.0,20.782562,-45.94558,-36.93962,0.1924435,0.61321396,9.870432,0.048409566,-0.04935683,0.042865675,-0.06203485652804375,-0.019494500011205673,-2.683422327041626,1013.7396,
2021.02.13 18:59:38,77.0,21.0,20.216782,-46.454845,-38.084023,0.3227303,0.6368287,9.285412,-0.020943085,0.0039519654,-0.011090163,-0.06843536347150803,-0.03474271669983864,-2.684695243835449,1013.74,
