Time,X-cord,Y-cord,Mag_x,Mag_y,Mag_z,Acc_x,Acc_y,Acc_z,Gyro_x,Gyro_y,Gyro_z,Orn_x,Orn_y,Orn_z,Pressure,
2021.02.13 18:47:57,34.0,24.0,50.27867,-13.501718,-40.16829,0.023769975,0.6619518,9.634027,0.04276254,0.040754624,-0.054560132,-0.06860173493623734,-0.0024672888685017824,-1.7805572748184204,1013.6662,
2021.02.13 18:47:57,34.0,24.0,50.229843,-13.603744,-40.41416,-0.089382775,0.54371065,9.945844,-0.016934441,-0.011079621,0.017096436,-0.054610561579465866,0.008986705914139748,-1.7946561574935913,1013.6663,
2021.02.13 18:47:57,34.0,24.0,49.7314,-14.120547,-40.714355,0.074620634,0.45718086,9.738502,0.028980289,-0.06721998,0.03880566,-0.046909891068935394,-0.00766228511929512,-1.8101861476898193,1013.6664,
2021.02.13 18:47:58,34.0,24.0,49.431244,-14.884706,-41.51738,0.049663495,0.39313522,9.643918,0.017467555,-0.017801048,0.019898776,-0.040741994976997375,-0.005149675998836756,-1.8305184841156006,1013.66656,
2021.02.13 18:47:58,34.0,24.0,49.328888,-13.86609,-41.660957,-0.031457093,0.42180333,9.802257,0.007589277,0.014031825,-0.002421721,-0.04300449416041374,0.0032091576140373945,-1.8111145496368408,1013.66675,
2021.02.13 18:47:58,34.0,24.0,50.42137,-14.058269,-40.336563,-0.09439358,0.5366958,9.71281,-0.0027451776,0.019563233,0.011432151,-0.05519775301218033,0.009718156419694424,-1.8021429777145386,1013.66736,
2021.02.13 18:47:58,34.0,24.0,49.812683,-15.915746,-41.356766,-0.062375158,0.54073715,9.805715,0.01424381,0.0289591,0.021888971,-0.055088192224502563,0.006361017003655434,-1.8386223316192627,1013.6678,
2021.02.13 18:47:58,34.0,24.0,49.609222,-14.968762,-40.502266,-0.1511149,0.7755575,9.771941,0.016408082,-0.0022182,0.041678037,-0.07919032126665115,0.015462931245565414,-1.8044683933258057,1013.6679,
2021.02.13 18:47:58,34.0,24.0,50.117554,-14.199952,-41.784477,0.13816284,0.551066,9.504823,0.005901875,-0.014687733,0.07308775,-0.05790657550096512,-0.014535053633153439,-1.799387812614441,1013.6682,
2021.02.13 18:47:58,34.0,24.0,49.65918,-13.242362,-41.498894,0.0071099713,0.58153135,9.857822,-0.04307855,0.008592959,0.009122908,-0.05892356112599373,-7.212516502477229E-4,-1.7843892574310303,1013.6681,
2021.02.13 18:47:58,34.0,24.0,49.57115,-14.30549,-40.856094,-0.08576154,0.68225694,9.687173,-0.018619034,-0.0114317825,0.008229851,-0.07031004875898361,0.00885287206619978,-1.7978578805923462,1013.6679,
2021.02.13 18:47:58,34.0,24.0,49.684845,-14.626552,-40.75286,0.003417395,0.6505243,9.891007,-0.05310737,0.00462254,0.027330171,-0.06567467749118805,-3.4550525015220046E-4,-1.8062251806259155,1013.6678,
2021.02.13 18:47:58,34.0,24.0,50.082245,-13.602159,-40.102913,0.2351348,0.4761355,10.003554,0.004317697,0.012063453,0.010402578,-0.04754762724041939,-0.023500798270106316,-1.7969520092010498,1013.66736,
2021.02.13 18:47:58,34.0,24.0,50.703262,-14.295999,-40.632164,-0.172853,0.60138714,9.540778,0.07297617,-0.014363778,-0.044126738,-0.06293974816799164,0.018115302547812462,-1.7999821901321411,1013.66736,
2021.02.13 18:47:58,34.0,24.0,49.147873,-13.415206,-39.82621,-0.045874063,0.56349444,9.895357,0.014113212,-0.014152962,0.0064200684,-0.05688329413533211,0.004635884426534176,-1.7940489053726196,1013.66736,
2021.02.13 18:47:58,34.0,24.0,51.280106,-13.272029,-40.731552,0.072111934,0.53059524,9.6272745,0.04093557,-0.01237512,-0.0037241238,-0.05505651235580444,-0.007490239106118679,-1.7814828157424927,1013.66736,
2021.02.13 18:47:58,34.0,24.0,50.7937,-13.857059,-41.65664,0.039585248,0.5283754,9.842675,0.017596487,-0.0042116614,-0.025237868,-0.05363018065690994,-0.004021775908768177,-1.7948907613754272,1013.6678,
2021.02.13 18:47:58,34.0,24.0,50.933594,-13.245721,-41.144066,0.0142848,0.6015306,9.676885,0.03474964,-0.019624764,-0.030536275,-0.06208164617419243,-0.0014761764323338866,-1.7771013975143433,1013.6679,
2021.02.13 18:47:59,34.0,24.0,50.496094,-14.544457,-40.993027,9.867614E-4,0.5933108,9.698239,0.011529684,-0.012310164,-0.03077896,-0.06110101193189621,-1.0174645285587758E-4,-1.8043633699417114,1013.6679,
2021.02.13 18:47:59,34.0,24.0,50.5856,-15.190797,-41.313515,0.0017710613,0.5876792,9.747399,0.007036545,8.075033E-4,-0.028279157,-0.060217976570129395,-1.8169578106608242E-4,-1.8163186311721802,1013.6678,
2021.02.13 18:47:59,34.0,24.0,51.328506,-13.676299,-41.039536,-0.084635176,0.6834925,9.74308,7.2391145E-4,0.001774366,-0.017783321,-0.0700342059135437,0.008686477318406105,-1.7784675359725952,1013.6673,
2021.02.13 18:47:59,34.0,24.0,49.77704,-14.903602,-41.483498,0.070188954,0.6040154,9.794537,-6.208061E-4,5.5206637E-4,0.007113367,-0.06158902868628502,-0.007166010327637196,-1.8124979734420776,1013.66724,
2021.02.13 18:47:59,34.0,24.0,49.817047,-13.248958,-41.623016,0.04894313,0.5850437,9.749677,0.0063573155,0.005472385,-0.016044488,-0.0599338561296463,-0.005019932519644499,-1.782411813735962,1013.6671,
2021.02.13 18:47:59,34.0,24.0,50.608,-13.566096,-41.584763,-0.07574847,0.59262055,9.700286,0.007500842,-0.0016076042,-0.0052163145,-0.06101540848612785,0.007808731868863106,-1.7858116626739502,1013.6671,
2021.02.13 18:47:59,34.0,24.0,49.918503,-14.321603,-41.31357,0.08701438,0.56173813,9.80299,-0.015101092,-9.148292E-4,0.020107865,-0.057237885892391205,-0.008876076899468899,-1.8043133020401,1013.6671,
2021.02.13 18:47:59,34.0,24.0,48.662292,-14.867059,-41.663918,0.035210066,0.59827936,9.766498,0.013166762,-0.0017944906,-2.9106898E-4,-0.061181485652923584,-0.0036051729694008827,-1.8176920413970947,1013.6671,
2021.02.13 18:47:59,34.0,24.0,50.20076,-13.351689,-40.453445,0.01914028,0.6081038,9.72402,0.0014035155,-0.007714407,0.008048545,-0.06245480850338936,-0.001968348165974021,-1.782509684562683,1013.6671,
2021.02.13 18:47:59,34.0,24.0,50.48906,-14.821128,-40.216812,0.10235567,0.6200056,9.835575,0.0065759043,5.869542E-4,0.007877755,-0.06295035034418106,-0.01040630228817463,-1.8077861070632935,1013.6671,
2021.02.13 18:47:59,34.0,24.0,49.945404,-15.368087,-40.412468,0.038074415,0.60587424,9.667572,0.023339627,-6.656038E-4,-0.0044462145,-0.06258842349052429,-0.003938343375921249,-1.8213380575180054,1013.6671,
2021.02.13 18:47:59,34.0,24.0,49.387054,-14.688714,-40.743835,0.025295598,0.61024874,9.711167,0.005698183,-5.013604E-4,-0.0015240342,-0.06275716423988342,-0.0026047888677567244,-1.8108118772506714,1013.6671,
2021.02.13 18:47:59,34.0,24.0,49.06575,-13.830392,-41.0475,0.06217433,0.62496203,9.759242,-0.0051779235,0.003303648,0.0011871691,-0.063949353992939,-0.006370729301124811,-1.7940505743026733,1013.6671,
2021.02.13 18:47:59,34.0,24.0,49.5708,-14.383483,-40.559296,0.042471748,0.62115806,9.746814,-0.0045735156,0.003539954,-0.0063532703,-0.06364267319440842,-0.0043574729934334755,-1.8034744262695312,1013.6671,
2021.02.13 18:47:59,34.0,24.0,49.61795,-13.245448,-39.297432,0.02180434,0.65792465,9.799678,-0.0029701153,0.0015554276,-0.0068748025,-0.06703660637140274,-0.0022250020410865545,-1.7807271480560303,1013.6671,
2021.02.13 18:48:00,34.0,24.0,49.827698,-15.635791,-41.647194,0.029508179,0.5823464,9.697816,0.004968047,0.0045238715,-0.004995127,-0.059976935386657715,-0.0030427558813244104,-1.8276437520980835,1013.66693,
2021.02.13 18:48:00,34.0,24.0,50.54503,-14.575377,-40.803093,-0.025755746,0.6593983,9.777482,-0.004262601,0.005358689,-0.0056407135,-0.06733831018209457,0.002634183969348669,-1.8003880977630615,1013.6664,
2021.02.13 18:48:00,34.0,24.0,49.51924,-13.5043955,-41.1101,0.027651012,0.571904,9.71939,0.00856911,0.008596017,0.015458729,-0.058773547410964966,-0.002844925271347165,-1.7903164625167847,1013.6662,
2021.02.13 18:48:00,34.0,24.0,49.945114,-15.362758,-42.23886,0.033906806,0.5354402,9.704147,-0.012703627,0.01141794,0.008114723,-0.05512019991874695,-0.003494038712233305,-1.8251268863677979,1013.6658,
2021.02.13 18:48:00,34.0,24.0,50.175613,-14.371001,-41.573677,-0.048762023,0.63702863,9.822067,-0.022462199,-3.7361064E-4,0.014280101,-0.06476537883281708,0.004964496940374374,-1.7995496988296509,1013.6658,
2021.02.13 18:48:00,34.0,24.0,50.492218,-13.337745,-41.212906,0.0856298,0.5453048,9.717361,-0.006705735,0.0027965864,0.026634589,-0.05605557933449745,-0.008811813779175282,-1.7844386100769043,1013.6658,
2021.02.13 18:48:00,34.0,24.0,50.744263,-13.994941,-40.583107,0.07089521,0.5299702,9.775429,-0.015247991,0.005350504,0.0075384225,-0.05416008457541466,-0.007252261508256197,-1.7979609966278076,1013.6657,
2021.02.13 18:48:00,34.0,24.0,49.95694,-14.543921,-41.006256,-0.046746258,0.6089118,9.781503,-0.011950346,0.0022894014,0.0019310858,-0.062170423567295074,0.004779010079801083,-1.8065463304519653,1013.6655,
2021.02.13 18:48:00,34.0,24.0,50.066162,-13.233056,-40.60385,0.073303185,0.57526064,9.766057,-0.0029054694,0.0015904065,0.018707532,-0.05883444845676422,-0.007505773101001978,-1.782863736152649,1013.66534,
2021.02.13 18:48:00,34.0,24.0,50.16333,-14.155461,-41.03357,0.0989179,0.52527755,9.782238,-1.1905329E-4,0.0021127593,-7.4461044E-5,-0.053642816841602325,-0.010111645795404911,-1.8030509948730469,1013.66486,
2021.02.13 18:48:00,34.0,24.0,50.465363,-13.341626,-41.467957,-0.06252128,0.58502316,9.779506,0.005861234,0.0032681022,-0.016091736,-0.059748921543359756,0.006393004674464464,-1.7831355333328247,1013.6646,
2021.02.13 18:48:00,34.0,24.0,50.156464,-15.048766,-41.453606,0.016960617,0.56151193,9.663266,0.0108698625,-0.004843942,0.008075954,-0.05804252251982689,-0.0017551621422171593,-1.817021131515503,1013.6646,
2021.02.13 18:48:00,34.0,24.0,51.03482,-14.079356,-41.57215,0.13114424,0.49907413,9.84402,-0.014712503,0.003100993,0.0044288114,-0.05065034702420235,-0.013321436010301113,-1.7991985082626343,1013.6634,
2021.02.13 18:48:00,34.0,24.0,49.360703,-14.564818,-40.007935,-0.0381161,0.5892009,9.740873,0.013614749,-0.0052455273,-0.021592552,-0.0604134164750576,0.003912986721843481,-1.8121395111083984,1013.6634,
2021.02.13 18:48:00,34.0,24.0,50.806778,-13.8091,-41.73902,-0.0063691325,0.5307531,9.745402,0.0016689079,4.1107065E-5,-0.003689805,-0.054408133029937744,6.535524735227227E-4,-1.793828010559082,1013.662,
2021.02.13 18:48:01,34.0,24.0,50.37973,-13.61588,-40.42096,0.063512154,0.5366601,9.684426,-0.0021574744,-0.011871628,0.0035604974,-0.0553569421172142,-0.006558080203831196,-1.791773796081543,1013.6602,
2021.02.13 18:48:01,34.0,24.0,49.910446,-14.180316,-40.912224,0.031170279,0.5539165,9.840016,-0.013099162,0.0021682703,-0.009524074,-0.05623260885477066,-0.003167695365846157,-1.8036538362503052,1013.659,
2021.02.13 18:48:01,34.0,24.0,51.126343,-14.797446,-41.047318,-0.0153944,0.54237324,9.644285,0.004649501,-4.1334482E-4,-0.006742503,-0.056178539991378784,0.0015962185570970178,-1.8102296590805054,1013.65875,
2021.02.13 18:48:01,34.0,24.0,50.168533,-14.003552,-41.172363,0.054004014,0.50867003,9.819789,-0.027357921,-0.0034950902,0.0032475898,-0.05175346881151199,-0.005499453283846378,-1.802108645439148,1013.6587,
2021.02.13 18:48:01,34.0,24.0,49.723297,-13.981593,-40.611923,-0.08646927,0.525589,9.811894,-0.003109309,-0.015261558,0.0025844998,-0.0535132959485054,0.00881247129291296,-1.8047844171524048,1013.65796,
2021.02.13 18:48:01,34.0,24.0,49.71953,-13.39696,-40.218513,0.11064422,0.54896396,9.75804,-0.005071028,-0.014372264,0.025821855,-0.05619475990533829,-0.011338288895785809,-1.7894525527954102,1013.65796,
2021.02.13 18:48:01,34.0,24.0,48.648834,-14.524192,-41.7724,0.21032532,0.47783646,9.875066,0.009294406,0.010480605,-0.0022218304,-0.048339519649744034,-0.02129540406167507,-1.8187646865844727,1013.65796,
2021.02.13 18:48:01,34.0,24.0,49.066284,-14.078624,-41.719025,-0.074331395,0.5312802,9.644031,0.02968045,0.012803779,-0.032949876,-0.05503176152706146,0.007707350421696901,-1.8071844577789307,1013.65796,
2021.02.13 18:48:01,34.0,24.0,50.19763,-13.983956,-40.467644,-0.04951408,0.5272582,9.739371,-0.0017391988,0.010577327,0.0051037725,-0.054083287715911865,0.005083865486085415,-1.8018783330917358,1013.65796,
2021.02.13 18:48:01,34.0,24.0,49.844345,-12.508119,-40.92148,0.104597785,0.46887144,9.811822,-0.0013985219,0.007547218,0.012401732,-0.04774734750390053,-0.010659980587661266,-1.7779382467269897,1013.65796,
2021.02.13 18:48:01,34.0,24.0,49.449112,-13.883224,-41.347626,-0.02383849,0.5444769,9.69034,0.014998584,-4.5728625E-4,-0.0033233012,-0.05612841621041298,0.0024600212927907705,-1.8004246950149536,1013.65796,
2021.02.13 18:48:01,34.0,24.0,49.74324,-13.831872,-40.772484,0.021456936,0.49373972,9.7532425,-0.0014673783,0.0032486347,0.011525684,-0.05057983100414276,-0.0021999762393534184,-1.8025137186050415,1013.65796,
2021.02.13 18:48:01,34.0,24.0,49.825867,-13.983462,-40.58628,0.038137868,0.51414734,9.730525,-0.011469161,0.0014725967,0.012440307,-0.052789103239774704,-0.003919384907931089,-1.803246021270752,1013.65796,
2021.02.13 18:48:01,34.0,24.0,49.241547,-14.298839,-40.42343,-0.0026006103,0.52048784,9.7136345,-0.015551725,0.0038457601,0.0043038633,-0.05353202670812607,2.6772782439365983E-4,-1.8120830059051514,1013.65796,
2021.02.13 18:48:01,34.0,24.0,49.689865,-13.451734,-41.73168,0.063771196,0.49124476,9.828057,-0.030533835,0.0021621883,0.013830909,-0.0499412976205349,-0.0064885965548455715,-1.794527530670166,1013.65796,
2021.02.13 18:48:02,34.0,24.0,49.753693,-14.923327,-40.71853,0.008211332,0.5157705,9.776489,-0.005153318,-0.0023508854,-6.610124E-4,-0.05270732566714287,-8.399058133363724E-4,-1.8216767311096191,1013.65796,
2021.02.13 18:48:02,34.0,24.0,49.857254,-13.64544,-41.31379,0.01165614,0.47155356,9.732187,-0.0013016905,-8.8076654E-4,0.004482396,-0.04841509461402893,-0.001197689096443355,-1.7998005151748657,1013.65796,
2021.02.13 18:48:02,34.0,24.0,50.00534,-13.144311,-41.04682,0.031286165,0.4811513,9.73521,-0.022064108,0.0153029235,-0.009269534,-0.04938338324427605,-0.0032137013040483,-1.7888659238815308,1013.6573,
2021.02.13 18:48:02,34.0,24.0,48.95125,-12.528497,-39.81366,0.046111736,0.45855507,9.793288,-0.0064653493,0.011994043,-0.017305344,-0.04678870737552643,-0.004708468914031982,-1.7844921350479126,1013.6572,
2021.02.13 18:48:02,34.0,24.0,49.532776,-13.671731,-39.9373,-0.015505609,0.41827115,9.696248,-0.0021869275,0.0064780703,-0.009464542,-0.04311063885688782,0.0015991335967555642,-1.8075242042541504,1013.6566,
2021.02.13 18:48:02,34.0,24.0,49.55316,-13.169515,-41.577118,0.00769705,0.44367385,9.819051,-0.015723536,0.002468813,-0.005887434,-0.045154280960559845,-7.838892051950097E-4,-1.7944955825805664,1013.65625,
2021.02.13 18:48:02,34.0,24.0,49.458176,-12.990224,-41.5801,0.007149801,0.42287397,9.730498,-0.0036067134,-0.006331065,-0.004505513,-0.04343127831816673,-7.347824866883457E-4,-1.7928661108016968,1013.65625,
2021.02.13 18:48:02,34.0,24.0,49.01924,-12.032414,-40.564346,-0.04650761,0.4159217,9.7823925,-0.006563968,0.0010626928,-0.008502189,-0.042491309344768524,0.004754180088639259,-1.778477668762207,1013.65625,
2021.02.13 18:48:02,34.0,24.0,50.53012,-13.4343,-42.11872,-0.06726042,0.454144,9.73355,-0.0011817454,0.0021980675,0.005448863,-0.046622663736343384,0.006910053547471762,-1.7947044372558594,1013.65625,
2021.02.13 18:48:02,34.0,24.0,50.660446,-13.261931,-41.28621,0.02957578,0.39125606,9.772759,-0.007935051,-0.0017583886,0.016563661,-0.04001381993293762,-0.003026339691132307,-1.7954671382904053,1013.65625,
2021.02.13 18:48:02,34.0,24.0,50.36499,-13.5442,-41.285614,-0.0033012268,0.42518055,9.791119,-0.008506871,0.0035898658,0.008838234,-0.04339785501360893,3.371654311195016E-4,-1.7998584508895874,1013.6566,
2021.02.13 18:48:02,34.0,24.0,50.812973,-13.410214,-40.44976,0.014569928,0.41912827,9.744854,-9.3522295E-4,-0.0011508433,0.008984697,-0.042983680963516235,-0.0014951396733522415,-1.7961565256118774,1013.657,
2021.02.13 18:48:02,34.0,24.0,50.76915,-14.227702,-40.697975,0.010188591,0.38836792,9.798748,-0.005430761,2.8158852E-4,0.0021952726,-0.03961368650197983,-0.0010397846344858408,-1.8139959573745728,1013.6572,
2021.02.13 18:48:02,34.0,24.0,49.87297,-12.796746,-40.706757,-0.011524044,0.4172826,9.762786,0.004158267,0.0042055296,3.8378558E-4,-0.0427161380648613,0.0011804047971963882,-1.7889307737350464,1013.6572,
2021.02.13 18:48:03,34.0,24.0,49.94539,-12.269332,-40.608124,0.01621115,0.3961586,9.748815,0.011703316,0.0051052575,0.0031271903,-0.040614187717437744,-0.0016628827434033155,-1.7799147367477417,1013.6573,
2021.02.13 18:48:03,34.0,24.0,50.193985,-12.827804,-41.015938,0.016078444,0.4009719,9.759465,0.0069430564,0.0024911542,-7.439867E-4,-0.041062287986278534,-0.0016474704025313258,-1.7888476848602295,1013.6576,
2021.02.13 18:48:03,34.0,24.0,51.20961,-12.676263,-40.75061,-0.019002235,0.4082717,9.747846,0.007617469,-0.0011351058,-0.0037551406,-0.0418587327003479,0.001949375495314598,-1.7818759679794312,1013.65845,
2021.02.13 18:48:03,34.0,24.0,50.26056,-13.664111,-40.660217,-0.007987917,0.4093163,9.755698,6.827037E-4,-0.003286237,0.003778031,-0.04193203151226044,8.187948842532933E-4,-1.804295301437378,1013.6588,
2021.02.13 18:48:03,34.0,24.0,49.480743,-13.734912,-40.633278,0.021727659,0.40593264,9.769015,7.87138E-4,-0.0041615516,0.005469025,-0.041529081761837006,-0.0022241363767534494,-1.8090790510177612,1013.6593,
2021.02.13 18:48:03,34.0,24.0,49.997482,-13.590594,-39.912056,0.022826666,0.37395978,9.764802,-0.0028289808,9.375516E-4,2.6457955E-4,-0.038277897983789444,-0.00233764317817986,-1.8070204257965088,1013.65936,
2021.02.13 18:48:03,34.0,24.0,50.59018,-13.290704,-40.979767,-0.042318646,0.41688666,9.7928915,3.1656725E-4,-0.002645867,-0.0019528033,-0.042544249445199966,0.00432133674621582,-1.7955750226974487,1013.6594,
2021.02.13 18:48:03,34.0,24.0,50.934814,-12.724528,-41.47071,0.041399345,0.36044002,9.724896,0.0045899455,-0.004853893,0.007855459,-0.037046343088150024,-0.004257021937519312,-1.786291241645813,1013.65967,
2021.02.13 18:48:03,34.0,24.0,49.32849,-14.531781,-41.519463,0.036489476,0.36281076,9.782926,-0.008908183,0.006893512,-0.006558153,-0.03706887364387512,-0.0037298970855772495,-1.8275161981582642,1013.6598,
2021.02.13 18:48:03,34.0,24.0,50.729324,-13.280673,-41.523605,-0.029900402,0.40864053,9.770057,-0.0029143058,0.0017485047,-0.005430652,-0.04180125147104263,0.003060402814298868,-1.7947783470153809,1013.65985,
2021.02.13 18:48:03,34.0,24.0,50.010025,-14.253627,-40.58142,-0.0048875674,0.3446975,9.805783,-0.0012861714,0.0042343466,-0.0014847087,-0.03513799607753754,4.9843720626086E-4,-1.82180655002594,1013.66,
2021.02.13 18:48:03,34.0,24.0,50.356064,-12.953357,-39.949028,-0.042552616,0.38212323,9.7287245,0.005346781,1.7452543E-4,7.051821E-4,-0.03925728425383568,0.004373887553811073,-1.7935550212860107,1013.66,
2021.02.13 18:48:03,34.0,24.0,48.93965,-13.3620405,-40.351982,0.025048895,0.3764528,9.737171,-0.002221737,-0.0033340976,0.00954062,-0.0386420413851738,-0.0025724966544657946,-1.8068742752075195,1013.6609,
2021.02.13 18:48:03,34.0,24.0,50.376633,-13.100465,-40.60022,0.036165945,0.3903812,9.811063,1.4492357E-4,0.0049241744,0.0033443961,-0.03976865112781525,-0.003686224576085806,-1.7942755222320557,1013.6613,
2021.02.13 18:48:04,34.0,24.0,48.759888,-12.9039545,-40.715775,-0.009004828,0.41467974,9.767262,-0.0026189857,0.0022076014,-0.001578152,-0.042430583387613297,9.219394996762276E-4,-1.7960306406021118,1013.66174,
2021.02.13 18:48:04,34.0,24.0,49.96176,-13.409415,-40.10607,0.0398872,0.36579266,9.789969,-0.0014456226,-0.0041347817,0.008853852,-0.03734634444117546,-0.004074270371347666,-1.8040815591812134,1013.66266,
2021.02.13 18:48:04,34.0,24.0,49.152466,-12.816943,-40.64762,-0.008371485,0.3840344,9.742302,0.005105705,-0.0035460778,-0.002137348,-0.039398856461048126,8.592921076342463E-4,-1.7950705289840698,1013.66266,
2021.02.13 18:48:04,34.0,24.0,50.015182,-12.267291,-40.530403,0.019326173,0.39475906,9.763543,-0.003551904,-0.007300896,0.0091140475,-0.04040985554456711,-0.001979419495910406,-1.7797738313674927,1013.66266,
2021.02.13 18:48:04,34.0,24.0,50.55275,-13.280164,-40.30017,0.040232405,0.3780209,9.754008,-6.0304767E-4,-0.0038020238,0.005687662,-0.038735728710889816,-0.00412468146532774,-1.7978450059890747,1013.66266,
2021.02.13 18:48:04,34.0,24.0,49.743576,-12.9389715,-41.243797,0.026915202,0.40003482,9.741362,-0.009500746,-0.0037378278,0.006174563,-0.04104238003492355,-0.0027629744727164507,-1.792560338973999,1013.66266,
2021.02.13 18:48:04,34.0,24.0,49.311478,-13.100539,-39.283188,0.024228951,0.40519324,9.80193,-0.005709664,-0.0021837503,0.0037403796,-0.04131445661187172,-0.0024718500208109617,-1.7989388704299927,1013.6626,
2021.02.13 18:48:04,34.0,24.0,49.63855,-13.838004,-40.64724,0.05962099,0.35941052,9.778508,0.0011188996,3.789583E-4,0.0064816233,-0.03673792630434036,-0.006097070407122374,-1.8134244680404663,1013.6626,
2021.02.13 18:48:04,34.0,24.0,49.75296,-12.352735,-40.219368,-0.0179031,0.39059997,9.765244,0.0071308683,0.0037426935,-0.008304339,-0.03997762128710747,0.0018333470216020942,-1.7835489511489868,1013.6626,
2021.02.13 18:48:04,34.0,24.0,49.43425,-12.567054,-40.11564,0.038768116,0.35961476,9.796317,0.0032677408,0.007018555,0.0036513945,-0.03669241815805435,-0.00395739683881402,-1.7908790111541748,1013.6626,
2021.02.13 18:48:04,34.0,24.0,49.61281,-11.999227,-40.40615,0.004352533,0.3526857,9.724869,0.014518063,0.0071842163,-0.0046933633,-0.03625047951936722,-4.475672321859747E-4,-1.7798185348510742,1013.66266,
2021.02.13 18:48:04,34.0,24.0,50.420837,-13.902293,-41.108315,-0.05305517,0.35819295,9.764797,0.0017942481,0.0037179617,0.013871857,-0.03666508570313454,0.005433256737887859,-1.8125256299972534,1013.6629,
2021.02.13 18:48:04,34.0,24.0,48.930954,-12.577294,-41.02755,0.03124377,0.34792805,9.76229,0.0027322355,7.692076E-4,0.010235672,-0.03562474250793457,-0.003200444160029292,-1.7935587167739868,1013.6631,
2021.02.13 18:48:04,34.0,24.0,50.435333,-12.409535,-41.33983,0.03626818,0.33310127,9.75546,0.021894349,0.02091645,-0.003373132,-0.03413161635398865,-0.003717714222148061,-1.7848656177520752,1013.66315,
2021.02.13 18:48:05,34.0,24.0,49.16278,-13.3099375,-41.784393,0.015337932,0.39082456,9.837424,0.02729405,-0.008650506,0.0036103795,-0.03970741108059883,-0.00155913969501853,-1.803056001663208,1013.66345,
2021.02.13 18:48:05,34.0,24.0,50.61554,-14.263749,-40.55893,0.10154178,0.37446955,9.819709,-0.0046627177,-0.006507849,0.021528494,-0.03811398148536682,-0.010340241715312004,-1.8152192831039429,1013.66345,
2021.02.13 18:48:05,34.0,24.0,50.388016,-13.645246,-40.93907,-0.009462099,0.41353723,9.824307,0.031748593,-0.020548526,-0.014636921,-0.042068418115377426,9.631310822442174E-4,-1.8030662536621094,1013.6641,
2021.02.13 18:48:05,34.0,24.0,50.183914,-14.4674635,-40.895615,0.021681407,0.43878353,9.696041,0.047356006,-0.020159103,-0.0063034794,-0.04522291198372841,-0.0022361057344824076,-1.8165265321731567,1013.66437,
2021.02.13 18:48:05,34.0,24.0,49.641464,-12.6885,-40.865997,-0.022242783,0.5228254,9.754727,0.016883943,-0.031438533,0.020268418,-0.0535457581281662,0.002280201530084014,-1.7791798114776611,1013.66437,
2021.02.13 18:48:05,34.0,24.0,50.87079,-13.18011,-41.73542,0.20957953,0.41762295,9.921072,0.02774377,-0.04946427,0.0442918,-0.042060330510139465,-0.021121542900800705,-1.7887498140335083,1013.6644,
2021.02.13 18:48:05,34.0,24.0,49.86882,-13.5059805,-41.921326,0.39615336,0.5126887,9.394031,-0.04944563,0.06594613,-0.050114434,-0.054473601281642914,-0.04214578494429588,-1.786790370941162,1013.66455,
