Time,X-cord,Y-cord,Mag_x,Mag_y,Mag_z,Acc_x,Acc_y,Acc_z,Gyro_x,Gyro_y,Gyro_z,Orn_x,Orn_y,Orn_z,Pressure,
2021.02.13 19:01:36,79.0,16.0,2.4883728,16.459904,-45.851074,0.057907086,0.33897492,9.591805,0.21299978,-0.023081731,-0.10118822,-0.03532470762729645,-0.006037068087607622,-0.15185858309268951,1013.7599,
2021.02.13 19:01:36,79.0,16.0,3.3989105,16.293818,-46.215874,-0.3516419,0.48133293,9.833285,0.14182986,0.041311573,-0.07170632,-0.048879120498895645,0.035745132714509964,-0.09386501461267471,1013.76025,
2021.02.13 19:01:36,79.0,16.0,2.817833,14.608966,-46.107674,-0.07707912,0.6252702,9.369164,0.15396456,-0.065984786,0.041440394,-0.06663596630096436,0.008226708509027958,-0.1372997760772705,1013.76025,
2021.02.13 19:01:36,79.0,16.0,2.76902,16.18418,-47.663864,0.22478195,0.67166406,9.866828,-0.004681405,-6.5249647E-4,0.05689901,-0.06795051693916321,-0.02277764119207859,-0.19631750881671906,1013.76025,
2021.02.13 19:01:36,79.0,16.0,2.8113632,14.830259,-47.277496,0.2099344,0.6659424,9.828941,0.01875749,0.010393351,0.010382006,-0.06763444095849991,-0.021355554461479187,-0.20928461849689484,1013.76025,
2021.02.13 19:01:36,79.0,16.0,3.3130722,15.56764,-46.674225,0.19453424,0.48055616,9.627754,0.018345375,-0.0039288616,-0.02228631,-0.049862079322338104,-0.020202817395329475,-0.233760803937912,1013.76025,
2021.02.13 19:01:36,79.0,16.0,2.7786636,16.4371,-47.43425,-0.14379378,0.6781923,9.796111,-0.0028929426,0.0020620958,-0.06340919,-0.06911305338144302,0.014677604660391808,-0.10543017089366913,1013.7607,
2021.02.13 19:01:36,79.0,16.0,2.6599808,15.804044,-46.59198,-0.14323558,0.9090206,9.831794,-0.025806498,0.0046636267,-0.009399325,-0.09218540787696838,0.014567580074071884,-0.0985851138830185,1013.7607,
2021.02.13 19:01:36,79.0,16.0,2.0311356,14.593475,-47.78936,0.16510333,0.67282516,9.86123,0.016181953,0.0063724136,0.056552965,-0.06811424344778061,-0.016741106286644936,-0.15763363242149353,1013.7607,
2021.02.13 19:01:37,79.0,16.0,3.2198105,15.775413,-46.631454,0.24196403,0.5057326,9.659443,0.021277025,0.017903563,-0.058269307,-0.05229215323925018,-0.025044243782758713,-0.23667995631694794,1013.7607,
2021.02.13 19:01:37,79.0,16.0,3.2138977,15.5593405,-46.347954,0.00475583,0.70174193,9.627494,-0.003592371,0.024745073,-0.046713416,-0.0727606862783432,-4.93984145577997E-4,-0.1697244644165039,1013.7607,
2021.02.13 19:01:37,79.0,16.0,2.9404297,16.44297,-46.91987,-0.23610675,0.8411794,9.809205,0.017955365,0.011953496,0.025655493,-0.08552014827728271,0.024065271019935608,-0.0885399803519249,1013.7607,
2021.02.13 19:01:37,79.0,16.0,2.362732,15.1800375,-47.840935,-0.006273735,0.68764955,9.739952,0.0049186675,0.0032952917,0.02309874,-0.07048395276069641,6.441237055696547E-4,-0.12530992925167084,1013.7607,
2021.02.13 19:01:37,79.0,16.0,3.671379,16.996147,-47.527443,0.07847547,0.68893266,9.782428,-0.018511418,-2.530244E-4,0.022695597,-0.0703071877360344,-0.008021912537515163,-0.19712862372398376,1013.7607,
2021.02.13 19:01:37,79.0,16.0,3.458397,14.393876,-47.404053,0.0133808395,0.7293529,9.700862,0.01358409,8.5593876E-4,0.0018488457,-0.07504308223724365,-0.0013793444959446788,-0.19429954886436462,1013.76215,
2021.02.13 19:01:37,79.0,16.0,2.96669,14.560855,-46.481552,0.0844917,0.6861544,9.668359,-0.005339284,-0.0071656574,0.020838507,-0.07084758579730988,-0.00873876828700304,-0.18713043630123138,1013.76215,
2021.02.13 19:01:37,79.0,16.0,2.2242508,15.537754,-47.938057,0.10653109,0.7299552,9.819222,0.0036829324,-0.008281587,9.269912E-4,-0.07419856637716293,-0.010848813690245152,-0.14309193193912506,1013.76215,
2021.02.13 19:01:37,79.0,16.0,2.667694,15.139789,-47.980965,0.06575347,0.70165855,9.74075,-0.002432935,-0.012386497,0.0028941403,-0.07190747559070587,-0.00675024650990963,-0.1599205881357193,1013.76215,
2021.02.13 19:01:37,79.0,16.0,3.8941727,15.199555,-47.96775,0.082558654,0.68706506,9.754573,0.013517167,-0.0117490925,-0.008372891,-0.07031653076410294,-0.008463382720947266,-0.2280237227678299,1013.76215,
2021.02.13 19:01:37,79.0,16.0,3.1672287,14.850666,-47.692528,0.06405846,0.706137,9.740341,-0.022957392,0.0036498469,-0.021969639,-0.07236796617507935,-0.00657651899382472,-0.18837885558605194,1013.76215,
2021.02.13 19:01:37,79.0,16.0,3.3983002,15.37614,-47.695526,0.004853278,0.6948083,9.80759,-0.023914872,-0.011055576,-0.009978944,-0.07072576880455017,-4.94849169626832E-4,-0.1809106022119522,1013.76215,
2021.02.13 19:01:37,79.0,16.0,3.5486603,14.030006,-47.074257,0.0641787,0.62098193,9.754472,-0.008927641,-0.00616833,0.005067853,-0.06357409805059433,-0.006579318083822727,-0.22329477965831757,1013.76215,
2021.02.13 19:01:38,79.0,16.0,3.8626175,15.392803,-47.22666,0.08592475,0.66891694,9.79041,-0.0056032506,-0.0039373487,0.0054028938,-0.06821504980325699,-0.008776194415986538,-0.22632384300231934,1013.76373,
2021.02.13 19:01:38,79.0,16.0,3.9088058,16.4325,-47.236877,0.10185736,0.6128486,9.81187,0.0084034,0.007201492,0.0068762256,-0.06237552687525749,-0.010380661115050316,-0.22362127900123596,1013.76373,
2021.02.13 19:01:38,79.0,16.0,2.8693542,15.860205,-46.403336,0.083265774,0.61906147,9.681113,0.018619424,-0.005028407,0.0011638685,-0.06385597586631775,-0.008600634522736073,-0.17224159836769104,1013.76373,
2021.02.13 19:01:38,79.0,16.0,3.7751312,14.450017,-47.21409,0.04587503,0.62305063,9.76101,0.0077802045,0.005192888,0.0013576774,-0.06374337524175644,-0.004699789918959141,-0.2254558652639389,1013.76373,
2021.02.13 19:01:38,79.0,16.0,3.734787,14.9805,-47.916763,0.07061429,0.62940544,9.863324,0.05558732,0.010514957,0.01606502,-0.06372467428445816,-0.0071591567248106,-0.2227836549282074,1013.76373,
2021.02.13 19:01:38,79.0,16.0,3.5651474,15.593425,-47.37156,0.029453404,0.67854404,9.568744,0.064020224,0.0012123595,0.006875174,-0.07079371809959412,-0.003078075125813484,-0.1938360184431076,1013.76373,
2021.02.13 19:01:38,79.0,16.0,2.9279175,14.925707,-46.53138,0.112969734,0.7012672,9.793235,0.011051822,0.01065719,0.0098391585,-0.07148054987192154,-0.011534974910318851,-0.18802101910114288,1013.76373,
2021.02.13 19:01:38,79.0,16.0,4.260193,16.235188,-46.811615,0.00714685,0.7365853,9.685609,0.0153239,-0.012038942,-0.009291115,-0.07590332627296448,-7.37883266992867E-4,-0.21424813568592072,1013.76373,
2021.02.13 19:01:38,79.0,16.0,3.645424,15.342764,-48.018387,-0.03401515,0.7962601,9.700999,-0.0044410056,-0.004335479,0.00189756,-0.08189612627029419,0.0035063407849520445,-0.1789669245481491,1013.76373,
2021.02.13 19:01:38,79.0,16.0,2.9775162,14.935041,-46.948494,0.1633445,0.67056483,10.092278,-0.0125431325,0.01524776,0.0118761845,-0.06633717566728592,-0.01618368551135063,-0.2045787274837494,1013.76373,
2021.02.13 19:01:38,79.0,16.0,3.4194412,14.429468,-46.704216,-0.0525222,0.8231266,9.270718,-0.06113681,0.0018474048,0.013710343,-0.08855417370796204,0.005665326025336981,-0.168859601020813,1013.76373,
2021.02.13 19:01:38,79.0,16.0,2.5215378,15.234753,-47.56212,0.0083162,0.75018686,10.0333605,0.012479797,-0.006949518,0.0059859687,-0.07463036477565765,-8.288546814583242E-4,-0.13582700490951538,1013.76373,
2021.02.13 19:01:38,79.0,16.0,2.2606049,16.313969,-47.67089,0.08588279,0.69366556,9.74455,-0.006700694,-0.0068925386,-0.0010287402,-0.0710623487830162,-0.008813190273940563,-0.13554169237613678,1013.76373,
2021.02.13 19:01:39,79.0,16.0,3.8863754,14.82685,-47.40744,0.070054546,0.75999284,9.760661,-0.0050563416,-1.075294E-4,-0.0068971096,-0.0777040645480156,-0.00717711029574275,-0.22507746517658234,1013.76373,
2021.02.13 19:01:39,79.0,16.0,4.086937,14.512804,-46.74716,0.018839044,0.7603304,9.722557,2.2342685E-4,0.0022270738,-0.011042367,-0.07804372906684875,-0.0019376612035557628,-0.22667686641216278,1013.76373,
2021.02.13 19:01:39,79.0,16.0,3.0984955,14.324559,-47.49881,0.07089062,0.7005064,9.641953,-0.010365499,0.005972958,6.9011864E-4,-0.07252253592014313,-0.007352176122367382,-0.19208800792694092,1013.76215,
2021.02.13 19:01:39,79.0,16.0,2.0691757,15.367149,-47.289886,0.0765315,0.7199512,9.805969,-0.033595957,0.0074629756,-0.0028672328,-0.07328596711158752,-0.007804424501955509,-0.12905745208263397,1013.7607,
2021.02.13 19:01:39,79.0,16.0,4.0883102,16.41594,-49.328133,0.02729755,0.7066517,9.686303,-0.020722141,-0.010030906,-0.0010075924,-0.0728243961930275,-0.0028181523084640503,-0.20869797468185425,1013.76,
2021.02.13 19:01:39,79.0,16.0,1.6972809,16.123255,-46.696487,0.0538815,0.70726043,9.776912,-0.0093787,0.0077165095,-7.2967727E-4,-0.07221297919750214,-0.005511040333658457,-0.10015901178121567,1013.76,
2021.02.13 19:01:39,79.0,16.0,2.0244675,16.660433,-47.16178,0.007033974,0.65689725,9.735364,-0.017935473,0.0064096097,-0.007912741,-0.06737322360277176,-7.225176668725908E-4,-0.10360720008611679,1013.76,
2021.02.13 19:01:39,79.0,16.0,2.3739777,15.056972,-46.119644,-0.015468828,0.7210943,9.770572,-0.016232362,0.005715899,0.005549752,-0.07366901636123657,0.0015832047211006284,-0.12433323264122009,1013.7605,
2021.02.13 19:01:39,79.0,16.0,3.321869,16.002495,-47.98494,0.123844296,0.6156822,9.749428,-0.012526078,0.0063217273,0.018391583,-0.06306177377700806,-0.012702041305601597,-0.20410658419132233,1013.7603,
2021.02.13 19:01:39,79.0,16.0,2.4176788,16.26144,-46.971123,0.023359537,0.6505652,9.815503,-0.01259727,0.017175198,6.2496145E-4,-0.06618236750364304,-0.0023798570036888123,-0.1301049441099167,1013.7603,
2021.02.13 19:01:39,79.0,16.0,4.845772,15.31257,-45.53988,0.058216553,0.61592704,9.738315,-0.008458735,0.0010502028,0.011288371,-0.06316255033016205,-0.0059780217707157135,-0.27477604150772095,1013.7603,
2021.02.13 19:01:39,79.0,16.0,3.4505844,15.430408,-47.835083,0.09085766,0.5848455,9.7422,-0.0125278495,-0.0045963526,-0.0015382168,-0.05995761603116989,-0.009325925260782242,-0.21016044914722443,1013.75995,
2021.02.13 19:01:39,79.0,16.0,3.6407623,15.890804,-46.11608,0.048513543,0.6258692,9.79914,0.007115602,0.0020155283,-0.010068692,-0.06378239393234253,-0.00495075574144721,-0.20300006866455078,1013.7598,
2021.02.13 19:01:40,79.0,16.0,3.0396347,15.24716,-46.765182,0.08072511,0.56494224,9.738914,-0.00909817,-0.004100524,-0.014459873,-0.05794183537364006,-0.008288733661174774,-0.18888138234615326,1013.7598,
2021.02.13 19:01:40,79.0,16.0,2.8355942,15.244286,-47.23288,0.015095953,0.60172534,9.742694,4.893844E-4,-4.3353473E-4,-0.012061685,-0.061683278530836105,-0.0015494627878069878,-0.1591131091117859,1013.75946,
2021.02.13 19:01:40,79.0,16.0,3.6417236,16.211826,-47.098152,0.063688956,0.5633711,9.717799,-0.005865703,0.002584488,-0.012329126,-0.05790705978870392,-0.00655375188216567,-0.20594966411590576,1013.75946,
2021.02.13 19:01:40,79.0,16.0,3.4204788,15.955004,-47.796547,-0.011601805,0.6199294,9.8406105,-0.01200326,0.0023020422,-0.019394547,-0.06291385740041733,0.001178971491754055,-0.17588895559310913,1013.75946,
2021.02.13 19:01:40,79.0,16.0,2.8097305,15.810618,-47.055176,4.3041012E-4,0.59800005,9.664021,-0.009243971,0.0012986553,-0.0064362357,-0.061800215393304825,-4.453737710718997E-5,-0.14935240149497986,1013.75946,
2021.02.13 19:01:40,79.0,16.0,1.075264,15.886074,-46.650223,-0.0026844342,0.5658116,9.78458,-0.016167305,-6.4525416E-4,-0.010218554,-0.05776253342628479,2.743535442277789E-4,-0.05720483511686325,1013.75946,
2021.02.13 19:01:40,79.0,16.0,1.8944626,16.029243,-46.832634,0.005246759,0.5888184,9.791283,-9.960337E-4,0.0043647764,-0.0049595656,-0.0600646547973156,-5.358601920306683E-4,-0.10168939083814621,1013.75946,
2021.02.13 19:01:40,79.0,16.0,2.4936142,14.448563,-46.94728,0.035263784,0.54181916,9.69484,0.009068369,2.2100279E-4,4.1692215E-4,-0.055828921496868134,-0.0036373601760715246,-0.15505698323249817,1013.75946,
2021.02.13 19:01:40,79.0,16.0,2.5304184,15.22298,-46.631798,0.047929555,0.5516275,9.818843,-0.013187889,0.0011781853,0.002851632,-0.05612083896994591,-0.004881346598267555,-0.15360383689403534,1013.75946,
2021.02.13 19:01:40,79.0,16.0,2.3499832,15.731031,-46.45027,0.0148915155,0.57643193,9.722812,0.009509604,-0.0056128455,-0.0025005667,-0.05921716243028641,-0.001531604677438736,-0.13046467304229736,1013.75946,
2021.02.13 19:01:40,79.0,16.0,2.4961166,18.02707,-46.849632,0.048933793,0.5711172,9.796443,0.0033535168,0.0016924341,0.002844188,-0.05823178589344025,-0.004995015449821949,-0.13099220395088196,1013.75946,
2021.02.13 19:01:40,79.0,16.0,2.3247833,15.325343,-46.95823,0.061045337,0.5402815,9.734908,0.008485078,-0.0045348955,-0.0017863046,-0.05544142797589302,-0.00627068430185318,-0.14526841044425964,1013.75946,
2021.02.13 19:01:40,79.0,16.0,2.9174347,14.720375,-46.762367,-0.03040634,0.5823055,9.734971,0.0068746377,0.0036172953,-0.01077713,-0.05974436551332474,0.0031234032940119505,-0.1571761965751648,1013.75946,
2021.02.13 19:01:40,79.0,16.0,2.557579,16.011967,-47.383415,0.02472992,0.58180696,9.747083,-0.0035038008,4.523945E-4,0.0066141654,-0.05961943790316582,-0.002537155756726861,-0.14143624901771545,1013.75946,
2021.02.13 19:01:41,79.0,16.0,2.8842926,15.18298,-46.673767,0.04936555,0.55363065,9.682458,7.4054906E-4,0.004604726,2.0022411E-4,-0.05711580067873001,-0.005098408088088036,-0.17343169450759888,1013.7596,
2021.02.13 19:01:41,79.0,16.0,3.3099213,15.634524,-47.417824,-0.057430774,0.63550377,9.77747,-0.016714789,0.002155073,-4.9297698E-5,-0.0649043396115303,0.005873719230294228,-0.1608898788690567,1013.7598,
2021.02.13 19:01:41,79.0,16.0,3.737358,14.977591,-47.642082,0.031748805,0.58665615,9.788139,-0.005297844,-0.004701295,0.027287971,-0.059863485395908356,-0.0032435881439596415,-0.21525292098522186,1013.7598,
2021.02.13 19:01:41,79.0,16.0,2.1778717,15.142193,-45.652626,0.14409816,0.5455791,9.772151,1.515618E-4,0.0025631343,0.014812653,-0.055766042321920395,-0.014744729734957218,-0.1600331962108612,1013.7603,
2021.02.13 19:01:41,79.0,16.0,1.6806793,15.871565,-47.527946,-0.0072926288,0.6006918,9.814112,0.0063416143,8.7006536E-4,-0.007716115,-0.06113066151738167,7.430756231769919E-4,-0.0875488743185997,1013.7603,
2021.02.13 19:01:41,79.0,16.0,4.2281647,15.451676,-46.387062,0.009118947,0.60663027,9.725942,0.015646817,3.3039748E-4,-1.7118827E-4,-0.06229167431592941,-9.375898516736925E-4,-0.22920741140842438,1013.7606,
2021.02.13 19:01:41,79.0,16.0,3.257927,15.514819,-46.721245,0.09078608,0.5372302,9.771491,0.009038063,4.3109796E-4,0.007163939,-0.05492168292403221,-0.009290646761655807,-0.20170442759990692,1013.7607,
2021.02.13 19:01:41,79.0,16.0,3.7992706,16.05341,-46.255424,0.024680102,0.58258206,9.665707,0.0070203594,-3.5758375E-4,-0.017183358,-0.06020007282495499,-0.0025533619336783886,-0.205360546708107,1013.76074,
2021.02.13 19:01:41,79.0,16.0,3.172577,16.207104,-48.217575,-0.00497092,0.62769485,9.847112,-0.00874521,-4.407029E-4,-0.0091989115,-0.06365791708230972,5.048098973929882E-4,-0.16217800974845886,1013.7608,
2021.02.13 19:01:41,79.0,16.0,3.9208908,15.60705,-47.36641,0.054359633,0.5497839,9.659652,0.010835006,-0.0028851032,6.2859617E-6,-0.056853264570236206,-0.0056274342350661755,-0.22527886927127838,1013.76086,
2021.02.13 19:01:41,79.0,16.0,3.6299438,16.012363,-47.841415,0.028700946,0.58369035,9.80527,-0.010150811,0.0049259355,-0.0135086235,-0.05945780500769615,-0.002927085617557168,-0.19763584434986115,1013.76086,
2021.02.13 19:01:41,79.0,16.0,3.3129807,15.571218,-46.675407,-0.004949229,0.54134417,9.697041,7.8764395E-4,-0.0056082224,-0.005700484,-0.05576781556010246,5.103854928165674E-4,-0.1792873740196228,1013.7609,
2021.02.13 19:01:41,79.0,16.0,3.0909348,16.34187,-46.96634,0.0027533257,0.56078047,9.774416,-0.019217884,0.002663969,-0.005253384,-0.05730944871902466,-2.816869819071144E-4,-0.16190333664417267,1013.7609,
2021.02.13 19:01:41,79.0,16.0,2.250122,15.779395,-46.219627,0.024368407,0.5370475,9.714292,-0.0094354,0.0058767153,0.0036959709,-0.05522787198424339,-0.0025085057131946087,-0.1285354495048523,1013.76117,
2021.02.13 19:01:41,79.0,16.0,3.9185486,15.112452,-45.40558,0.012619335,0.53484154,9.817807,-0.023228688,0.013064764,8.110928E-4,-0.05442284047603607,-0.0012853509979322553,-0.2227221429347992,1013.7614,
2021.02.13 19:01:42,79.0,16.0,2.4788437,16.249718,-45.989586,-0.012846775,0.5599449,9.787044,0.0054251486,0.0016709438,0.009080542,-0.05715052783489227,0.0013126301346346736,-0.12760208547115326,1013.76154,
2021.02.13 19:01:42,79.0,16.0,1.0139694,15.789702,-47.53575,0.024346268,0.54495883,9.804301,0.0046931906,0.0058811978,0.004900874,-0.05552634224295616,-0.002483217976987362,-0.06143355369567871,1013.76184,
2021.02.13 19:01:42,79.0,16.0,3.4140778,15.579263,-46.953148,0.02806474,0.51512164,9.721789,0.014646549,0.0037599592,7.5086183E-4,-0.05293657258152962,-0.0028867796063423157,-0.19426774978637695,1013.76215,
2021.02.13 19:01:42,79.0,16.0,2.3630524,15.015399,-47.23401,-0.02230545,0.58784705,9.776671,0.0039748936,0.003239763,-0.002414759,-0.060055069625377655,0.0022814935073256493,-0.12586474418640137,1013.76276,
2021.02.13 19:01:42,79.0,16.0,2.9877625,15.247108,-46.95337,-0.004538601,0.52142984,9.726705,0.011762148,0.0016253935,0.0026479498,-0.05355679616332054,4.666123422794044E-4,-0.16566355526447296,1013.76276,
2021.02.13 19:01:42,79.0,16.0,3.5869064,14.747342,-46.522324,-0.045457553,0.54322916,9.767971,0.0016116855,0.0071336525,0.0049636536,-0.055555474013090134,0.004653702024370432,-0.19231416285037994,1013.76276,
2021.02.13 19:01:42,79.0,16.0,3.8009796,16.048515,-45.977905,0.00785007,0.5254789,9.742179,-0.0023422465,-3.1953806E-4,0.008746599,-0.053886301815509796,-8.057815139181912E-4,-0.20454366505146027,1013.763,
2021.02.13 19:01:42,79.0,16.0,2.893097,15.291479,-46.487465,-0.0011940688,0.5740939,9.686181,-0.012538573,0.0017550413,0.011321971,-0.059200115501880646,1.2327550211921334E-4,-0.15892256796360016,1013.763,
2021.02.13 19:01:42,79.0,16.0,3.9999542,14.922805,-46.659805,0.02704621,0.5930489,9.820799,0.005649831,0.0029296072,0.009367802,-0.06031355634331703,-0.002753965323790908,-0.22905448079109192,1013.763,
2021.02.13 19:01:42,79.0,16.0,2.0907135,15.837969,-47.525856,0.032337163,0.56215733,9.784914,0.0046117394,-3.890267E-4,-0.0040734196,-0.05738803371787071,-0.003304785815998912,-0.12066656351089478,1013.763,
2021.02.13 19:01:42,79.0,16.0,2.8995361,15.388753,-46.39572,0.015487932,0.55845714,9.739329,0.0016671686,-0.002322474,-0.0018693134,-0.0572776198387146,-0.0015902448212727904,-0.16353416442871094,1013.763,
2021.02.13 19:01:42,79.0,16.0,3.2364426,16.245998,-46.86779,-0.03460091,0.5838965,9.721565,-0.011226969,0.0010961986,0.0090211155,-0.05998954549431801,0.003559176344424486,-0.15994824469089508,1013.763,
2021.02.13 19:01:42,79.0,16.0,3.0264587,16.024721,-46.68226,-0.0035553428,0.54411405,9.790568,0.004006858,-0.0013023845,0.0026731226,-0.05551821365952492,3.6313955206424E-4,-0.16049200296401978,1013.763,
2021.02.13 19:01:43,79.0,16.0,2.7087784,15.746661,-46.30768,0.043802053,0.537623,9.744345,-3.9423467E-4,3.5694372E-4,-0.004281598,-0.05511638522148132,-0.004495094995945692,-0.15829326212406158,1013.763,
2021.02.13 19:01:43,79.0,16.0,2.668274,17.091263,-46.232346,-0.05705881,0.5587656,9.774677,9.517702E-4,0.0013604511,0.00573905,-0.05710148438811302,0.005837345030158758,-0.12113101780414581,1013.7631,
2021.02.13 19:01:43,79.0,16.0,3.8781815,14.674599,-47.494858,0.030400887,0.5437818,9.7468405,0.0067710294,0.0056079915,-0.003029734,-0.05573252961039543,-0.0031190402805805206,-0.22870486974716187,1013.76337,
2021.02.13 19:01:43,79.0,16.0,3.173149,15.927751,-46.866577,-0.041699152,0.53188914,9.771531,-0.0017032321,-3.1610648E-4,0.009379761,-0.05437836796045303,0.0042673866264522076,-0.1597527265548706,1013.7634,
2021.02.13 19:01:43,79.0,16.0,2.4763184,16.423658,-47.155968,-0.03663251,0.5586984,9.760245,0.003401483,-0.0015897255,0.014643648,-0.05717944726347923,0.0037532192654907703,-0.11985484510660172,1013.7635,
2021.02.13 19:01:43,79.0,16.0,4.758667,17.361504,-47.799675,-0.015917825,0.4912589,9.668663,0.002106064,-0.013386007,0.013667702,-0.05076567083597183,0.001646330114454031,-0.23249779641628265,1013.7638,
2021.02.13 19:01:43,79.0,16.0,3.1601028,15.561228,-46.582733,0.022101313,0.48820546,9.575458,-0.13923416,-0.037528697,0.0020758505,-0.05094083398580551,-0.0023081167601048946,-0.18043577671051025,1013.7643,
2021.02.13 19:01:43,79.0,16.0,3.8995667,16.113623,-46.58053,-0.0067691565,0.46024597,9.637714,-0.14742911,-0.10189123,0.024936873,-0.04771841689944267,7.023611105978489E-4,-0.20804883539676666,1013.7643,
2021.02.13 19:01:43,79.0,16.0,3.383606,17.07168,-46.035164,0.09225395,0.38610038,9.783768,0.114343375,-0.05820967,0.017511122,-0.039441145956516266,-0.009429007768630981,-0.19958852231502533,1013.7646,
2021.02.13 19:01:43,79.0,16.0,3.0500107,16.546524,-46.689247,0.24600923,0.45032963,9.281437,0.08718136,-0.037698377,0.0155606335,-0.048464369028806686,-0.0264993067830801,-0.22433076798915863,1013.7646,
2021.02.13 19:01:43,79.0,16.0,4.273773,16.549099,-46.815445,0.15330029,0.5171825,9.985149,-0.0523296,0.13603882,-0.009213558,-0.05174284055829048,-0.015351621434092522,-0.2576458156108856,1013.76465,
2021.02.13 19:01:43,79.0,16.0,3.8897018,15.689506,-46.01655,0.12262526,0.5200909,10.286996,0.06262409,-0.013376201,0.0031257109,-0.050511498004198074,-0.01191985048353672,-0.24185465276241302,1013.76483,
