Time,X-cord,Y-cord,Mag_x,Mag_y,Mag_z,Acc_x,Acc_y,Acc_z,Gyro_x,Gyro_y,Gyro_z,Orn_x,Orn_y,Orn_z,Pressure,
2021.02.13 18:42:11,3.0,24.0,47.71051,-11.183028,-38.09057,0.07709214,0.98106474,9.9421625,-0.016659275,-0.03329436,0.008732846,-0.09835583716630936,-0.0077539063058793545,-1.7242541313171387,1013.5942,
2021.02.13 18:42:11,3.0,24.0,47.745407,-11.237657,-37.77912,-0.19080485,1.0929822,9.363145,0.055912457,0.0018284405,-0.048382573,-0.11618255823850632,0.020375467836856842,-1.7118844985961914,1013.594,
2021.02.13 18:42:11,3.0,24.0,48.32071,-10.663585,-37.360703,-0.0019306218,0.9183801,9.805654,-0.06871724,0.0026293239,4.7080917E-5,-0.09338580816984177,1.968886354006827E-4,-1.7173644304275513,1013.594,
2021.02.13 18:42:11,3.0,24.0,46.964203,-11.746076,-38.60347,-0.040237762,1.0215808,9.76245,-0.02916468,-0.054587733,-0.019966768,-0.104263536632061,0.004121663514524698,-1.7326951026916504,1013.5939,
2021.02.13 18:42:11,3.0,24.0,48.61296,-11.500133,-38.63806,-0.08501988,0.8958544,9.969029,0.025785334,0.047764976,-0.02458392,-0.08961978554725647,0.008528194390237331,-1.7341701984405518,1013.5938,
2021.02.13 18:42:11,3.0,24.0,48.572525,-10.553964,-38.260826,-0.14894785,0.98755044,9.355053,0.069468796,-0.016534813,-0.004603876,-0.10516056418418884,0.015920301899313927,-1.7034417390823364,1013.5938,
2021.02.13 18:42:11,3.0,24.0,48.0876,-10.787271,-37.952057,-0.10570548,1.1417803,9.606643,-0.045632925,-0.021933459,0.0026280447,-0.11829116195440292,0.011002929881215096,-1.6995362043380737,1013.5938,
2021.02.13 18:42:11,3.0,24.0,46.334274,-11.778493,-38.267166,0.10197053,1.0746356,9.9791,-0.06864407,-0.028043155,0.021813028,-0.10726965963840485,-0.010218053124845028,-1.7333931922912598,1013.5938,
2021.02.13 18:42:11,3.0,24.0,47.301453,-11.129584,-38.265892,-0.13698234,1.1050054,9.753423,0.049407557,-0.026826493,-0.0031443322,-0.11280204355716705,0.014043616130948067,-1.712636113166809,1013.5938,
2021.02.13 18:42:11,3.0,24.0,47.4525,-12.37013,-38.249954,-0.11385891,0.95838183,9.502339,0.014609286,-0.037155364,0.059742928,-0.1005103811621666,0.01198162417858839,-1.747951865196228,1013.5938,
2021.02.13 18:42:11,3.0,24.0,47.18103,-11.569715,-38.13749,0.05204758,1.0727305,9.867759,-0.033145256,-0.013769926,0.027504427,-0.10828391462564468,-0.005274459719657898,-1.7258739471435547,1013.5938,
2021.02.13 18:42:11,3.0,24.0,47.297882,-10.437393,-38.227493,0.08350172,1.008836,9.683777,0.011358068,0.047829784,-0.025219874,-0.10379966348409653,-0.00862263236194849,-1.705670952796936,1013.5938,
2021.02.13 18:42:11,3.0,24.0,48.499313,-11.445081,-36.58889,-0.09766578,1.0140327,9.885602,-0.01634495,0.022793122,-0.027976073,-0.1022142618894577,0.00987927708774805,-1.727457046508789,1013.5938,
2021.02.13 18:42:12,3.0,24.0,48.68799,-11.487233,-38.031433,-0.25112012,1.0308069,9.623303,0.010399407,0.044762976,0.015658703,-0.10667278617620468,0.026089081540703773,-1.721469521522522,1013.5938,
2021.02.13 18:42:12,3.0,24.0,47.180206,-12.365699,-38.190277,-0.1093953,0.9696172,9.706006,-0.01589353,0.009032251,0.009810184,-0.09956205636262894,0.011270410381257534,-1.7497470378875732,1013.5938,
2021.02.13 18:42:12,3.0,24.0,47.030792,-11.851354,-38.290977,-0.22180922,1.0451425,9.945312,-0.020083196,0.03834676,0.00271167,-0.10467881709337234,0.02229919657111168,-1.735581398010254,1013.5938,
2021.02.13 18:42:12,3.0,24.0,47.848846,-11.142436,-38.08983,-0.10729113,0.9898265,9.567764,0.032095376,0.03595404,0.010327111,-0.10308115184307098,0.011213344521820545,-1.7196063995361328,1013.5938,
2021.02.13 18:42:12,3.0,24.0,46.378998,-10.888167,-35.993416,-0.0052351444,0.88819027,9.683098,0.006128028,0.048832256,-0.028872173,-0.09146986156702042,5.406476557254791E-4,-1.7322919368743896,1013.5938,
2021.02.13 18:42:12,3.0,24.0,49.0226,-11.3574,-37.56379,-0.20995395,0.93320996,9.552956,-0.034419253,0.060783762,0.007015654,-0.09735574573278427,0.021974368020892143,-1.7261892557144165,1013.5938,
2021.02.13 18:42:12,3.0,24.0,47.34932,-12.428979,-38.0793,-0.23450816,0.9298799,9.778625,-0.036580827,0.04234442,0.033502944,-0.09478093683719635,0.023977115750312805,-1.755285382270813,1013.594,
2021.02.13 18:42:12,3.0,24.0,47.803085,-10.372984,-37.4778,-0.22715588,0.92177373,9.886733,-0.029563103,0.008080104,7.0762075E-4,-0.09294027090072632,0.02297178842127323,-1.713629126548767,1013.5943,
2021.02.13 18:42:12,3.0,24.0,48.28929,-11.5893755,-38.189278,-0.3680347,1.0215144,9.69494,0.018159578,-0.011724041,-0.017552998,-0.10490337759256363,0.03794330358505249,-1.7263034582138062,1013.5945,
2021.02.13 18:42:12,3.0,24.0,49.453674,-9.945205,-38.13571,-0.18850692,0.9004229,9.764459,-0.0013107634,-0.029714838,0.005398956,-0.09193722903728485,0.019303016364574432,-1.6997276544570923,1013.5945,
2021.02.13 18:42:12,3.0,24.0,48.0636,-10.820701,-36.80211,-0.13281739,0.8923328,9.833964,0.013277143,-0.06957044,-0.0170345,-0.09048385918140411,0.013505164533853531,-1.7249932289123535,1013.5945,
2021.02.13 18:42:12,3.0,24.0,48.141098,-10.714583,-38.030014,-0.27735436,0.9937063,9.599713,0.05776665,-0.040165704,-0.042782605,-0.10310407727956772,0.028883907943964005,-1.7102872133255005,1013.5949,
2021.02.13 18:42:12,3.0,24.0,48.587738,-9.86344,-38.035866,-0.22707379,0.991265,9.665919,0.009859536,-0.031140827,-0.0063975425,-0.10216731578111649,0.023487888276576996,-1.692203402519226,1013.5953,
2021.02.13 18:42:13,3.0,24.0,48.699554,-11.594457,-36.414276,-0.054672763,0.94775105,9.774933,0.03362913,-0.02770758,-0.032624435,-0.09665367752313614,0.005593101494014263,-1.7342891693115234,1013.5953,
2021.02.13 18:42:13,3.0,24.0,48.86705,-10.926381,-37.927704,-0.1821171,1.0743283,9.711715,0.004155169,-0.029478747,-0.010896049,-0.11015474051237106,0.018750114366412163,-1.7068368196487427,1013.5953,
2021.02.13 18:42:13,3.0,24.0,48.508835,-11.127154,-37.027466,-0.04248332,1.0065664,9.7980585,0.010286456,-0.027135864,0.005074203,-0.10237111151218414,0.00433586398139596,-1.7199156284332275,1013.5953,
2021.02.13 18:42:13,3.0,24.0,47.610397,-10.792407,-37.847603,-0.1106771,1.0320592,9.60313,0.037512407,-0.0037764502,-0.020815894,-0.10705314576625824,0.011524596251547337,-1.7103984355926514,1013.5953,
2021.02.13 18:42:13,3.0,24.0,48.386948,-10.570601,-36.2892,-0.14602965,1.0801901,9.7353735,-0.0036569173,0.0051640267,-0.014108256,-0.11049085855484009,0.014998776838183403,-1.7043089866638184,1013.5953,
2021.02.13 18:42:13,3.0,24.0,47.674072,-11.7272005,-37.664978,-0.104726635,1.0659572,9.7318325,0.0069979047,-0.008946183,-0.008887386,-0.1090918630361557,0.010760828852653503,-1.7281829118728638,1013.5953,
2021.02.13 18:42:13,3.0,24.0,47.97357,-10.854987,-37.12886,-0.1351049,1.090104,9.629811,0.013243963,8.810824E-5,-0.009796027,-0.11271011829376221,0.014028938487172127,-1.707662582397461,1013.5953,
2021.02.13 18:42:13,3.0,24.0,48.496796,-11.166364,-38.05255,-0.08922505,1.0303391,9.756133,-0.013534729,-0.002295017,-7.795191E-4,-0.10521498322486877,0.009145278483629227,-1.716431975364685,1013.5953,
2021.02.13 18:42:13,3.0,24.0,48.596558,-10.759545,-38.367073,-0.13367896,1.1032642,9.746345,0.0048380727,-0.008735439,-0.009349002,-0.11270742118358612,0.013714944012463093,-1.7011568546295166,1013.5953,
2021.02.13 18:42:13,3.0,24.0,48.014328,-11.617919,-38.253616,-0.10071081,1.0661219,9.656072,0.012598758,-0.0128197605,-0.0029311497,-0.10995816439390182,0.010429412126541138,-1.722833514213562,1013.5953,
2021.02.13 18:42:13,3.0,24.0,48.062943,-10.581187,-37.89241,-0.09418898,1.0731639,9.740425,-3.0121766E-5,-0.0019868787,-0.008599192,-0.1097286120057106,0.00966960284858942,-1.702483892440796,1013.5953,
2021.02.13 18:42:13,3.0,24.0,47.52466,-10.378785,-37.961906,-0.10158354,1.0796599,9.664023,0.009767686,-0.0033990094,-0.010742895,-0.11125205457210541,0.010511129163205624,-1.6983758211135864,1013.5953,
2021.02.13 18:42:13,3.0,24.0,46.718414,-10.392556,-38.3266,-0.12696244,1.1052382,9.71378,-0.00758663,-0.0021998726,-0.0029217561,-0.11328362673521042,0.013069598004221916,-1.698305606842041,1013.5953,
2021.02.13 18:42:13,3.0,24.0,47.758194,-11.813323,-37.430077,-0.048477683,1.0400056,9.744014,-0.0013618926,-0.0012392132,-7.504558E-4,-0.10632891952991486,0.0049750832840800285,-1.7322708368301392,1013.5953,
2021.02.13 18:42:14,3.0,24.0,47.780167,-11.672189,-37.555992,-0.15429024,1.1166445,9.666057,0.007932136,-5.311194E-4,-0.015383227,-0.11499790102243423,0.015960711985826492,-1.7222267389297485,1013.5953,
2021.02.13 18:42:14,3.0,24.0,47.481293,-12.275136,-37.47397,-0.07573677,1.0485007,9.735242,-0.0066017117,-0.008461243,0.0068555595,-0.10728476941585541,0.0077794925309717655,-1.74187171459198,1013.5953,
2021.02.13 18:42:14,3.0,24.0,47.45186,-11.228002,-38.170258,-0.10953396,1.1059953,9.674075,-0.0012338327,-0.006221592,-0.006153024,-0.11382423341274261,0.01132193673402071,-1.7135814428329468,1013.5953,
2021.02.13 18:42:14,3.0,24.0,48.1521,-11.287654,-37.867836,-0.0063450844,1.0141829,9.77036,-0.0073324107,-0.0066091227,0.002814012,-0.10343154519796371,6.494217086583376E-4,-1.721620798110962,1013.5953,
2021.02.13 18:42:14,3.0,24.0,47.535156,-10.860211,-38.22036,-0.11378574,1.0890023,9.659425,0.008184068,-0.00887327,-0.01333076,-0.11225810647010803,0.011779218912124634,-1.7069008350372314,1013.5953,
2021.02.13 18:42:14,3.0,24.0,47.062088,-10.741359,-38.288155,-0.066301145,1.038644,9.72826,-0.01037798,-0.0044139843,-0.004025686,-0.10636027157306671,0.006815208122134209,-1.7105215787887573,1013.5951,
2021.02.13 18:42:14,3.0,24.0,47.563217,-9.603756,-37.48896,-0.039193433,1.0601617,9.752708,-0.0012571337,-0.005012343,-0.0054891165,-0.1082783043384552,0.004018701612949371,-1.6857757568359375,1013.5949,
2021.02.13 18:42:14,3.0,24.0,47.97525,-10.257108,-37.85067,-0.05496058,1.0461224,9.687863,0.006590734,-0.0046332856,-0.010824539,-0.10756427049636841,0.005673076491802931,-1.69793701171875,1013.59406,
2021.02.13 18:42:14,3.0,24.0,48.69055,-9.460069,-38.03959,-0.036137696,1.0694329,9.733365,-0.0031316406,-0.00511134,-0.009669652,-0.10943318158388138,0.00371274771168828,-1.6780940294265747,1013.5927,
2021.02.13 18:42:14,3.0,24.0,46.99147,-9.839352,-37.305313,-0.041034777,1.0726516,9.698228,0.00547368,-0.006663369,-0.01589144,-0.1101541519165039,0.004231136757880449,-1.691001534461975,1013.5901,
2021.02.13 18:42:14,3.0,24.0,46.80078,-10.206111,-37.737366,-0.04040512,1.0669625,9.726268,0.007990543,-0.0019775694,-0.020127978,-0.10926124453544617,0.0041542029939591885,-1.6989197731018066,1013.5901,
2021.02.13 18:42:14,3.0,24.0,45.76773,-11.002421,-38.6074,0.023769423,1.0337992,9.709735,0.002619764,-0.001354354,-0.02005897,-0.10607046633958817,-0.0024479941930621862,-1.7193816900253296,1013.5894,
2021.02.13 18:42:14,3.0,24.0,46.787735,-11.151456,-38.301804,-0.090799786,1.1337601,9.715585,0.004768243,0.0012791166,-0.039404705,-0.11616455018520355,0.009345514699816704,-1.711721658706665,1013.5894,
2021.02.13 18:42:14,3.0,24.0,47.46675,-9.372211,-39.62123,-0.07662159,1.0879916,9.67607,0.0041428283,-0.004308971,-0.024107166,-0.11196768283843994,0.007918503135442734,-1.6731830835342407,1013.589,
2021.02.13 18:42:15,3.0,24.0,48.42975,-10.663016,-38.36972,-0.04859088,1.0881809,9.718322,-0.004869948,-0.0025301557,-0.0152658215,-0.11150625348091125,0.004999883007258177,-1.700671672821045,1013.5888,
2021.02.13 18:42:15,3.0,24.0,47.521637,-11.263509,-37.873726,-0.054040298,1.0787798,9.733652,-0.0024092747,-0.0011501054,-0.020369597,-0.11037775874137878,0.005551846697926521,-1.7175655364990234,1013.58875,
2021.02.13 18:42:15,3.0,24.0,46.564026,-9.78488,-37.589302,-0.094785206,1.1131781,9.693746,0.0058898497,-0.0041670813,-0.019880496,-0.11432843655347824,0.009777664206922054,-1.6867620944976807,1013.58856,
2021.02.13 18:42:15,3.0,24.0,47.210007,-10.511784,-38.133842,-0.05083245,1.0715612,9.738463,0.0012568812,-0.0049484153,-0.009968312,-0.10959155112504959,0.005219713784754276,-1.7029924392700195,1013.5881,
2021.02.13 18:42:15,3.0,24.0,48.36548,-9.945728,-37.773117,-0.07502908,1.085878,9.686672,0.010141067,-0.0042875567,-0.008603571,-0.11163083463907242,0.007745444308966398,-1.6874712705612183,1013.5881,
2021.02.13 18:42:15,3.0,24.0,47.74254,-11.633754,-38.00727,-0.069133826,1.0777695,9.698696,-0.0062739355,-0.0030403477,7.0616277E-4,-0.11066833883523941,0.007128036115318537,-1.7239465713500977,1013.5881,
2021.02.13 18:42:15,3.0,24.0,48.3089,-9.795804,-38.846977,-0.059684645,1.1077574,9.70844,0.0045310827,-0.003782961,1.3096025E-5,-0.11360904574394226,0.006147629581391811,-1.680511713027954,1013.5881,
2021.02.13 18:42:15,3.0,24.0,47.104553,-9.481346,-37.805107,-0.068533204,1.0866737,9.718876,-0.0041565164,0.0018298412,0.008733439,-0.11134541779756546,0.007051439490169287,-1.6810529232025146,1013.5881,
2021.02.13 18:42:15,3.0,24.0,46.786926,-9.015154,-37.440956,-0.026877796,1.097078,9.683486,0.0016723922,0.0081444,0.005760556,-0.11281224340200424,0.00277562509290874,-1.6717398166656494,1013.5881,
2021.02.13 18:42:15,3.0,24.0,47.10962,-10.156405,-37.812744,-0.033087526,1.073955,9.724628,-0.007878984,0.009435463,0.0074411165,-0.10999026894569397,0.003402432892471552,-1.6962875127792358,1013.5881,
2021.02.13 18:42:15,3.0,24.0,47.879593,-10.615008,-37.303436,-0.052582856,1.1000978,9.719129,-1.7579435E-4,0.004925593,0.0016196021,-0.11270759999752045,0.005410191137343645,-1.7026504278182983,1013.5881,
2021.02.13 18:42:15,3.0,24.0,47.606125,-10.479325,-37.929085,-0.009669602,1.0482547,9.664784,0.0027502053,0.00237629,0.0010731728,-0.10803887248039246,0.0010004981886595488,-1.7029516696929932,1013.5881,
2021.02.13 18:42:15,3.0,24.0,47.110565,-11.298146,-37.908043,-0.044059884,1.0788323,9.692483,-0.006230913,0.0045873923,-0.010289008,-0.11084868013858795,0.004545747302472591,-1.7190828323364258,1013.5881,
2021.02.13 18:42:15,3.0,24.0,47.872467,-10.697537,-37.61344,-0.061666746,1.0547377,9.720954,-0.008799398,-0.0017600739,-0.0058818497,-0.10807650536298752,0.0063436077907681465,-1.7073509693145752,1013.5881,
2021.02.13 18:42:15,3.0,24.0,47.224792,-11.56228,-37.235863,-0.06573689,1.0553756,9.679791,-0.009804122,-0.0022854006,-0.0056493995,-0.1085973009467125,0.006791043095290661,-1.727549433708191,1013.5881,
2021.02.13 18:42:16,3.0,24.0,47.38153,-9.039393,-37.590538,-0.0528421,1.0538516,9.735899,-0.013936345,-0.0031798673,-0.0039407783,-0.10782251507043839,0.005427498836070299,-1.6745840311050415,1013.5881,
2021.02.13 18:42:16,3.0,24.0,47.05835,-10.159066,-37.813553,-0.0880219,1.041206,9.724588,-0.0049529984,-0.0019276263,-0.0041264463,-0.10665873438119888,0.009051230736076832,-1.6991831064224243,1013.5881,
2021.02.13 18:42:16,3.0,24.0,46.895676,-10.645541,-38.244316,-0.08376893,1.0445794,9.72707,-0.011953372,-0.0027670045,0.0025388715,-0.10697498917579651,0.008611725643277168,-1.708613395690918,1013.5881,
2021.02.13 18:42:16,3.0,24.0,46.557953,-9.77616,-38.288597,-0.047012657,1.0342058,9.727843,-6.088901E-4,-0.00604299,0.0070680976,-0.10591492056846619,0.004832755774259567,-1.6920360326766968,1013.5883,
2021.02.13 18:42:16,3.0,24.0,46.77202,-8.853625,-37.908806,-0.0859026,1.0407379,9.735003,0.0027093613,-4.6361377E-4,0.0034338143,-0.10649815201759338,0.00882386602461338,-1.6723109483718872,1013.58875,
2021.02.13 18:42:16,3.0,24.0,47.05092,-10.149933,-38.575264,-0.05207829,1.0421885,9.706725,0.004149937,0.0011648758,0.0073821573,-0.10695640742778778,0.005365124903619289,-1.697076678276062,1013.5888,
2021.02.13 18:42:16,3.0,24.0,48.26509,-10.39069,-37.224663,-0.04688063,1.0254412,9.695994,0.0054671234,0.002333805,0.0030352771,-0.10536635667085648,0.0048350137658417225,-1.7029865980148315,1013.589,
2021.02.13 18:42:16,3.0,24.0,46.760666,-10.002577,-37.492027,-0.05765593,1.0588535,9.7562065,-0.0029734639,-0.0013217886,0.005232757,-0.10810625553131104,0.005909597966820002,-1.6962497234344482,1013.58905,
2021.02.13 18:42:16,3.0,24.0,46.891663,-11.364451,-38.96649,-0.042273223,1.03727,9.684522,0.008426922,0.003377783,2.5586504E-4,-0.1066981852054596,0.004365001805126667,-1.7221999168395996,1013.58936,
2021.02.13 18:42:16,3.0,24.0,46.529694,-10.583901,-37.56492,-0.032160044,1.0511142,9.701561,-0.0017823563,-4.5489636E-5,-0.001433402,-0.10792328417301178,0.003314922796562314,-1.7091054916381836,1013.5894,
2021.02.13 18:42:16,3.0,24.0,47.027283,-9.728169,-37.694252,-0.030640772,1.0306114,9.716031,-0.004350213,0.0011623768,-0.008329555,-0.10567760467529297,0.0031536200549453497,-1.6913444995880127,1013.5894,
2021.02.13 18:42:16,3.0,24.0,46.38559,-10.384521,-37.444084,-0.06896072,1.0613256,9.682363,-0.010639716,-4.0616642E-4,-0.00678455,-0.1091756820678711,0.007122182287275791,-1.7045812606811523,1013.5896,
2021.02.13 18:42:16,3.0,24.0,46.91275,-9.594705,-37.69686,-0.0375205,1.0291075,9.720804,-1.9958057E-4,-0.0067076646,-0.0070539033,-0.10547284781932831,0.0038597953971475363,-1.6889960765838623,1013.5896,
2021.02.13 18:42:16,3.0,24.0,48.026733,-10.4331875,-38.79625,-0.11114789,1.0683631,9.687139,-3.057476E-4,4.4280663E-4,-0.013432893,-0.1098356693983078,0.011473255231976509,-1.697432041168213,1013.5897,
2021.02.13 18:42:17,3.0,24.0,47.190292,-9.711745,-38.47032,-0.023700094,1.0426698,9.754735,-0.006125249,-0.0029754718,0.002286499,-0.10648395866155624,0.0024295940529555082,-1.6882201433181763,1013.59064,
2021.02.13 18:42:17,3.0,24.0,47.710587,-10.165155,-39.112404,-0.06398809,1.0468313,9.706353,0.0065937075,-0.002852458,-0.0018209146,-0.107432521879673,0.006592296529561281,-1.6940635442733765,1013.5907,
2021.02.13 18:42:17,3.0,24.0,48.1783,-10.570323,-38.357254,-0.0508585,1.0268801,9.72015,-7.611122E-4,4.990149E-4,0.0029516085,-0.10525263100862503,0.005232227500528097,-1.7045502662658691,1013.5908,
2021.02.13 18:42:17,3.0,24.0,47.758102,-9.255033,-38.2826,-0.08095905,1.0550178,9.701578,0.0026950403,0.0013904535,0.0051574977,-0.10831762850284576,0.008344742469489574,-1.6762135028839111,1013.591,
2021.02.13 18:42:17,3.0,24.0,47.223236,-9.187972,-37.420197,0.005403789,1.0062089,9.654519,-0.0098881945,4.2918837E-6,0.0027946676,-0.10384660214185715,-5.597160197794437E-4,-1.68172287940979,1013.59106,
2021.02.13 18:42:17,3.0,24.0,46.134094,-10.396446,-38.65827,-0.027693296,1.0400639,9.817603,0.01515032,0.0032141374,0.006076961,-0.10554458945989609,0.0028207721188664436,-1.7058159112930298,1013.5911,
2021.02.13 18:42:17,3.0,24.0,46.16411,-10.248213,-38.069107,-0.0026567262,1.0374126,9.776488,-0.008368384,0.008834045,0.009222132,-0.10571740567684174,2.7174645219929516E-4,-1.703747272491455,1013.59204,
2021.02.13 18:42:17,3.0,24.0,45.957855,-10.401336,-37.509705,-0.0472308,1.0613823,9.703681,0.011962629,0.0031512247,0.0028797039,-0.10894497483968735,0.004867268726229668,-1.7062162160873413,1013.59216,
2021.02.13 18:42:17,3.0,24.0,47.117264,-9.513462,-38.053886,0.0024863903,1.023013,9.669075,-0.0022381912,0.0021754154,0.011712217,-0.10541040450334549,-2.5714869843795896E-4,-1.6860989332199097,1013.5922,
2021.02.13 18:42:17,3.0,24.0,47.01474,-11.018117,-38.45607,-0.012609258,1.0489131,9.775326,-0.0022640596,0.004333077,-0.007223707,-0.10689302533864975,0.0012899059802293777,-1.7155425548553467,1013.5927,
2021.02.13 18:42:17,3.0,24.0,47.584198,-10.657554,-37.64704,-0.10459929,1.0735061,9.6692915,0.008271437,0.0012159637,-0.002568914,-0.11056298762559891,0.01081725675612688,-1.7052665948867798,1013.5927,
2021.02.13 18:42:17,3.0,24.0,49.50566,-10.508337,-37.27352,0.015478526,1.0274801,9.728702,-0.0055043343,0.007738593,0.0073182853,-0.10522308200597763,-0.001591015374287963,-1.7020598649978638,1013.59283,
2021.02.13 18:42:17,3.0,24.0,48.076126,-10.507849,-36.852737,-0.048585992,1.0423607,9.695709,0.0037470735,0.0020430852,-0.0020735033,-0.10709475725889206,0.005011039786040783,-1.7053436040878296,1013.5929,
2021.02.13 18:42:17,3.0,24.0,47.324722,-10.247866,-38.04339,-0.1406456,1.0703158,9.70812,-9.5640845E-4,-0.0045829252,0.0028197062,-0.10979465395212173,0.01448640413582325,-1.697189211845398,1013.5929,
2021.02.13 18:42:18,3.0,24.0,46.44783,-11.082015,-36.81437,-0.021467367,1.0548706,9.71019,-0.022608789,-0.017879527,0.027066782,-0.10821080207824707,0.0022108047269284725,-1.721272587776184,1013.5929,
2021.02.13 18:42:18,3.0,24.0,46.592346,-9.921875,-37.58744,-0.08516172,1.0654458,9.764821,-0.0045064734,-0.029777672,0.043434132,-0.10867660492658615,0.008721057325601578,-1.6942943334579468,1013.5929,
2021.02.13 18:42:18,3.0,24.0,47.0894,-9.264084,-38.585487,0.031327408,1.0559645,9.7551155,0.0071952287,-0.061869297,0.07444968,-0.10782685875892639,-0.003211371600627899,-1.6778573989868164,1013.5929,
2021.02.13 18:42:18,3.0,24.0,48.173386,-9.931748,-38.226196,0.22770452,1.0013255,9.133838,-0.0014089474,-0.03384363,0.06027912,-0.10915843397378922,-0.024924613535404205,-1.6891604661941528,1013.5929,
2021.02.13 18:42:18,3.0,24.0,47.55945,-10.539013,-38.829086,-0.022048736,0.9649551,10.329707,-0.15132321,0.024251679,0.052198507,-0.09314500540494919,0.0021344944834709167,-1.714551329612732,1013.5929,
