Time,X-cord,Y-cord,Mag_x,Mag_y,Mag_z,Acc_x,Acc_y,Acc_z,Gyro_x,Gyro_y,Gyro_z,Orn_x,Orn_y,Orn_z,Pressure,
2021.02.13 19:00:27,77.0,16.0,21.93116,-40.429455,-40.24919,0.37239996,0.31345177,10.368348,0.17848939,-0.008898229,-0.12791303,-0.03020293451845646,-0.03590156510472298,-2.60437273979187,1013.7521,
2021.02.13 19:00:27,77.0,16.0,21.922737,-41.167545,-39.971626,-0.18724625,0.7106662,9.805009,-0.08171408,0.0260418,-0.08536856,-0.07234024256467819,0.01909467950463295,-2.6351747512817383,1013.7521,
2021.02.13 19:00:27,77.0,16.0,22.180023,-39.340027,-41.09037,0.08657378,0.67556113,9.860312,-0.05886788,0.0025275545,-0.010252627,-0.06840363144874573,-0.008779797703027725,-2.587804079055786,1013.7521,
2021.02.13 19:00:27,77.0,16.0,22.062698,-39.089375,-39.473724,0.14624593,0.48125842,9.970113,0.005673243,0.031963576,-0.02515896,-0.04822748899459839,-0.014667380601167679,-2.594369411468506,1013.7523,
2021.02.13 19:00:27,77.0,16.0,22.04409,-39.295635,-39.657913,-0.06514579,0.59361136,9.552231,0.07399778,0.012936956,-0.05739723,-0.06206249073147774,0.006819849833846092,-2.606743574142456,1013.7523,
2021.02.13 19:00:27,77.0,16.0,23.080162,-39.91027,-40.52085,-0.0910806,0.75120497,9.790816,-0.005963915,9.84415E-4,-0.04215771,-0.07657213509082794,0.009302387945353985,-2.5873396396636963,1013.7523,
2021.02.13 19:00:27,77.0,16.0,22.20665,-40.64922,-39.821083,-0.069252156,0.7025296,9.756799,-0.0054577,-0.00744166,-0.026539478,-0.07187825441360474,0.00709771690890193,-2.614560127258301,1013.7523,
2021.02.13 19:00:27,77.0,16.0,21.090157,-40.06009,-39.944443,-0.0944821,0.7831467,9.941531,-0.023800684,-0.015296902,-0.018385924,-0.07860937714576721,0.009503492154181004,-2.628819227218628,1013.7521,
2021.02.13 19:00:27,77.0,16.0,22.71859,-41.01494,-40.51123,-0.020065425,0.7469451,9.726676,0.021104177,-0.037157085,0.016580041,-0.07664287090301514,0.0020629242062568665,-2.6019222736358643,1013.752,
2021.02.13 19:00:28,77.0,16.0,21.737984,-40.403873,-40.492577,0.0136427665,0.5885388,9.782707,0.011753892,-0.030876942,0.029510602,-0.06008865684270859,-0.001394578954204917,-2.619732618331909,1013.7515,
2021.02.13 19:00:28,77.0,16.0,22.342796,-40.461025,-39.92469,-0.04264539,0.6514335,9.820497,0.011811207,-0.008618467,0.019514838,-0.06623640656471252,0.004342461004853249,-2.6102821826934814,1013.75116,
2021.02.13 19:00:28,77.0,16.0,19.579483,-39.92213,-40.692734,0.005291289,0.67040664,9.741519,0.041447766,0.008474359,0.026579691,-0.06871116906404495,-5.431687459349632E-4,-2.6548006534576416,1013.75055,
2021.02.13 19:00:28,77.0,16.0,21.300858,-39.92571,-40.963585,-0.02127101,0.6478521,9.717533,0.03493769,0.010923957,0.040448196,-0.06656970828771591,0.0021889277268201113,-2.6223278045654297,1013.75055,
2021.02.13 19:00:28,77.0,16.0,21.223892,-41.505184,-39.74919,0.05077833,0.48756155,9.5619545,0.026634837,0.0070619304,0.052664556,-0.05094489827752113,-0.005310405045747757,-2.643697500228882,1013.75055,
2021.02.13 19:00:28,77.0,16.0,21.01455,-42.046444,-39.4009,-0.025904775,0.6211153,9.604953,-0.035394166,0.008815746,0.03336539,-0.06457600742578506,0.002697015879675746,-2.6538469791412354,1013.75055,
2021.02.13 19:00:28,77.0,16.0,21.509811,-40.92272,-40.317368,-0.09602512,0.66546625,9.861045,-0.061211735,0.029217262,0.037166767,-0.06737900525331497,0.00973751675337553,-2.6355223655700684,1013.75055,
2021.02.13 19:00:28,77.0,16.0,20.828468,-40.338577,-40.1986,-0.07923105,0.705986,9.772788,-0.014527177,0.011549745,0.05574992,-0.07211234420537949,0.008107136003673077,-2.6393063068389893,1013.7509,
2021.02.13 19:00:28,77.0,16.0,20.770897,-39.84596,-41.80133,0.14573894,0.6334781,9.654385,-0.01632331,0.008551206,0.06531046,-0.0655142217874527,-0.015094475820660591,-2.6177568435668945,1013.75116,
2021.02.13 19:00:28,77.0,16.0,20.608513,-40.303772,-39.427414,0.25430533,0.5105271,9.797547,-0.031326298,0.00523412,0.014462056,-0.05204306170344353,-0.025950191542506218,-2.6267805099487305,1013.75116,
2021.02.13 19:00:28,77.0,16.0,22.254036,-40.42871,-39.22673,-0.09929242,0.7487712,9.697365,-0.01420168,-0.005763448,-0.06349668,-0.07705695182085037,0.010238755494356155,-2.611330032348633,1013.75116,
2021.02.13 19:00:28,77.0,16.0,21.07917,-40.475697,-40.38935,-0.060092952,0.67427486,9.867292,-0.02151531,-0.01342551,-0.017820705,-0.06822700798511505,0.006090040784329176,-2.635852336883545,1013.75116,
2021.02.13 19:00:28,77.0,16.0,20.937553,-39.44168,-41.36064,0.0021068112,0.57450855,9.717262,-0.001352984,-0.018615665,-0.023113025,-0.059053726494312286,-2.168111823266372E-4,-2.6256682872772217,1013.75116,
2021.02.13 19:00:28,77.0,16.0,21.301659,-38.902313,-39.952515,-0.08498908,0.58501667,9.827096,-0.0053119212,-0.008752517,-0.0439369,-0.05945858731865883,0.008648227900266647,-2.619811773300171,1013.75116,
2021.02.13 19:00:28,77.0,16.0,23.103416,-39.4623,-39.140533,-0.15621333,0.607238,9.685108,0.010399415,-0.0077962284,-0.032103576,-0.0626080259680748,0.016127830371260643,-2.594796657562256,1013.75116,
2021.02.13 19:00:29,77.0,16.0,21.540794,-38.734478,-40.954353,-0.042335246,0.56939965,9.810222,0.008599849,-0.003109576,-0.008551871,-0.057975884526968,0.0043153949081897736,-2.609536647796631,1013.75116,
2021.02.13 19:00:29,77.0,16.0,21.236153,-40.309376,-40.260544,-0.08248755,0.6108512,9.798125,0.019949751,-6.622831E-4,0.0014480897,-0.06226090341806412,0.008418508805334568,-2.6356379985809326,1013.75116,
2021.02.13 19:00:29,77.0,16.0,21.54927,-39.01413,-38.91307,0.015839163,0.57625365,9.705035,0.020723341,-0.0019677007,0.017699173,-0.05930705741047859,-0.001632054802030325,-2.608670711517334,1013.7515,
2021.02.13 19:00:29,77.0,16.0,20.999931,-39.9466,-40.48841,-0.06935469,0.6279055,9.784559,0.016810257,0.0023248158,0.011339008,-0.06408361345529556,0.00708805862814188,-2.634265422821045,1013.75165,
2021.02.13 19:00:29,77.0,16.0,21.270164,-39.228065,-40.278717,-0.065160885,0.6273089,9.707039,0.021617088,0.004327914,0.03258608,-0.06453294306993484,0.006712644826620817,-2.619985818862915,1013.7523,
2021.02.13 19:00:29,77.0,16.0,20.432365,-40.7081,-40.68969,0.0650041,0.62575644,9.752499,0.01219562,3.2598226E-4,0.042640164,-0.06407444179058075,-0.0066652800887823105,-2.643044948577881,1013.7532,
2021.02.13 19:00:29,77.0,16.0,21.466545,-42.007336,-39.68615,0.021258036,0.5981249,9.725842,0.01598381,0.0053674323,0.021164736,-0.061421021819114685,-0.002185723278671503,-2.642040729522705,1013.7532,
2021.02.13 19:00:29,77.0,16.0,22.32415,-40.47718,-39.16501,0.022537643,0.6540815,9.722453,0.0049228854,0.0011004657,0.010068948,-0.06717395782470703,-0.0023180984426289797,-2.6058871746063232,1013.75336,
2021.02.13 19:00:29,77.0,16.0,20.272034,-40.158848,-40.40753,0.014571126,0.6596007,9.709786,0.009922421,0.0024529006,0.004282493,-0.0678272545337677,-0.0015006627654656768,-2.642847776412964,1013.75336,
2021.02.13 19:00:29,77.0,16.0,20.459312,-40.017696,-41.244118,0.00861594,0.6489227,9.767625,0.0069998708,0.0024346604,0.003298821,-0.06633856147527695,-8.820913499221206E-4,-2.637976884841919,1013.75354,
2021.02.13 19:00:29,77.0,16.0,21.103981,-40.00527,-40.317703,0.022467814,0.6344557,9.680984,0.0048301257,-0.0026151096,-3.3743563E-4,-0.0654425173997879,-0.002320815110579133,-2.6246514320373535,1013.75366,
2021.02.13 19:00:29,77.0,16.0,22.1893,-40.0676,-39.743073,-0.013579766,0.68320876,9.771205,-0.006109477,-0.004292242,-0.0015915661,-0.06980694830417633,0.0013897730968892574,-2.604806900024414,1013.7537,
2021.02.13 19:00:29,77.0,16.0,22.468788,-40.256573,-40.24523,0.02041205,0.6616253,9.704697,-0.017836895,-0.006813493,-0.0032888746,-0.06807030737400055,-0.002103313570842147,-2.5992915630340576,1013.7538,
2021.02.13 19:00:30,77.0,16.0,21.166168,-39.49685,-40.03537,-0.015409283,0.67868525,9.764,-0.0057226503,-0.007945655,-0.005949828,-0.0693972259759903,0.0015781718539074063,-2.618844985961914,1013.7544,
2021.02.13 19:00:30,77.0,16.0,21.235458,-40.310833,-39.566,0.046474826,0.6491576,9.746632,-0.00632527,-0.013850186,-0.0023355067,-0.06650429964065552,-0.0047682602889835835,-2.6236770153045654,1013.7544,
2021.02.13 19:00:30,77.0,16.0,21.95736,-39.97142,-40.03058,0.045587365,0.63191456,9.817093,-6.8368786E-4,-0.007583927,-0.007171315,-0.06427942961454391,-0.004643639083951712,-2.6061410903930664,1013.7544,
2021.02.13 19:00:30,77.0,16.0,21.461563,-39.99095,-40.207565,0.047843214,0.6340883,9.653751,0.017702214,0.0013679934,-0.017486531,-0.06558807939291,-0.00495587894693017,-2.6152050495147705,1013.7544,
2021.02.13 19:00:30,77.0,16.0,20.323212,-40.20212,-39.71776,0.03983438,0.62781376,9.822978,-0.01068589,0.0058908146,-0.019798571,-0.06382543593645096,-0.0040552024729549885,-2.642671585083008,1013.7544,
2021.02.13 19:00:30,77.0,16.0,21.601646,-40.353367,-39.739388,0.0335979,0.6540084,9.687879,0.0045393705,0.0016184181,-0.018425226,-0.06740522384643555,-0.0034680210519582033,-2.6172633171081543,1013.7544,
2021.02.13 19:00:30,77.0,16.0,20.164993,-40.205177,-40.407997,0.053029746,0.58798784,9.753844,-0.013223289,9.560903E-4,-0.024800597,-0.06020892783999443,-0.005436751525849104,-2.646001100540161,1013.75464,
2021.02.13 19:00:30,77.0,16.0,20.425468,-41.123646,-39.84468,-0.013540086,0.6530016,9.750175,-0.006983456,-4.4407434E-4,-0.029120479,-0.06687337905168533,0.0013887009117752314,-2.653512716293335,1013.7547,
2021.02.13 19:00:30,77.0,16.0,22.093811,-39.76232,-39.17907,0.0018371554,0.6111396,9.759131,-0.0047733653,-7.432531E-4,-0.015000301,-0.06254066526889801,-1.882498909253627E-4,-2.605936050415039,1013.75507,
2021.02.13 19:00:30,77.0,16.0,20.63356,-40.028706,-40.402344,0.026982239,0.60471845,9.734216,-0.008224481,-0.0043069143,-0.013754528,-0.06204301118850708,-0.0027718893252313137,-2.6357228755950928,1013.75507,
2021.02.13 19:00:30,77.0,16.0,21.064178,-40.47212,-40.124954,-0.012221966,0.6476164,9.8068495,-0.005910176,-0.0036682282,-0.012226776,-0.06594136357307434,0.0012462676968425512,-2.6335158348083496,1013.7551,
2021.02.13 19:00:30,77.0,16.0,21.613892,-40.984272,-40.01155,0.017354548,0.6050834,9.721848,0.0040729577,-0.0025057963,-0.005831646,-0.06215926632285118,-0.001785106142051518,-2.627763271331787,1013.7552,
2021.02.13 19:00:30,77.0,16.0,21.03611,-40.163017,-40.403923,0.011720636,0.64049727,9.783234,-0.001138492,-1.809682E-5,-0.0076548676,-0.06537552922964096,-0.0011980322888121009,-2.6286985874176025,1013.75543,
2021.02.13 19:00:30,77.0,16.0,20.917915,-40.321045,-40.541847,0.0038772982,0.63573784,9.718887,0.0039899927,8.8223675E-4,-0.0013026707,-0.06531955301761627,-3.98944626795128E-4,-2.633455276489258,1013.75543,
2021.02.13 19:00:31,77.0,16.0,20.863068,-39.34543,-40.027443,0.050909966,0.6002433,9.754185,-0.01212513,0.003298233,-0.008674467,-0.06145866960287094,-0.005219247192144394,-2.621790647506714,1013.7555,
2021.02.13 19:00:31,77.0,16.0,20.863754,-39.122677,-41.164597,0.021718124,0.6167335,9.743163,-0.014405599,0.0018643143,-0.01767172,-0.06321461498737335,-0.002229059347882867,-2.61979079246521,1013.7555,
2021.02.13 19:00:31,77.0,16.0,21.748566,-39.209225,-39.995903,0.045996185,0.62491566,9.700681,-0.021535901,0.006706277,-0.021778286,-0.06433016061782837,-0.004741506651043892,-2.601177215576172,1013.75586,
2021.02.13 19:00:31,77.0,16.0,21.494095,-40.241802,-39.23584,0.035823885,0.57627964,9.726913,0.001984288,-0.001354506,-0.028269643,-0.059176310896873474,-0.003682948648929596,-2.6223132610321045,1013.7569,
2021.02.13 19:00:31,77.0,16.0,21.845161,-40.457176,-39.411987,-0.026523888,0.62501305,9.77131,-0.0021199,-3.1542114E-4,-0.031814896,-0.06387684494256973,0.0027144593186676502,-2.620326042175293,1013.75757,
2021.02.13 19:00:31,77.0,16.0,22.294022,-39.544994,-39.329872,-0.023304202,0.57938105,9.771271,-9.72898E-4,-0.007794378,-0.021561252,-0.059224825352430344,0.0023849669378250837,-2.602889060974121,1013.7576,
2021.02.13 19:00:31,77.0,16.0,21.87535,-39.875572,-39.785744,-0.024356088,0.5993632,9.729595,-5.775434E-5,-0.0121654235,-0.01710305,-0.061524130403995514,0.0025032940320670605,-2.613760471343994,1013.7576,
2021.02.13 19:00:31,77.0,16.0,20.987328,-38.927273,-40.277916,-0.007749217,0.6022362,9.749107,0.0011131844,-0.004713213,-0.014485386,-0.06169505789875984,7.948640850372612E-4,-2.6188652515411377,1013.7576,
2021.02.13 19:00:31,77.0,16.0,20.862045,-40.423714,-40.441162,-0.04555668,0.57617825,9.761264,-0.0059457636,-0.0066647287,-0.005812905,-0.058957960456609726,0.004667054396122694,-2.6429567337036133,1013.7576,
2021.02.13 19:00:31,77.0,16.0,21.664085,-40.491497,-41.369705,-0.058880094,0.6036745,9.730081,-0.0010278313,-0.0045788027,0.0010022433,-0.06196152791380882,0.006051273085176945,-2.626675844192505,1013.7576,
2021.02.13 19:00:31,77.0,16.0,22.425201,-40.707222,-41.503395,0.065792166,0.5402866,9.767667,-0.007819478,-3.716136E-4,0.024103742,-0.05525621771812439,-0.006735607050359249,-2.6071856021881104,1013.7576,
2021.02.13 19:00:31,77.0,16.0,21.283981,-41.401173,-40.830284,0.009998602,0.58312005,9.778713,-0.0044762753,0.0020783767,0.007841772,-0.05956100672483444,-0.001022486132569611,-2.6401026248931885,1013.7576,
2021.02.13 19:00:31,77.0,16.0,21.627312,-40.458294,-39.96203,0.010175754,0.5571861,9.744103,9.0069335E-4,0.003947053,0.012378378,-0.057119645178318024,-0.0010442982893437147,-2.624612808227539,1013.7576,
2021.02.13 19:00:31,77.0,16.0,21.537323,-40.12953,-41.37175,0.08148124,0.52700686,9.733628,-0.008557816,0.0025854162,0.014518261,-0.05408819392323494,-0.00837091077119112,-2.617327928543091,1013.7576,
2021.02.13 19:00:32,77.0,16.0,22.522057,-38.859234,-40.594254,-0.012811542,0.58949906,9.775406,-0.0068549505,0.0040081926,-0.002583725,-0.06023130938410759,0.0013105884427204728,-2.587871789932251,1013.7576,
2021.02.13 19:00:32,77.0,16.0,22.057594,-39.981895,-40.949226,0.04875608,0.54373723,9.75995,-0.0021208453,0.002894169,0.012224633,-0.05565284937620163,-0.004995484836399555,-2.6075870990753174,1013.7577,
2021.02.13 19:00:32,77.0,16.0,22.136986,-40.422314,-41.091026,0.078417026,0.5251765,9.753747,-0.005879931,0.0014837715,7.8757666E-4,-0.0537898875772953,-0.008039508946239948,-2.60953688621521,1013.7579,
2021.02.13 19:00:32,77.0,16.0,21.025871,-39.217957,-40.034378,0.0043930006,0.559536,9.773312,-0.006725963,5.5502367E-4,-0.009048004,-0.05718899145722389,-4.494894528761506E-4,-2.622906446456909,1013.7584,
2021.02.13 19:00:32,77.0,16.0,21.702507,-39.725468,-40.498398,-0.0090520345,0.56460494,9.779053,0.003187081,-4.434621E-4,-0.0068304176,-0.057672109454870224,9.256553021259606E-4,-2.6156654357910156,1013.7584,
2021.02.13 19:00:32,77.0,16.0,22.429344,-41.03078,-39.826126,0.058787927,0.53225064,9.770631,0.005406023,8.6135126E-4,0.00433537,-0.05441977083683014,-0.0060167270712554455,-2.612966299057007,1013.7584,
2021.02.13 19:00:32,77.0,16.0,22.519135,-40.17095,-39.82418,0.05691814,0.50806564,9.7466345,0.0040684156,-0.0021051846,-0.0071165236,-0.05207926779985428,-0.00583970732986927,-2.602698564529419,1013.7584,
2021.02.13 19:00:32,77.0,16.0,22.214104,-40.150703,-40.301147,-0.056759357,0.5925512,9.795029,0.0052278982,0.002663121,-0.019114885,-0.0604204460978508,0.005794645752757788,-2.6130075454711914,1013.7584,
2021.02.13 19:00:32,77.0,16.0,21.744682,-39.21614,-39.85257,-0.04541765,0.53462934,9.744294,0.012286276,0.0060479357,0.004010245,-0.05481034144759178,0.0046609146520495415,-2.6136443614959717,1013.7584,
2021.02.13 19:00:32,77.0,16.0,22.805374,-39.86484,-39.73082,0.087499164,0.50206524,9.743436,0.001962421,0.0040357537,0.008440656,-0.05148095637559891,-0.00898007769137621,-2.5916073322296143,1013.7584,
2021.02.13 19:00:32,77.0,16.0,21.961296,-40.711147,-41.91371,4.538248E-4,0.57740694,9.739469,0.0094516305,-0.004607438,-0.0057854075,-0.05921595171093941,-4.6596465836046264E-5,-2.6193325519561768,1013.7584,
2021.02.13 19:00:32,77.0,16.0,21.16198,-40.30124,-41.3311,-0.0017632693,0.53646487,9.770078,0.00268149,-0.007744731,0.0018231347,-0.054853882640600204,1.804764906410128E-4,-2.6333351135253906,1013.75854,
2021.02.13 19:00:32,77.0,16.0,20.473244,-40.343494,-40.42034,0.0068449024,0.5456602,9.751788,0.0069039585,-0.0049575847,0.02008779,-0.0558965802192688,-7.019124459475279E-4,-2.647088050842285,1013.75854,
2021.02.13 19:00:32,77.0,16.0,22.194138,-38.54856,-41.794914,0.017911516,0.56690043,9.746934,0.0016162449,0.0028626746,0.014787049,-0.058096375316381454,-0.0018376543885096908,-2.5883166790008545,1013.75854,
2021.02.13 19:00:33,77.0,16.0,21.544708,-40.19576,-40.350037,0.032425735,0.56544083,9.754399,0.0022376662,0.0036575394,0.01713306,-0.057902656495571136,-0.0033242041245102882,-2.620849370956421,1013.75854,
2021.02.13 19:00:33,77.0,16.0,20.133827,-40.828125,-40.550903,-0.04317491,0.5980212,9.719739,-3.1043775E-4,0.009392643,0.0055857124,-0.06144840642809868,0.0044419532641768456,-2.66082501411438,1013.75867,
2021.02.13 19:00:33,77.0,16.0,21.321571,-40.318752,-40.305153,0.025979042,0.59289426,9.797663,0.013246482,0.0052391,0.0118456315,-0.060439933091402054,-0.002651548944413662,-2.62603497505188,1013.75916,
2021.02.13 19:00:33,77.0,16.0,21.889091,-39.455906,-39.851723,-7.1191665E-4,0.5979531,9.783685,0.010472627,0.010972278,0.0075990297,-0.061041440814733505,7.276569522218779E-5,-2.6068544387817383,1013.75946,
2021.02.13 19:00:33,77.0,16.0,22.653587,-39.32276,-39.698677,0.015273105,0.58273643,9.749804,0.018337678,0.0071432316,0.00419606,-0.0596979521214962,-0.0015665027312934399,-2.589613676071167,1013.76,
2021.02.13 19:00:33,77.0,16.0,20.332153,-40.764534,-40.865005,-0.007020887,0.57840914,9.741273,0.0129738655,0.0051836567,0.003882213,-0.0593075156211853,7.207359885796905E-4,-2.65383243560791,1013.7602,
2021.02.13 19:00:33,77.0,16.0,20.750275,-40.640697,-40.318787,-0.021267334,0.58245045,9.740086,0.006214966,0.009944216,-0.007551058,-0.059728045016527176,0.0021834818180650473,-2.645314931869507,1013.7602,
2021.02.13 19:00:33,77.0,16.0,22.168793,-39.817932,-39.69954,-0.061078135,0.63782793,9.74364,0.0023286475,-9.900176E-4,-0.0024759076,-0.06536640971899033,0.006268430966883898,-2.6083109378814697,1013.76,
2021.02.13 19:00:33,77.0,16.0,21.876732,-40.59635,-40.761787,0.052544106,0.54522425,9.770469,0.004574532,1.8049532E-4,-0.014811263,-0.05574466288089752,-0.005377797409892082,-2.617971897125244,1013.75916,
2021.02.13 19:00:33,77.0,16.0,21.878761,-40.797707,-39.934784,-0.063554056,0.6214327,9.717015,-7.7758264E-4,0.003198824,9.288518E-4,-0.06386470794677734,0.006540398113429546,-2.6261441707611084,1013.75916,
2021.02.13 19:00:33,77.0,16.0,21.30465,-39.57203,-40.60694,-0.059588492,0.6226883,9.747423,0.007958279,0.0046103857,0.002199767,-0.06379447132349014,0.0061131794936954975,-2.6229896545410156,1013.75867,
2021.02.13 19:00:33,77.0,16.0,20.79638,-39.91626,-40.307,-0.02162831,0.59238154,9.751458,0.006238037,0.0046598446,0.00864948,-0.06067328527569771,0.0022179530933499336,-2.635897159576416,1013.75867,
2021.02.13 19:00:33,77.0,16.0,22.060028,-38.40673,-40.97223,-0.048530683,0.6139524,9.746903,0.004911407,0.003810536,0.003038668,-0.06290558725595474,0.004979046061635017,-2.5928471088409424,1013.75854,
2021.02.13 19:00:34,77.0,16.0,21.281136,-40.359608,-40.626923,-0.044695925,0.60926473,9.729342,0.0029505077,7.9096376E-4,0.0066380417,-0.06253904849290848,0.004593898542225361,-2.6318633556365967,1013.7582,
2021.02.13 19:00:34,77.0,16.0,20.738052,-40.889614,-40.820915,-0.015570779,0.6390299,9.772378,0.00294468,-9.467937E-4,0.011623681,-0.06529839336872101,0.001593344728462398,-2.644853353500366,1013.7579,
2021.02.13 19:00:34,77.0,16.0,20.703125,-41.72945,-40.668266,0.047303487,0.6071935,9.7902565,0.004429972,-0.0020307295,0.011813825,-0.061940133571624756,-0.004831652622669935,-2.651125431060791,1013.7577,
2021.02.13 19:00:34,77.0,16.0,22.163857,-38.936424,-38.915367,-0.011837285,0.66300577,9.753634,0.015101321,-0.004612204,-0.0016094786,-0.06787079572677612,0.0012136275181546807,-2.593226909637451,1013.7571,
2021.02.13 19:00:34,77.0,16.0,22.2258,-39.944046,-40.379135,0.0034278717,0.58522815,9.6958885,-0.0023193383,0.0016931739,-0.013534314,-0.060285232961177826,-3.5353866405785084E-4,-2.6055727005004883,1013.7571,
2021.02.13 19:00:34,77.0,16.0,22.283424,-39.751705,-40.211945,-0.035373203,0.6444023,9.714034,0.008112082,-0.005075797,-0.0077553904,-0.06623975932598114,0.003641437506303191,-2.6023993492126465,1013.7571,
2021.02.13 19:00:34,77.0,16.0,21.447662,-40.301975,-39.473984,0.07159772,0.5925011,9.76245,-0.006184451,-0.0020407757,-0.001542999,-0.06061585992574692,-0.007333859335631132,-2.620255470275879,1013.7571,
2021.02.13 19:00:34,77.0,16.0,22.468788,-39.957615,-39.828407,-0.024653466,0.64352286,9.739323,0.0018667916,-0.0034296294,-0.019040149,-0.06597859412431717,0.0025313273072242737,-2.6007134914398193,1013.75745,
2021.02.13 19:00:34,77.0,16.0,21.73217,-40.71696,-40.05932,-0.051571637,0.64016426,9.778581,-0.0045337207,-0.005509131,-0.002297523,-0.06537178158760071,0.005273889750242233,-2.626361131668091,1013.7577,
2021.02.13 19:00:34,77.0,16.0,22.672928,-39.515205,-41.08908,0.14135386,0.5738885,9.746472,0.0011398911,-0.009854729,0.0036635732,-0.058807581663131714,-0.01450206246227026,-2.5808768272399902,1013.7577,
2021.02.13 19:00:34,77.0,16.0,21.021416,-42.0175,-40.112457,-0.10247568,0.69181806,9.800884,0.00716207,4.258299E-4,-0.023356177,-0.07046657800674438,0.010455377399921417,-2.656397581100464,1013.7584,
2021.02.13 19:00:34,77.0,16.0,20.908806,-40.270638,-40.364838,0.06688162,0.55045974,9.73154,0.003146667,6.6589157E-4,-0.00869771,-0.05650296434760094,-0.006872557103633881,-2.6322667598724365,1013.7584,
2021.02.13 19:00:34,77.0,16.0,21.875061,-39.3563,-40.126022,-0.058690917,0.65220535,9.777293,2.163183E-4,-1.0923017E-4,0.00336207,-0.06660625338554382,0.0060027060098946095,-2.607628583908081,1013.7577,
2021.02.13 19:00:35,77.0,16.0,20.571396,-39.097065,-39.20452,0.07755784,0.56227356,9.7307415,0.003674648,0.0032968903,0.021027762,-0.057717204093933105,-0.007970224134624004,-2.6251955032348633,1013.75745,
2021.02.13 19:00:35,77.0,16.0,20.835342,-39.910915,-40.58323,0.049987536,0.6012438,9.904302,0.011632778,0.008696798,-0.007445869,-0.06063014641404152,-0.0050470102578401566,-2.6289820671081543,1013.7572,
2021.02.13 19:00:35,77.0,16.0,22.016785,-39.49136,-40.96319,-0.010816348,0.6244881,9.678529,0.049591675,-0.030687852,-0.028095663,-0.06443368643522263,0.0011175607796758413,-2.6029980182647705,1013.7572,
2021.02.13 19:00:35,77.0,16.0,22.527382,-39.93723,-40.724556,-0.08044914,0.75096625,9.681742,0.026596585,-0.043071702,-0.008791629,-0.07740754634141922,0.00830917526036501,-2.597254514694214,1013.7582,
2021.02.13 19:00:35,77.0,16.0,21.8126,-39.978424,-39.98272,0.16968589,0.6487515,9.935928,0.02440018,-0.03832961,0.03885371,-0.06519146263599396,-0.01707635074853897,-2.5991249084472656,1013.7582,
2021.02.13 19:00:35,77.0,16.0,21.997047,-40.27616,-40.2507,0.033539146,0.8464586,9.643913,0.0330922,-0.04107379,0.057952147,-0.08754640072584152,-0.0034777389373630285,-2.5977396965026855,1013.75867,
2021.02.13 19:00:35,77.0,16.0,21.620735,-40.663567,-40.353638,0.19951643,0.69299716,9.567824,-0.02436201,0.025025789,0.05504769,-0.07228804379701614,-0.02084983140230179,-2.604071617126465,1013.75867,
2021.02.13 19:00:35,77.0,16.0,21.614426,-38.601,-39.705933,0.17455284,0.8101468,9.757468,-0.0036642211,0.011647319,0.049535427,-0.0828251913189888,-0.01788724586367607,-2.5766685009002686,1013.7587,
