Time,X-cord,Y-cord,Mag_x,Mag_y,Mag_z,Acc_x,Acc_y,Acc_z,Gyro_x,Gyro_y,Gyro_z,Orn_x,Orn_y,Orn_z,Pressure,
2021.02.13 18:42:44,6.0,24.0,40.251648,-18.803986,-36.068863,0.055757314,0.4919742,9.669422,0.06317802,-0.09878441,0.010977662,-0.05083469673991203,-0.0057662902399897575,-1.9677096605300903,1013.6018,
2021.02.13 18:42:44,6.0,24.0,40.5708,-17.66684,-35.949615,0.019945627,0.5524463,9.901843,0.04351286,-0.11391472,0.021901686,-0.05573437362909317,-0.00201433221809566,-1.938171625137329,1013.60297,
2021.02.13 18:42:44,6.0,24.0,40.43396,-18.404137,-36.187904,-0.4232323,0.729312,9.657091,-0.01873426,-0.014987486,0.02556618,-0.07530578225851059,0.04379803687334061,-1.95073664188385,1013.6017,
2021.02.13 18:42:44,6.0,24.0,40.30127,-18.273468,-34.812477,-0.15067472,0.516941,9.754425,-0.00616272,-0.048022605,0.023188204,-0.052939701825380325,0.015445577912032604,-1.9614417552947998,1013.6017,
2021.02.13 18:42:44,6.0,24.0,40.400726,-17.35395,-35.63356,-0.027466908,0.4823644,9.865974,0.057518292,-0.0374997,-0.011468055,-0.048852626234292984,0.0027839962858706713,-1.939852237701416,1013.6014,
2021.02.13 18:42:44,6.0,24.0,40.8508,-18.2331,-35.941635,-0.115522146,0.531101,9.632003,0.019659689,-0.021359736,-0.009363262,-0.05507947877049446,0.011993000283837318,-1.9520117044448853,1013.6014,
2021.02.13 18:42:44,6.0,24.0,41.075943,-18.671913,-36.42063,-0.045512646,0.630625,9.755719,0.03837783,-0.024446059,0.009016359,-0.06455106288194656,0.004665193613618612,-1.9493855237960815,1013.6014,
2021.02.13 18:42:44,6.0,24.0,39.58354,-18.179844,-36.12271,-0.008796332,0.6261245,9.883358,0.042719983,0.015486813,-0.013493345,-0.063266821205616,8.900143438950181E-4,-1.9521056413650513,1013.6014,
2021.02.13 18:42:44,6.0,24.0,38.631218,-19.093563,-36.042633,-0.042028368,0.6925351,9.77546,0.07485997,0.022462582,-0.046455156,-0.07072543352842331,0.004299348220229149,-1.975631833076477,1013.6014,
2021.02.13 18:42:44,6.0,24.0,39.736237,-19.375824,-35.865402,-0.08461144,0.72887117,9.728103,0.07723349,0.016698254,-0.06074139,-0.07478173822164536,0.00869741104543209,-1.969691514968872,1013.6014,
2021.02.13 18:42:44,6.0,24.0,41.079697,-18.424503,-34.92321,-0.13842253,0.6886337,9.688283,0.038408972,-0.0016325234,-0.04724727,-0.07095246762037277,0.014286650344729424,-1.9434247016906738,1013.6014,
2021.02.13 18:42:44,6.0,24.0,40.09172,-17.928596,-35.25683,-0.14554448,0.7058409,9.642225,0.033132233,0.010824561,-0.041685764,-0.07306447625160217,0.015093345195055008,-1.9390637874603271,1013.6014,
2021.02.13 18:42:44,6.0,24.0,40.444565,-17.456764,-35.783134,-0.057654615,0.77031475,9.727021,-0.002894784,-0.0014565346,-0.0418369,-0.0790269672870636,0.005927193909883499,-1.9180030822753906,1013.6014,
2021.02.13 18:42:44,6.0,24.0,40.792267,-17.371819,-35.8452,0.21195632,0.65325683,9.854809,0.009862599,-0.0037149908,-0.048364986,-0.06617602705955505,-0.021504592150449753,-1.9176867008209229,1013.6014,
2021.02.13 18:42:45,6.0,24.0,39.567596,-17.342228,-35.684204,-0.21038151,0.7163237,9.711033,0.06094192,0.018506058,-0.12705225,-0.07361333817243576,0.021660784259438515,-1.9310095310211182,1013.6013,
2021.02.13 18:42:45,6.0,24.0,40.530396,-18.418316,-35.211754,-0.509762,0.8812856,9.665948,0.047439057,-0.016225686,-0.05833233,-0.09079738706350327,0.05268910899758339,-1.9403780698776245,1013.60095,
2021.02.13 18:42:45,6.0,24.0,40.415604,-17.71193,-35.90895,-0.21169145,0.7296117,9.750877,-0.033849414,-0.0025622696,0.05616903,-0.0746685341000557,0.021706581115722656,-1.9308713674545288,1013.60095,
2021.02.13 18:42:45,6.0,24.0,40.533157,-17.406353,-35.583923,0.119526304,0.66019297,9.828333,-0.009518769,0.028731901,0.019986376,-0.0670667216181755,-0.012160802260041237,-1.9221550226211548,1013.6014,
2021.02.13 18:42:45,6.0,24.0,40.089767,-17.947239,-35.233864,-0.107366204,0.76494485,9.678608,-0.003417344,0.048715413,-0.036701284,-0.07886581867933273,0.011092690750956535,-1.9338566064834595,1013.6014,
2021.02.13 18:42:45,6.0,24.0,40.823654,-16.730286,-35.497253,-0.31181464,0.73284894,9.551292,-0.056452587,0.00507803,0.0040310533,-0.07653707265853882,0.03263473883271217,-1.9072781801223755,1013.6014,
2021.02.13 18:42:45,6.0,24.0,40.677536,-16.736534,-35.950798,0.069133066,0.50941473,9.934593,-0.046821408,0.007015941,-0.041936997,-0.05123075097799301,-0.006958709564059973,-1.9196901321411133,1013.6014,
2021.02.13 18:42:45,6.0,24.0,39.600754,-17.087437,-36.367035,-0.24153852,0.7856841,9.356773,-0.11240889,-0.039341018,0.04993672,-0.08374526351690292,0.025808565318584442,-1.9160633087158203,1013.6014,
2021.02.13 18:42:45,6.0,24.0,40.473007,-18.039486,-35.38804,-0.13384853,0.71361643,9.479143,0.018796977,-0.039381597,0.049668904,-0.07513359189033508,0.01411938201636076,-1.936155915260315,1013.6014,
2021.02.13 18:42:45,6.0,24.0,40.34497,-18.247982,-35.95127,0.039313976,0.50622743,9.910153,-0.057627633,0.010370887,0.040847804,-0.051036931574344635,-0.00396701879799366,-1.9556269645690918,1013.6014,
2021.02.13 18:42:45,6.0,24.0,40.5567,-18.34019,-34.445045,-0.29342172,0.8191402,9.539874,5.7727424E-4,-0.0068696067,-0.020010417,-0.08561450242996216,0.030747706070542336,-1.9388155937194824,1013.6014,
2021.02.13 18:42:45,6.0,24.0,39.62097,-18.252335,-35.92508,-0.41646203,0.93847615,9.972118,-0.04782492,-0.007875606,0.050351597,-0.09375239908695221,0.04173838719725609,-1.938157558441162,1013.60156,
2021.02.13 18:42:45,6.0,24.0,39.38037,-17.544674,-36.507385,-0.018777369,0.7081874,9.752586,0.026923854,-0.012281701,0.11537666,-0.0724879801273346,0.001925370772369206,-1.9319697618484497,1013.6017,
2021.02.13 18:42:45,6.0,24.0,40.584244,-18.195763,-36.052795,0.2781627,0.5008199,9.705628,0.0042450977,-0.007966945,0.072372764,-0.05153413116931915,-0.028652092441916466,-1.9457982778549194,1013.602,
2021.02.13 18:42:46,6.0,24.0,39.98819,-18.697254,-36.426575,6.7228574E-4,0.6973667,9.832955,0.03492422,-0.0036096708,-0.026132066,-0.07080282270908356,-6.837066757725552E-5,-1.9529695510864258,1013.60205,
2021.02.13 18:42:46,6.0,24.0,40.75029,-18.400978,-35.584084,-0.09300569,0.64426535,9.633161,0.03922756,0.009899197,-0.0050340425,-0.06677740812301636,0.00965444277971983,-1.946973443031311,1013.60236,
2021.02.13 18:42:46,6.0,24.0,39.41951,-16.855259,-35.313095,-3.6681132E-4,0.5436823,9.757222,0.0034296648,0.0068154326,-0.007742332,-0.055663447827100754,3.759382525458932E-5,-1.9314032793045044,1013.60236,
2021.02.13 18:42:46,6.0,24.0,40.10219,-18.560165,-34.94226,-0.092903055,0.6646576,9.953431,-0.018680008,-0.007370729,-0.04503011,-0.0666748434305191,0.009333500638604164,-1.9568458795547485,1013.60266,
2021.02.13 18:42:46,6.0,24.0,40.515564,-18.250565,-35.618195,-0.274323,0.77651495,9.600336,0.07251367,0.03490237,-0.057513136,-0.08067566156387329,0.02856653742492199,-1.938928484916687,1013.60266,
2021.02.13 18:42:46,6.0,24.0,39.925507,-19.454418,-35.313423,0.03135534,0.58004516,9.527576,-0.0019488565,-0.0056561935,0.018269613,-0.06080528721213341,-0.0032909971196204424,-1.978214979171753,1013.6027,
2021.02.13 18:42:46,6.0,24.0,40.04431,-17.180779,-35.45263,-0.009129927,0.61333376,10.118901,-0.011845751,0.009877883,-0.032655526,-0.06053859367966652,9.02264378964901E-4,-1.9295135736465454,1013.60297,
2021.02.13 18:42:46,6.0,24.0,40.662796,-17.292973,-35.87754,-0.33352903,0.7616835,9.307263,-0.02655053,-0.022185924,0.016162068,-0.08160342276096344,0.035820018500089645,-1.9169692993164062,1013.60315,
2021.02.13 18:42:46,6.0,24.0,40.953262,-19.192505,-34.923088,-0.50792676,0.85794383,10.049637,0.056101426,-0.04866397,0.10890335,-0.08505608886480331,0.050498832017183304,-1.9585316181182861,1013.6032,
2021.02.13 18:42:46,6.0,24.0,40.755325,-18.237724,-35.79016,0.13542414,0.57055473,9.742308,-0.0018956091,-0.006586928,0.11820538,-0.058492183685302734,-0.01389972772449255,-1.9439258575439453,1013.6033,
2021.02.13 18:42:46,6.0,24.0,40.44113,-18.162544,-36.509506,0.20920242,0.699728,9.787649,0.002457725,0.00684504,0.032863606,-0.0713532492518425,-0.021370869129896164,-1.9321415424346924,1013.6033,
2021.02.13 18:42:46,6.0,24.0,40.332977,-19.261642,-35.92753,-0.08273254,0.8266981,9.697935,0.023180077,0.010543441,-0.020844659,-0.08503609150648117,0.008530737832188606,-1.9534862041473389,1013.60333,
2021.02.13 18:42:46,6.0,24.0,39.029915,-17.796104,-35.406815,-0.13617684,0.76890486,9.717744,0.0030810405,0.0072927275,-0.0015277959,-0.07895158231258392,0.014012298546731472,-1.9399147033691406,1013.6038,
2021.02.13 18:42:47,6.0,24.0,39.569885,-16.83376,-35.288406,-0.020787245,0.77167606,9.736531,-0.009906183,0.017095808,-0.0037367174,-0.07909024506807327,0.0021349710877984762,-1.9111509323120117,1013.604,
2021.02.13 18:42:47,6.0,24.0,40.02301,-18.668392,-36.056435,-0.029916292,0.74225694,9.751411,-0.0029444199,0.009422993,-0.018851524,-0.07597104460000992,0.0030678838957101107,-1.9492219686508179,1013.6047,
2021.02.13 18:42:47,6.0,24.0,40.29918,-18.230988,-36.553925,-0.12840705,0.75259,9.733117,-0.0015826507,0.0032395262,-0.03199956,-0.07716237008571625,0.01319203246384859,-1.9380871057510376,1013.60516,
2021.02.13 18:42:47,6.0,24.0,40.48976,-17.320557,-35.756783,-0.1409719,0.75536376,9.742688,-0.00710674,0.010348314,-0.02929968,-0.07736849039793015,0.014468498528003693,-1.9179350137710571,1013.6054,
2021.02.13 18:42:47,6.0,24.0,40.95279,-17.788925,-36.366676,-0.09167821,0.74386424,9.739278,-0.0068284227,0.0036158212,-0.026930839,-0.07622639834880829,0.009412966668605804,-1.9232995510101318,1013.6054,
2021.02.13 18:42:47,6.0,24.0,40.529663,-18.380821,-35.302597,-0.12174144,0.71173334,9.776158,-0.0075166067,-0.006985396,-0.02238681,-0.0726691260933876,0.012452247552573681,-1.944790005683899,1013.6054,
2021.02.13 18:42:47,6.0,24.0,40.01317,-18.100533,-35.45456,-0.22199018,0.78203726,9.695682,0.00481051,-0.0044150827,-0.023447808,-0.08046308159828186,0.022891780361533165,-1.938989520072937,1013.606,
2021.02.13 18:42:47,6.0,24.0,40.02498,-17.940495,-36.31585,-0.08678273,0.69442815,9.752221,-0.011187295,-0.0021565417,0.0019585616,-0.0710843876004219,0.008898530155420303,-1.9384386539459229,1013.606,
2021.02.13 18:42:47,6.0,24.0,38.897644,-18.824333,-35.87168,-0.1406299,0.7189603,9.719735,-0.009487859,-1.49647E-4,-0.012952209,-0.07382696121931076,0.014467481523752213,-1.9677283763885498,1013.606,
2021.02.13 18:42:47,6.0,24.0,40.716415,-17.92101,-34.890892,-0.15381365,0.73200494,9.783792,-0.018766074,-0.0053012413,-0.0072954376,-0.07466979324817657,0.015719978138804436,-1.9330480098724365,1013.6062,
2021.02.13 18:42:47,6.0,24.0,39.53601,-18.16602,-35.445854,-0.11254489,0.70655996,9.735736,-0.002236429,-0.005014102,-0.0014879864,-0.07244203239679337,0.01155946310609579,-1.9484456777572632,1013.6067,
2021.02.13 18:42:47,6.0,24.0,41.054672,-17.668732,-35.74478,-0.11343333,0.67842054,9.726827,-0.0059744213,0.002802608,-0.0023863867,-0.06962987780570984,0.011661375872790813,-1.9267103672027588,1013.6067,
2021.02.13 18:42:47,6.0,24.0,39.528732,-17.742802,-34.407654,-0.1753134,0.74518347,9.793431,-0.011100683,-7.794368E-4,-0.00681191,-0.07593166828155518,0.01789920963346958,-1.9394078254699707,1013.6072,
2021.02.13 18:42:47,6.0,24.0,40.552322,-18.345104,-35.154778,-0.103749335,0.6717291,9.685488,0.007531549,0.002696983,0.007458791,-0.06923934817314148,0.010711424052715302,-1.9463512897491455,1013.60736,
2021.02.13 18:42:47,6.0,24.0,39.868286,-17.939236,-36.47088,-0.09860852,0.69305855,9.764266,-0.014964395,-0.0011540429,-0.0010878573,-0.07085663825273514,0.010098574683070183,-1.9400039911270142,1013.60736,
2021.02.13 18:42:48,6.0,24.0,39.807632,-18.256008,-35.007774,-0.102757275,0.6995812,9.776759,0.0025758285,0.0010272168,-0.0060203196,-0.07142984867095947,0.010509975254535675,-1.9492518901824951,1013.60767,
2021.02.13 18:42:48,6.0,24.0,40.071533,-18.477726,-36.103516,-0.114556335,0.69739276,9.723263,-0.0045909854,-0.0040319175,6.1135297E-4,-0.07159658521413803,0.01178113091737032,-1.9503618478775024,1013.60767,
2021.02.13 18:42:48,6.0,24.0,41.188263,-18.218102,-35.94281,-0.07771755,0.66577625,9.717312,-9.407655E-4,-7.562052E-4,-0.0068979347,-0.06840536743402481,0.007997674867510796,-1.9372397661209106,1013.60767,
2021.02.13 18:42:48,6.0,24.0,39.794968,-18.297527,-36.0875,-0.11839921,0.69559485,9.774022,-0.007188539,-0.001189809,-0.012506212,-0.0710427314043045,0.012113070115447044,-1.94941246509552,1013.60767,
2021.02.13 18:42:48,6.0,24.0,40.47876,-18.488403,-34.96176,-0.07814471,0.6695134,9.729335,-0.0012635419,-0.0085684,-0.006289477,-0.06870337575674057,0.008031693287193775,-1.9500964879989624,1013.60767,
2021.02.13 18:42:48,6.0,24.0,40.277847,-17.593811,-36.017372,-0.08245341,0.6605704,9.743358,-0.003983517,-0.0062476518,-0.011255848,-0.06769099086523056,0.008462322875857353,-1.931868076324463,1013.60767,
2021.02.13 18:42:48,6.0,24.0,39.295013,-17.233799,-36.030632,-0.09391435,0.6601817,9.74756,-0.0063480614,-0.0054643634,-0.013039711,-0.06762149184942245,0.009634355083107948,-1.932480812072754,1013.60767,
2021.02.13 18:42:48,6.0,24.0,39.875763,-18.036789,-35.76635,-0.09472916,0.66171414,9.715133,-0.0029355914,-0.004938613,-0.012974235,-0.06800343096256256,0.009750372730195522,-1.9453644752502441,1013.6073,
2021.02.13 18:42:48,6.0,24.0,40.928345,-17.506653,-34.307198,-0.054396868,0.6314778,9.784179,-0.005570583,-1.2725871E-4,-0.020433499,-0.06445031613111496,0.005559619050472975,-1.9289156198501587,1013.6073,
2021.02.13 18:42:48,6.0,24.0,40.217285,-17.490936,-35.336487,-0.121096015,0.6436908,9.749393,-0.0055839047,-3.6485808E-4,-0.011620157,-0.06592292338609695,0.012420238927006721,-1.9334557056427002,1013.6072,
2021.02.13 18:42:48,6.0,24.0,41.039597,-16.41111,-35.78978,-0.10238773,0.65406424,9.805445,-0.004638493,0.0013379575,-0.0065401513,-0.06660189479589462,0.010441546328365803,-1.9015909433364868,1013.6072,
2021.02.13 18:42:48,6.0,24.0,41.561157,-17.397247,-35.52674,-0.117949426,0.631089,9.737601,0.0044540376,0.0021278453,-0.0029300582,-0.06471423804759979,0.012112189084291458,-1.9211854934692383,1013.6072,
2021.02.13 18:42:48,6.0,24.0,40.152832,-16.61721,-35.735268,-0.1165722,0.63614434,9.749035,5.425485E-4,0.004571669,-0.002108627,-0.0651550143957138,0.011956737376749516,-1.9146572351455688,1013.6072,
2021.02.13 18:42:49,6.0,24.0,39.897675,-17.982529,-35.624084,-0.116022356,0.6273039,9.78785,0.004097298,0.0035387452,0.006763815,-0.0639980360865593,0.011853155680000782,-1.9479844570159912,1013.6072,
2021.02.13 18:42:49,6.0,24.0,40.395264,-17.683342,-34.756805,-0.118190765,0.6587096,9.69987,0.01403825,0.0039963187,0.0072033107,-0.06779998540878296,0.012184174731373787,-1.9354007244110107,1013.6072,
2021.02.13 18:42:49,6.0,24.0,40.65268,-18.012573,-35.000114,-0.06147805,0.61206275,9.795842,0.011602687,0.003255397,0.0012835091,-0.062399547547101974,0.006275850348174572,-1.9428778886795044,1013.6072,
2021.02.13 18:42:49,6.0,24.0,39.712265,-18.154415,-36.553055,-0.11134086,0.6763231,9.707514,0.0026766867,0.0017104977,0.0069077266,-0.06955310702323914,0.011469051241874695,-1.947402834892273,1013.6072,
2021.02.13 18:42:49,6.0,24.0,40.138046,-18.328926,-36.384354,-0.12305995,0.676326,9.765689,0.007738732,0.0040357183,-0.004401508,-0.06913944333791733,0.012600589543581009,-1.9483931064605713,1013.6072,
2021.02.13 18:42:49,6.0,24.0,40.632874,-17.284744,-36.500328,-0.07031586,0.6515624,9.714296,0.007031611,0.0032311159,-5.732655E-4,-0.06697046756744385,0.007238263264298439,-1.9218546152114868,1013.6072,
2021.02.13 18:42:49,6.0,24.0,40.47403,-17.446259,-36.48194,-0.055863023,0.6623911,9.787689,0.002885106,0.010059282,-0.016064253,-0.06757181137800217,0.005707416217774153,-1.9258207082748413,1013.60693,
2021.02.13 18:42:49,6.0,24.0,39.558533,-18.120697,-35.923134,-0.13481756,0.6779426,9.728543,0.015153699,0.012159525,-0.026144885,-0.06956679373979568,0.013857051730155945,-1.9495174884796143,1013.60675,
2021.02.13 18:42:49,6.0,24.0,39.836624,-18.17485,-34.986305,-0.12086629,0.68394965,9.732062,0.0027277195,0.010319175,-0.020468606,-0.07015722990036011,0.012418752536177635,-1.9487508535385132,1013.60657,
2021.02.13 18:42:49,6.0,24.0,39.28473,-16.554802,-35.06427,-0.07969984,0.69802254,9.76628,0.0066742264,0.011315062,-0.024866924,-0.07134901732206345,0.00816053431481123,-1.9152439832687378,1013.6065,
2021.02.13 18:42:49,6.0,24.0,41.295776,-17.501873,-34.840958,-0.11188533,0.6684833,9.703536,0.01006573,0.014227706,-0.037743837,-0.06877746433019638,0.011529856361448765,-1.9231044054031372,1013.60626,
2021.02.13 18:42:49,6.0,24.0,41.72635,-16.945694,-35.686867,-0.1483432,0.7213189,9.738988,-0.0037465708,0.011758978,-0.052158244,-0.07392153888940811,0.015230713412165642,-1.9032431840896606,1013.6062,
2021.02.13 18:42:49,6.0,24.0,40.516357,-16.905357,-34.616203,-0.08688867,0.7146432,9.76868,-0.0061153024,-0.001275106,-0.046719465,-0.07302360981702805,0.008894383907318115,-1.912693977355957,1013.606,
2021.02.13 18:42:49,6.0,24.0,39.21341,-16.806976,-35.016853,-0.09823883,0.6429993,9.699022,0.0023780377,0.0019783673,-0.06669965,-0.06619501858949661,0.010128389112651348,-1.9263250827789307,1013.6059,
2021.02.13 18:42:50,6.0,24.0,39.77063,-16.77293,-36.243782,-0.26270613,0.71293896,9.760226,-0.006487524,-0.0022930363,-0.08156716,-0.0728895291686058,0.026909491047263145,-1.9175108671188354,1013.6059,
2021.02.13 18:42:50,6.0,24.0,41.018066,-17.12326,-35.50634,-0.25506565,0.68013257,9.792674,-0.0070992466,-0.009114576,-0.05386463,-0.06931840628385544,0.026040690019726753,-1.919023036956787,1013.6059,
2021.02.13 18:42:50,6.0,24.0,39.73195,-18.088318,-35.252853,-0.20149648,0.6587479,9.694848,-8.092241E-4,-0.011251059,-0.041205075,-0.06782935559749603,0.020780880004167557,-1.9514265060424805,1013.6057,
2021.02.13 18:42:50,6.0,24.0,40.480194,-16.354149,-35.49788,-0.27123418,0.6763072,9.831985,-0.0073192287,-0.0072939247,-0.035265464,-0.0686522126197815,0.02757992409169674,-1.9071285724639893,1013.60547,
2021.02.13 18:42:50,6.0,24.0,39.99356,-16.49178,-35.33822,-0.23800081,0.6704359,9.631387,-0.013232577,-0.005042113,0.008876787,-0.06947623938322067,0.024705931544303894,-1.9129964113235474,1013.60547,
2021.02.13 18:42:50,6.0,24.0,41.242584,-17.758877,-35.74196,-0.120889366,0.6131496,9.769471,-0.001764863,-0.0050644497,0.0041899174,-0.06267479807138443,0.012373565696179867,-1.9328855276107788,1013.60547,
2021.02.13 18:42:50,6.0,24.0,39.76071,-17.884499,-35.87889,-0.13640504,0.6355359,9.712689,-0.006952646,-0.0055648577,0.03474405,-0.06533399224281311,0.014043079689145088,-1.9461638927459717,1013.60547,
2021.02.13 18:42:50,6.0,24.0,40.404266,-15.921264,-34.897705,-0.043287218,0.64493734,9.764483,-0.009529427,-0.010167779,0.0251733,-0.0659528598189354,0.004433100577443838,-1.8960877656936646,1013.60547,
2021.02.13 18:42:50,6.0,24.0,39.194183,-15.572398,-36.16378,-0.21175145,0.67929506,9.753249,9.704088E-4,-0.0010291209,0.013144541,-0.06951946020126343,0.021707452833652496,-1.8963909149169922,1013.60547,
2021.02.13 18:42:50,6.0,24.0,40.7713,-17.110401,-36.29368,-0.043945312,0.6389317,9.772604,0.005064206,0.003877175,0.011602173,-0.0652863010764122,0.004496756009757519,-1.917995810508728,1013.60547,
2021.02.13 18:42:50,6.0,24.0,41.417603,-16.395042,-35.24215,-0.07547764,0.6093315,9.69099,-0.012867996,0.0055445977,0.0065566264,-0.06279151886701584,0.007788275834172964,-1.901644229888916,1013.60547,
2021.02.13 18:42:50,6.0,24.0,41.146713,-17.624104,-35.355003,-0.09974271,0.6234128,9.710397,-0.0018115358,0.0017688127,0.009345905,-0.0641091838479042,0.01027138251811266,-1.9296290874481201,1013.60547,
2021.02.13 18:42:50,6.0,24.0,40.59529,-15.9023485,-35.694504,-0.06918063,0.57810813,9.467864,-0.04148539,0.015487517,-0.011057186,-0.06098269671201706,0.007306758780032396,-1.8977793455123901,1013.60547,
2021.02.13 18:42:51,6.0,24.0,40.22885,-15.364821,-34.708847,-0.030607173,0.5002777,9.973451,-0.16284427,-0.007452674,-0.031434085,-0.05011869966983795,0.0030688552651554346,-1.897618293762207,1013.60565,
2021.02.13 18:42:51,6.0,24.0,40.661713,-14.912782,-35.00486,-0.29050067,0.630668,9.982131,-0.032691117,-0.010872992,-0.015667371,-0.06306920200586319,0.02909385785460472,-1.878732442855835,1013.6057,
2021.02.13 18:42:51,6.0,24.0,40.577194,-15.177621,-36.187332,-0.12094901,0.49187505,9.66982,0.040032282,-0.027061349,0.040509544,-0.050819262862205505,0.012507233768701553,-1.8907593488693237,1013.6059,
2021.02.13 18:42:51,6.0,24.0,39.973618,-17.8703,-35.47113,-0.05004163,0.49320367,9.795312,0.009851432,-0.029310921,0.040106066,-0.050307855010032654,0.0051086884923279285,-1.9542665481567383,1013.6059,
2021.02.13 18:42:51,6.0,24.0,40.14676,-16.382961,-35.835876,-0.08260729,0.5399115,9.765518,0.025257124,-0.041439526,0.046159353,-0.055229343473911285,0.00845887791365385,-1.9167503118515015,1013.6059,
2021.02.13 18:42:51,6.0,24.0,40.139572,-16.19233,-35.56594,-0.093164206,0.577482,9.915539,0.10304818,-0.10690712,0.06976163,-0.058171823620796204,0.00939550157636404,-1.910691738128662,1013.6059,
2021.02.13 18:42:51,6.0,24.0,40.09726,-16.318268,-35.306335,-0.054482,0.5101864,10.38928,-0.11295365,0.085736476,-0.0033730278,-0.04906690493226051,0.0052440110594034195,-1.9205266237258911,1013.606,
