Time,X-cord,Y-cord,Mag_x,Mag_y,Mag_z,Acc_x,Acc_y,Acc_z,Gyro_x,Gyro_y,Gyro_z,Orn_x,Orn_y,Orn_z,Pressure,
2021.02.13 18:56:05,63.0,24.0,42.60147,-5.4317503,-33.244293,0.21013363,0.5321215,9.888757,0.048631288,-0.021428231,-0.07939369,-0.053746797144412994,-0.02124655432999134,-1.6557456254959106,1013.7739,
2021.02.13 18:56:05,63.0,24.0,41.46855,-5.8628244,-33.52469,-0.20556699,0.72084236,9.81813,-0.07619129,0.033729143,0.014729889,-0.07327201217412949,0.02093443088233471,-1.6523141860961914,1013.7739,
2021.02.13 18:56:05,63.0,24.0,42.53586,-6.401703,-33.611015,-0.05604051,0.76027256,10.166532,-0.043726534,0.035785608,0.07479933,-0.07464183866977692,0.005512198433279991,-1.6616898775100708,1013.7742,
2021.02.13 18:56:05,63.0,24.0,42.72249,-6.227602,-31.54162,0.16029017,0.60272604,9.565306,0.042284343,-0.009171278,0.10839931,-0.06291968375444412,-0.016755884513258934,-1.6693840026855469,1013.77466,
2021.02.13 18:56:05,63.0,24.0,42.462097,-5.1305,-32.121742,0.116771705,0.6797463,9.756591,-0.032940358,-0.008202045,0.07074772,-0.06955311447381973,-0.011967923492193222,-1.6388741731643677,1013.77466,
2021.02.13 18:56:05,63.0,24.0,42.55443,-7.1366196,-32.62805,0.09350263,0.62138164,9.961158,-0.0258292,-0.008005174,0.025815891,-0.062296997755765915,-0.009386448189616203,-1.6896123886108398,1013.7742,
2021.02.13 18:56:06,63.0,24.0,43.053726,-6.186801,-32.40567,-0.11756278,0.73333484,9.527587,-0.010624456,-0.0275685,-0.018185876,-0.07681234925985336,0.012338572181761265,-1.6559643745422363,1013.774,
2021.02.13 18:56:06,63.0,24.0,43.000565,-5.8113155,-32.65432,-0.056011204,0.7527748,9.869054,-0.034809068,-0.014273818,0.0023119228,-0.07612764090299606,0.005675377324223518,-1.6475459337234497,1013.774,
2021.02.13 18:56:06,63.0,24.0,42.618835,-5.774476,-33.613,0.009480285,0.5362862,9.748187,0.00616607,-0.021283424,-6.6045905E-6,-0.0549585185945034,-9.725175332278013E-4,-1.6624847650527954,1013.774,
2021.02.13 18:56:06,63.0,24.0,42.448822,-6.029294,-32.07808,-0.26119265,0.6927511,9.659485,0.0057311943,-0.012427401,-0.03824869,-0.07156854122877121,0.027033431455492973,-1.6581165790557861,1013.774,
2021.02.13 18:56:06,63.0,24.0,41.23593,-5.3589916,-32.362915,-0.18901366,0.7840547,9.833079,-0.015983142,-0.0042584324,0.008023254,-0.07955345511436462,0.019219856709241867,-1.6373786926269531,1013.774,
2021.02.13 18:56:06,63.0,24.0,42.10672,-5.817793,-33.9906,-0.0133923665,0.60538363,9.74121,-0.0024193905,0.0019547227,0.034622107,-0.06206677481532097,0.001374814542941749,-1.658414363861084,1013.774,
2021.02.13 18:56:06,63.0,24.0,41.605423,-5.9560423,-32.269066,-0.12351633,0.6676152,9.719907,0.009015234,0.020244762,0.0071849665,-0.06857211887836456,0.012706879526376724,-1.6602580547332764,1013.774,
2021.02.13 18:56:06,63.0,24.0,42.34973,-5.995475,-33.51506,-0.08402682,0.6900123,9.855942,-0.011566768,0.0099676885,0.032815207,-0.06989319622516632,0.008525293320417404,-1.6565325260162354,1013.774,
2021.02.13 18:56:06,63.0,24.0,42.897095,-6.389387,-33.337395,-0.11700351,0.7285481,9.727198,0.01996364,-0.0066282125,0.026436249,-0.07475307583808899,0.01202791091054678,-1.6609995365142822,1013.774,
2021.02.13 18:56:06,63.0,24.0,42.953354,-6.7040586,-32.48558,0.0037284195,0.71375084,9.746513,0.015419444,5.4549193E-5,0.04353408,-0.07310090959072113,-3.825387975666672E-4,-1.6708835363388062,1013.7742,
2021.02.13 18:56:06,63.0,24.0,42.834457,-6.5269756,-33.378357,0.015623122,0.69541866,9.692349,0.021331469,0.00404286,0.030962152,-0.07162640243768692,-0.0016119010979309678,-1.666715383529663,1013.7742,
2021.02.13 18:56:06,63.0,24.0,44.00087,-5.0149374,-32.92849,-0.06292469,0.72760487,9.718441,4.5035942E-4,-0.0027443864,0.01731177,-0.07472749054431915,0.006474681664258242,-1.6283153295516968,1013.77466,
2021.02.13 18:56:06,63.0,24.0,41.461014,-6.445448,-32.32052,-0.05910602,0.77905554,9.622784,-0.008214298,-7.2569575E-4,0.022327077,-0.08078176528215408,0.006142222322523594,-1.6625328063964844,1013.7747,
2021.02.13 18:56:06,63.0,24.0,41.14322,-7.299959,-33.193794,0.07953218,0.69782656,9.803123,-0.03375341,-4.262881E-4,0.03296672,-0.07106190174818039,-0.008112764917314053,-1.6897287368774414,1013.7747,
2021.02.13 18:56:06,63.0,24.0,44.346848,-6.086546,-31.691088,0.07981237,0.7344472,9.7595825,-0.022790413,-0.0054462114,0.0072716726,-0.07510987669229507,-0.008177664130926132,-1.6539722681045532,1013.7747,
2021.02.13 18:56:07,63.0,24.0,42.42917,-6.28508,-32.983826,-0.036072128,0.8332265,9.69521,-0.0071924618,-0.008512046,-0.014675164,-0.08573082089424133,0.0037205961998552084,-1.651559591293335,1013.7747,
2021.02.13 18:56:07,63.0,24.0,42.67137,-7.328205,-33.44069,0.0031044323,0.7373828,9.999237,-0.008741242,-0.010064316,0.0033499056,-0.07361066341400146,-3.1046688673086464E-4,-1.6839419603347778,1013.7747,
2021.02.13 18:56:07,63.0,24.0,41.45961,-7.1449623,-32.4522,-0.061617445,0.7523207,9.610298,0.014788334,-0.016862465,0.01681603,-0.07812183350324631,0.006411517970263958,-1.6811283826828003,1013.7747,
2021.02.13 18:56:07,63.0,24.0,41.253693,-6.367998,-32.90042,0.046385225,0.7421756,9.766732,0.008873202,-0.01607772,0.0034737864,-0.07584353536367416,-0.004749272484332323,-1.6640225648880005,1013.7747,
2021.02.13 18:56:07,63.0,24.0,42.76512,-4.8792543,-33.188904,0.041464236,0.7591905,9.710575,0.02982953,-0.0029407437,-6.277498E-5,-0.07802240550518036,-0.004269982222467661,-1.624159812927246,1013.7752,
2021.02.13 18:56:07,63.0,24.0,42.268326,-6.464942,-32.928047,0.10820901,0.69546723,9.717202,0.014131615,3.9933482E-5,0.0042122984,-0.07144448906183243,-0.011135359294712543,-1.6674084663391113,1013.7752,
2021.02.13 18:56:07,63.0,24.0,42.122986,-6.8758144,-33.338776,0.0246182,0.7749336,9.784343,0.021543121,-0.0025703046,-0.0030298838,-0.0790361687541008,-0.0025160759687423706,-1.6706955432891846,1013.7752,
2021.02.13 18:56:07,63.0,24.0,42.065445,-6.960409,-32.60315,0.0065069143,0.742852,9.676835,8.192905E-4,0.0029339932,8.148658E-4,-0.07661572843790054,-6.724216509610415E-4,-1.6760594844818115,1013.7752,
2021.02.13 18:56:07,63.0,24.0,42.64673,-6.5351353,-33.7246,0.06469866,0.76529026,9.736866,0.007707281,7.8521436E-4,0.001864745,-0.07843421399593353,-0.006644613109529018,-1.661400556564331,1013.7752,
2021.02.13 18:56:07,63.0,24.0,42.75853,-5.9288454,-34.827065,0.080838,0.75441307,9.735438,0.0012953102,-8.4439886E-4,-0.008255122,-0.07733422517776489,-0.00830328743904829,-1.64610755443573,1013.7752,
2021.02.13 18:56:07,63.0,24.0,41.93152,-6.6577597,-33.53025,0.07072961,0.7575693,9.705254,-0.0024379238,-0.009972763,-0.013202397,-0.07789763808250427,-0.007287636399269104,-1.6665818691253662,1013.7752,
2021.02.13 18:56:07,63.0,24.0,41.420547,-6.4680967,-33.07879,-0.019071179,0.7679887,9.755469,-0.004395431,-0.0037996816,-0.024134532,-0.07856173068284988,0.0019549191929399967,-1.6635212898254395,1013.7752,
2021.02.13 18:56:07,63.0,24.0,41.17688,-6.7791624,-33.172073,-0.058967844,0.7987302,9.744461,-0.008843032,-0.01146917,-0.0026917078,-0.08178327977657318,0.006051348056644201,-1.6687432527542114,1013.7752,
2021.02.13 18:56:08,63.0,24.0,42.035645,-6.552617,-32.816902,-0.019359812,0.8188892,9.769415,0.009264784,-2.3154903E-4,0.02552135,-0.08362607657909393,0.001981673063710332,-1.6606553792953491,1013.7752,
2021.02.13 18:56:08,63.0,24.0,42.520065,-6.2210684,-32.82551,0.113981135,0.74046975,9.676502,-0.0052522663,0.0077986126,0.008812648,-0.07636833935976028,-0.01177862286567688,-1.6576772928237915,1013.7752,
2021.02.13 18:56:08,63.0,24.0,41.757538,-6.2842636,-34.08027,0.029761463,0.7918226,9.710658,-0.0017018553,0.006592927,-0.0012165648,-0.08136121183633804,-0.003064814954996109,-1.6543089151382446,1013.7752,
2021.02.13 18:56:08,63.0,24.0,42.374893,-6.3779078,-32.39557,0.069708295,0.7869592,9.816236,-0.015532726,0.006629464,0.008591431,-0.07999604195356369,-0.007101207505911589,-1.6595885753631592,1013.7752,
2021.02.13 18:56:08,63.0,24.0,42.201553,-5.073703,-33.3042,0.124409415,0.69389397,9.823686,0.007775683,0.012245468,0.0028734903,-0.07051202654838562,-0.012663553468883038,-1.6352900266647339,1013.7752,
2021.02.13 18:56:08,63.0,24.0,42.15747,-6.857353,-33.077324,-0.08977336,0.7722781,9.509038,0.04160424,0.010646218,-0.020889603,-0.08103369921445847,0.00944056548178196,-1.6690682172775269,1013.77466,
2021.02.13 18:56:08,63.0,24.0,42.443848,-7.443177,-32.126472,0.04295295,0.8017349,9.913311,-0.03169074,0.009953863,0.029934553,-0.08069819211959839,-0.004332829266786575,-1.6840662956237793,1013.77454,
2021.02.13 18:56:08,63.0,24.0,42.05922,-5.2757215,-31.815424,0.0574715,0.7560001,9.679585,0.025359623,0.0056008976,0.01054253,-0.07794293016195297,-0.00593732250854373,-1.6370209455490112,1013.774,
2021.02.13 18:56:08,63.0,24.0,42.723328,-7.187167,-33.305862,0.05391312,0.7625578,9.735501,8.0066826E-4,0.0039652167,0.011350512,-0.07816673815250397,-0.005537729244679213,-1.6772044897079468,1013.774,
2021.02.13 18:56:08,63.0,24.0,41.963913,-5.934162,-33.440735,0.054450076,0.765601,9.768009,2.008786E-4,0.002680393,-1.2851576E-4,-0.0782172903418541,-0.0055742692202329636,-1.6494330167770386,1013.774,
2021.02.13 18:56:08,63.0,24.0,40.771484,-6.9010277,-33.630516,-0.019452559,0.8034828,9.712112,0.0060042944,0.0014968895,-0.005142819,-0.08254183083772659,0.0020029146689921618,-1.6711369752883911,1013.774,
2021.02.13 18:56:08,63.0,24.0,42.779007,-5.4621773,-33.899452,0.058952183,0.7351554,9.717002,-0.004658879,0.0010347988,0.006647028,-0.07551136612892151,-0.006066835951060057,-1.638366937637329,1013.774,
2021.02.13 18:56:08,63.0,24.0,42.25467,-6.5829086,-33.09333,0.013435113,0.7708759,9.809752,-0.0077093383,0.015230404,-0.007722415,-0.07842136919498444,-0.0013695660745725036,-1.6644846200942993,1013.774,
2021.02.13 18:56:08,63.0,24.0,41.023468,-7.2584457,-33.582848,-0.04934143,0.786737,9.635667,0.009408977,-3.236829E-4,-0.003921502,-0.08146665245294571,0.005120662972331047,-1.6801345348358154,1013.7731,
2021.02.13 18:56:09,63.0,24.0,41.197968,-7.12309,-32.594017,0.086538374,0.70786506,9.785678,-0.019071873,-0.0029693237,0.01154195,-0.07220825552940369,-0.008843139745295048,-1.6854994297027588,1013.77295,
2021.02.13 18:56:09,63.0,24.0,41.008377,-6.205558,-33.04061,0.03640997,0.74844265,9.753055,-0.0048490856,-0.0049316776,-0.006939574,-0.07658866792917252,-0.0037331690546125174,-1.6598117351531982,1013.7726,
2021.02.13 18:56:09,63.0,24.0,43.77118,-5.437849,-33.196053,-0.010684193,0.7607987,9.729833,-0.0028580225,-8.525903E-4,-0.012302711,-0.07803355157375336,0.0010980855440720916,-1.6354095935821533,1013.7726,
2021.02.13 18:56:09,63.0,24.0,43.856094,-5.6638584,-32.767662,0.037299164,0.7371381,9.774914,0.0017146234,0.0022751137,-0.01803977,-0.07526819407939911,-0.003815786447376013,-1.6433457136154175,1013.7726,
2021.02.13 18:56:09,63.0,24.0,41.701263,-6.3151703,-33.85367,0.016842576,0.7650754,9.8405905,-0.012485193,2.9747724E-4,-0.019200614,-0.0775906965136528,-0.0017115394584834576,-1.6586369276046753,1013.7726,
2021.02.13 18:56:09,63.0,24.0,41.53595,-6.6506004,-33.07074,0.041329924,0.73694855,9.690696,0.013375213,-0.0062502306,-0.020656262,-0.07590024173259735,-0.004264881834387779,-1.669742226600647,1013.7726,
2021.02.13 18:56:09,63.0,24.0,41.678757,-6.4889135,-32.952583,0.036662538,0.6915658,9.7662735,-0.006020231,-0.004031276,-0.02958501,-0.07069313526153564,-0.00375397689640522,-1.669895887374878,1013.7726,
2021.02.13 18:56:09,63.0,24.0,42.27487,-6.7343845,-32.121628,-0.011164109,0.74536365,9.721797,0.004257271,-0.009322928,-0.034798108,-0.07651958614587784,0.0011483581038191915,-1.6712065935134888,1013.7726,
2021.02.13 18:56:09,63.0,24.0,42.74054,-5.8193874,-32.889442,-0.003107461,0.73330307,9.755687,-6.3206535E-5,-0.008765255,-0.024118839,-0.07502563297748566,3.1852812389843166E-4,-1.6487274169921875,1013.7726,
2021.02.13 18:56:09,63.0,24.0,41.51042,-6.2059145,-33.039635,0.038395967,0.6994231,9.751976,3.00874E-4,-0.008731228,-0.019516364,-0.07159800827503204,-0.003937229514122009,-1.6627113819122314,1013.7726,
2021.02.13 18:56:09,63.0,24.0,41.715927,-5.5730743,-32.112984,0.010818027,0.6963518,9.737228,-0.0016831814,-0.0057576643,-0.022547679,-0.07139278948307037,-0.0011109960032626987,-1.6489927768707275,1013.7726,
2021.02.13 18:56:09,63.0,24.0,41.81517,-7.1767063,-33.581177,-0.05439003,0.76216173,9.757564,0.0021328868,-0.008139294,-0.013144898,-0.0779503583908081,0.005574082490056753,-1.67899751663208,1013.7726,
2021.02.13 18:56:09,63.0,24.0,41.6427,-5.5067587,-32.5932,0.03415184,0.71360177,9.779239,0.003977276,-0.0020632036,0.00533754,-0.07284154742956161,-0.0034922657068818808,-1.6456321477890015,1013.7726,
2021.02.13 18:56:09,63.0,24.0,40.476883,-6.758108,-32.479774,0.061552346,0.7198394,9.718299,0.01680283,3.4095277E-4,0.0073312726,-0.07393401861190796,-0.006333569530397654,-1.677548885345459,1013.7726,
2021.02.13 18:56:10,63.0,24.0,42.91086,-5.9564695,-33.83773,0.04728112,0.74430543,9.7384815,0.0070786243,-2.651225E-4,0.007539318,-0.07628011703491211,-0.004855042789131403,-1.6490215063095093,1013.7726,
2021.02.13 18:56:10,63.0,24.0,42.229065,-6.0314674,-33.50923,0.087733425,0.75133675,9.733991,0.0066845287,-0.005957859,0.014035512,-0.07703106850385666,-0.009012855589389801,-1.6520730257034302,1013.7726,
2021.02.13 18:56:10,63.0,24.0,41.794235,-6.8718605,-33.986214,0.10547718,0.7601824,9.708533,0.008221371,-9.7531907E-4,0.004565201,-0.07813641428947449,-0.010863950476050377,-1.6708767414093018,1013.7726,
2021.02.13 18:56:10,63.0,24.0,43.074814,-5.537776,-33.12628,0.10612402,0.75410366,9.734584,0.0018438984,-4.2962178E-4,8.530577E-5,-0.07730747014284134,-0.010901319794356823,-1.6397418975830078,1013.7726,
2021.02.13 18:56:10,63.0,24.0,41.25038,-6.3230743,-32.821228,0.06330606,0.7497535,9.733579,-0.0020998663,9.425486E-4,-0.012541714,-0.07687409967184067,-0.006503792013972998,-1.6622952222824097,1013.77295,
2021.02.13 18:56:10,63.0,24.0,42.13977,-5.502164,-32.995445,0.06390772,0.79408187,9.727848,-0.009626927,-0.004177841,-0.008980077,-0.08144741505384445,-0.0065694693475961685,-1.6373262405395508,1013.7738,
2021.02.13 18:56:10,63.0,24.0,42.094177,-5.496646,-33.571045,0.09169931,0.7560484,9.725994,-0.008775643,-0.0010826344,-0.029665083,-0.07757537066936493,-0.009427991695702076,-1.6392905712127686,1013.77454,
2021.02.13 18:56:10,63.0,24.0,41.83275,-6.412202,-33.63556,0.08554154,0.7907362,9.779793,-0.017923128,-0.0083885975,-0.028176589,-0.08067549765110016,-0.008746541105210781,-1.6586475372314453,1013.77576,
2021.02.13 18:56:10,63.0,24.0,42.189545,-5.4550724,-32.84314,0.12567829,0.7326061,9.755126,-0.0036849508,-0.008135369,-0.03253275,-0.07495270669460297,-0.01288259495049715,-1.6415847539901733,1013.7758,
2021.02.13 18:56:10,63.0,24.0,41.59424,-4.8699694,-33.460297,0.03697061,0.7410221,9.7958975,0.0017337187,-0.0026767212,-0.045272715,-0.07550182938575745,-0.00377407344058156,-1.6269220113754272,1013.7759,
2021.02.13 18:56:10,63.0,24.0,41.669647,-6.2490816,-32.800003,0.01927682,0.7278752,9.693366,0.0037051968,-0.0032371576,-0.0336914,-0.0749492272734642,-0.0019886584486812353,-1.6611624956130981,1013.77594,
2021.02.13 18:56:10,63.0,24.0,41.93547,-5.587536,-33.067886,0.043205947,0.73502284,9.814683,-0.0033469123,0.0049571786,-0.026402649,-0.07474986463785172,-0.0044021462090313435,-1.6447150707244873,1013.776,
2021.02.13 18:56:10,63.0,24.0,41.41577,-5.2676554,-32.724037,0.04120906,0.71728987,9.674377,0.017253308,0.010141926,-0.01529281,-0.07400716841220856,-0.004259582608938217,-1.639194130897522,1013.77637,
2021.02.13 18:56:10,63.0,24.0,41.710922,-5.212039,-33.172142,0.011977226,0.7300424,9.795506,-0.006862863,0.006444225,-0.009414138,-0.0743907243013382,-0.0012227260740473866,-1.6362332105636597,1013.7764,
2021.02.13 18:56:11,63.0,24.0,41.965363,-6.169957,-33.78608,0.075973116,0.71777344,9.6741495,8.749729E-4,-0.0025038547,0.008674109,-0.07405701279640198,-0.007853046990931034,-1.657665729522705,1013.7764,
2021.02.13 18:56:11,63.0,24.0,42.169357,-4.6003046,-32.950012,0.07137471,0.7207201,9.79718,-0.014187906,0.0036375714,0.0053185336,-0.07342981547117233,-0.007285100407898426,-1.622465968132019,1013.7765,
2021.02.13 18:56:11,63.0,24.0,41.38562,-6.0611525,-34.27472,0.06415219,0.7350336,9.759766,1.5787547E-5,6.639984E-4,0.008837619,-0.07516910135746002,-0.006573033519089222,-1.6544876098632812,1013.7766,
2021.02.13 18:56:11,63.0,24.0,41.280823,-6.2617426,-32.660202,0.10120374,0.69793814,9.753077,0.0059421193,0.0012846775,0.0059341993,-0.07143520563840866,-0.010376223362982273,-1.6653145551681519,1013.7772,
2021.02.13 18:56:11,63.0,24.0,41.223587,-4.6923895,-33.45214,0.10156823,0.710404,9.7437315,-8.977016E-4,0.0030225245,0.0068847183,-0.07277610898017883,-0.010423578321933746,-1.6255640983581543,1013.7773,
2021.02.13 18:56:11,63.0,24.0,41.267715,-4.864607,-33.906723,0.11006188,0.70104265,9.750149,0.005662077,0.0055332407,-0.0055234926,-0.07177262753248215,-0.011287746019661427,-1.6296546459197998,1013.7773,
2021.02.13 18:56:11,63.0,24.0,41.42816,-5.0624485,-32.378456,0.11769879,0.67684036,9.716067,0.0062697316,0.0014783167,0.0022476513,-0.06954451650381088,-0.012113237753510475,-1.6384952068328857,1013.77765,
2021.02.13 18:56:11,63.0,24.0,43.48343,-5.40681,-33.437836,0.03905956,0.7489581,9.768665,0.0012825322,0.003867507,-0.012234407,-0.07651913166046143,-0.003998433239758015,-1.6360033750534058,1013.77795,
2021.02.13 18:56:11,63.0,24.0,42.31694,-5.088806,-34.049126,0.06147005,0.72488886,9.685234,0.009671841,0.0024648577,-0.0021707378,-0.07470396161079407,-0.0063466946594417095,-1.6307605504989624,1013.77814,
2021.02.13 18:56:11,63.0,24.0,41.868744,-4.961316,-33.702095,0.046165977,0.7410225,9.775949,-0.0045181746,0.0105918115,-0.003938535,-0.07565505802631378,-0.0047223689034581184,-1.6281907558441162,1013.77814,
2021.02.13 18:56:11,63.0,24.0,41.384644,-5.8427734,-33.334885,0.050327394,0.7116716,9.697589,0.0021778424,0.002624188,0.0011280524,-0.07325414568185806,-0.005189634393900633,-1.652504324913025,1013.7782,
2021.02.13 18:56:11,63.0,24.0,41.864304,-5.029581,-31.872458,0.037211675,0.7487619,9.749241,-0.010499132,0.0055639246,-0.0030002268,-0.07665103673934937,-0.0038168607279658318,-1.6323206424713135,1013.7786,
2021.02.13 18:56:11,63.0,24.0,42.447372,-3.8597364,-33.10627,0.02508107,0.7421085,9.769195,-0.00865105,0.004920242,0.004179895,-0.07581828534603119,-0.0025673576164990664,-1.602508783340454,1013.7786,
2021.02.13 18:56:11,63.0,24.0,41.878067,-5.736228,-34.021675,0.067024805,0.7357592,9.728797,-0.0036337848,0.0015991237,0.006692211,-0.07548147439956665,-0.006889211945235729,-1.6460760831832886,1013.7786,
2021.02.13 18:56:12,63.0,24.0,41.903458,-5.3259697,-32.91671,0.08051338,0.69062525,9.79591,-0.006830209,0.004546225,0.001971636,-0.07038255780935287,-0.008218895643949509,-1.642337441444397,1013.7786,
2021.02.13 18:56:12,63.0,24.0,41.949203,-5.0795927,-33.3898,-0.04229339,0.74809724,9.722573,0.006870642,0.004631322,-0.0039583254,-0.07679232954978943,0.004349992610514164,-1.6302685737609863,1013.7786,
2021.02.13 18:56:12,63.0,24.0,40.500534,-5.539998,-34.85295,0.10039308,0.7026114,9.694457,-0.0050374353,-0.002140162,0.015965717,-0.07234521955251694,-0.010355349630117416,-1.6449811458587646,1013.7786,
2021.02.13 18:56:12,63.0,24.0,42.17784,-6.3877525,-33.08365,0.0583061,0.7236176,9.758075,-0.0059266994,0.0043073106,-0.0014604505,-0.07401897758245468,-0.005975093226879835,-1.6635648012161255,1013.7786,
2021.02.13 18:56:12,63.0,24.0,41.994446,-6.178174,-33.833534,0.017743824,0.7006255,9.782529,-0.007958568,0.003301174,0.0046115573,-0.07149787992238998,-0.0018138259183615446,-1.6597490310668945,1013.7786,
2021.02.13 18:56:12,63.0,24.0,43.32199,-6.06898,-33.350685,0.040379763,0.7115262,9.761741,-0.0027397557,-1.270274E-4,0.013034812,-0.07275998592376709,-0.004136509262025356,-1.654391884803772,1013.7786,
2021.02.13 18:56:12,63.0,24.0,41.50032,-5.570963,-32.204834,0.08829532,0.6580705,9.735918,-0.005463699,3.0593737E-4,-0.0014543524,-0.06748660653829575,-0.009068780578672886,-1.6522607803344727,1013.7782,
2021.02.13 18:56:12,63.0,24.0,41.754684,-5.2299223,-33.198875,-0.014065564,0.6924734,9.750591,0.0017462925,-6.451807E-5,-5.0849805E-4,-0.07089949399232864,0.001442533452063799,-1.639280080795288,1013.77795,
2021.02.13 18:56:12,63.0,24.0,42.03984,-5.596199,-33.316856,0.09706331,0.6588327,9.726802,9.108104E-4,2.1335995E-4,0.019603781,-0.06762708723545074,-0.009978623129427433,-1.6499425172805786,1013.77795,
2021.02.13 18:56:12,63.0,24.0,41.37314,-6.0371,-33.636383,0.08506631,0.624729,9.830493,-0.0014571045,7.1545225E-4,0.0019419699,-0.06346240639686584,-0.008653094992041588,-1.6644787788391113,1013.77795,
2021.02.13 18:56:12,63.0,24.0,41.38385,-5.8524218,-33.371002,0.0072914264,0.7224875,9.710788,0.027782384,-0.011234481,-0.008180397,-0.07426365464925766,-7.508582202717662E-4,-1.651823878288269,1013.77795,
2021.02.13 18:56:12,63.0,24.0,41.11682,-4.4929667,-33.757744,0.044876423,0.7039199,9.663745,-0.0020159706,-0.009486412,0.012867254,-0.07271210849285126,-0.00464375875890255,-1.6202447414398193,1013.77765,
2021.02.13 18:56:12,63.0,24.0,41.09764,-5.694646,-33.44156,0.07949345,0.7220361,9.927263,0.0021290528,0.00218921,0.007875302,-0.07260248064994812,-0.008007418364286423,-1.6498733758926392,1013.7773,
2021.02.13 18:56:12,63.0,24.0,41.346725,-6.1486807,-34.296913,-0.014558031,0.78223056,9.741834,0.05014434,-0.0399174,0.022264998,-0.08012403547763824,0.0014943820424377918,-1.6524381637573242,1013.7773,
2021.02.13 18:56:13,63.0,24.0,42.79669,-4.6819153,-33.782173,0.15984415,0.7662267,9.617347,0.04583607,-0.03297113,0.04762046,-0.07949244976043701,-0.016618870198726654,-1.6178497076034546,1013.7773,
2021.02.13 18:56:13,63.0,24.0,41.39276,-6.2244625,-33.838562,0.17150156,0.73283535,9.462708,-0.04971568,0.057775702,0.014048388,-0.07727764546871185,-0.018121955916285515,-1.6575289964675903,1013.7773,
2021.02.13 18:56:13,63.0,24.0,40.322556,-5.940586,-34.056244,-0.016374433,0.8089908,10.855534,-0.0329618,-0.07353124,0.033692718,-0.07438576966524124,0.0015083940234035254,-1.654745101928711,1013.7773,
