Time,X-cord,Y-cord,Mag_x,Mag_y,Mag_z,Acc_x,Acc_y,Acc_z,Gyro_x,Gyro_y,Gyro_z,Orn_x,Orn_y,Orn_z,Pressure,
2021.02.13 18:59:53,77.0,19.0,20.726929,-45.211056,-38.55258,0.14764707,0.3753222,10.464577,0.093441784,0.009705036,-0.053165637,-0.03584703803062439,-0.01410828810185194,-2.68963885307312,1013.74963,
2021.02.13 18:59:53,77.0,19.0,21.145218,-44.86551,-38.476913,0.32382178,0.49040318,9.785925,0.04471802,0.019844854,0.012137604,-0.05004388093948364,-0.03307849168777466,-2.660470962524414,1013.74963,
2021.02.13 18:59:53,77.0,19.0,21.817787,-44.833412,-38.11123,0.26243198,0.5969873,9.650884,0.051052727,0.0052218996,-0.022719165,-0.06175682321190834,-0.0271858349442482,-2.6477062702178955,1013.74963,
2021.02.13 18:59:54,77.0,19.0,19.86338,-45.499527,-38.159866,0.15492,0.68620116,9.833704,0.025044216,0.008622538,-0.03117512,-0.06965898722410202,-0.015752678737044334,-2.695223569869995,1013.7496,
2021.02.13 18:59:54,77.0,19.0,20.860603,-45.14078,-37.70018,0.104732126,0.6549465,9.619168,0.05018001,0.004642913,-0.016773166,-0.06797870248556137,-0.010887427255511284,-2.677489757537842,1013.7493,
2021.02.13 18:59:54,77.0,19.0,20.729454,-45.19869,-37.825928,0.38048914,0.48938695,9.666085,0.017481668,-0.005510742,8.102865E-4,-0.05054701119661331,-0.03934299945831299,-2.6675546169281006,1013.74896,
2021.02.13 18:59:54,77.0,19.0,20.555252,-45.240635,-38.625877,0.123402886,0.6108343,9.663322,-0.0066785263,-0.018526243,-0.040838312,-0.06312250345945358,-0.012769539840519428,-2.683927059173584,1013.748,
2021.02.13 18:59:54,77.0,19.0,20.668877,-45.873734,-37.78978,0.027008673,0.64227253,9.785355,4.7763577E-4,-0.004733449,-0.013023068,-0.06554184854030609,-0.0027601048350334167,-2.694312810897827,1013.748,
2021.02.13 18:59:54,77.0,19.0,21.476212,-44.400917,-38.47773,0.11804182,0.5339555,9.876324,-0.013620965,0.009520401,-0.003584921,-0.05400776118040085,-0.011951430700719357,-2.6629579067230225,1013.748,
2021.02.13 18:59:54,77.0,19.0,20.718056,-45.820736,-38.392616,-0.057652593,0.6184023,9.682929,0.017163763,0.0028325373,-0.027581545,-0.06377746164798737,0.0059539745561778545,-2.6993799209594727,1013.748,
2021.02.13 18:59:54,77.0,19.0,22.32531,-46.823643,-38.214935,-0.110519744,0.6284451,9.753084,1.7252425E-4,0.017838484,-0.009302676,-0.0643424466252327,0.011331289075314999,-2.682218551635742,1013.748,
2021.02.13 18:59:54,77.0,19.0,21.835915,-45.874233,-37.79332,-0.089353256,0.6358029,9.914658,0.042039454,0.0068427175,0.03514607,-0.06403728574514389,0.009011994116008282,-2.6812751293182373,1013.748,
2021.02.13 18:59:54,77.0,19.0,21.240028,-45.28109,-38.85215,-0.21194117,0.67356396,9.688141,0.028809257,0.01807787,0.080171525,-0.06939633190631866,0.021872861310839653,-2.693864345550537,1013.748,
2021.02.13 18:59:54,77.0,19.0,22.560776,-45.795742,-37.51764,-0.11589528,0.623523,9.656528,2.3118965E-4,0.02843983,0.06917556,-0.06447596102952957,0.012001178227365017,-2.6691842079162598,1013.74756,
2021.02.13 18:59:54,77.0,19.0,21.764366,-45.21403,-38.10076,0.07381397,0.5793403,9.892212,0.05033961,0.037453614,0.021395646,-0.05849684774875641,-0.00746168801560998,-2.667032480239868,1013.7475,
2021.02.13 18:59:54,77.0,19.0,21.67807,-44.692753,-37.693024,-0.15241708,0.7038064,9.704356,0.0032692146,0.018631795,0.05180914,-0.0723891332745552,0.01570475660264492,-2.6746826171875,1013.7475,
2021.02.13 18:59:55,77.0,19.0,21.308754,-45.93183,-37.63688,-0.012501091,0.65226674,9.715019,6.2509486E-4,0.017623119,0.06362873,-0.0670393630862236,0.0012867790646851063,-2.6852216720581055,1013.7475,
2021.02.13 18:59:55,77.0,19.0,20.859413,-45.179283,-37.636955,0.016447017,0.56848854,9.652778,-0.008525289,0.011342764,0.037218455,-0.058825742453336716,-0.001703861984424293,-2.6877236366271973,1013.74744,
2021.02.13 18:59:55,77.0,19.0,19.347725,-45.574768,-37.70086,0.025223792,0.7069295,9.939672,-0.040181994,0.0073010344,-0.0017209096,-0.07100222259759903,-0.002537683118134737,-2.7150838375091553,1013.74664,
2021.02.13 18:59:55,77.0,19.0,21.21083,-46.234806,-37.814217,-0.22557263,0.73270684,9.671675,0.04021965,3.5787784E-4,-0.037774183,-0.07559309899806976,0.023318788036704063,-2.7019577026367188,1013.74664,
2021.02.13 18:59:55,77.0,19.0,21.128433,-45.38419,-37.916565,-0.1754695,0.6741492,9.583437,-0.007474906,-0.047015287,0.014561928,-0.07021782547235489,0.01830761693418026,-2.694267988204956,1013.7463,
2021.02.13 18:59:55,77.0,19.0,21.023293,-45.648014,-38.100876,-0.034186874,0.7003748,9.931159,-0.04960081,-0.046817716,0.020181186,-0.0704059824347496,0.0034423714969307184,-2.687940835952759,1013.746,
2021.02.13 18:59:55,77.0,19.0,20.377121,-45.94042,-38.059982,-0.029449701,0.5980161,9.827439,0.006713631,-0.021937901,0.013626999,-0.06077645719051361,0.0029966721776872873,-2.7060179710388184,1013.7458,
2021.02.13 18:59:55,77.0,19.0,21.426498,-45.686455,-38.05011,-0.0819164,0.5847903,9.6552515,0.013904379,-0.02437933,0.017036242,-0.06049100309610367,0.00848392490297556,-2.688028335571289,1013.7458,
2021.02.13 18:59:55,77.0,19.0,21.50151,-45.166397,-38.103737,-0.092439465,0.69794255,9.889005,-0.01413849,-8.0763595E-5,0.022356667,-0.07045772671699524,0.009347429499030113,-2.6785969734191895,1013.7458,
2021.02.13 18:59:55,77.0,19.0,20.777763,-46.269726,-38.237267,0.08476166,0.5806952,9.62189,0.028374126,-0.012718134,0.051473554,-0.06027602776885033,-0.008809024468064308,-2.6932408809661865,1013.7458,
2021.02.13 18:59:55,77.0,19.0,20.272438,-45.20591,-38.813698,0.066616826,0.6061269,9.802409,-0.0077985544,-0.011448153,0.026236102,-0.06175443157553673,-0.006795859895646572,-2.693617343902588,1013.7458,
2021.02.13 18:59:55,77.0,19.0,21.099098,-46.973175,-38.714546,0.03894757,0.6504455,9.683578,-0.016052427,-0.01508368,0.026894359,-0.0670686662197113,-0.004022001288831234,-2.694056749343872,1013.7458,
2021.02.13 18:59:55,77.0,19.0,20.470749,-46.028603,-37.31234,0.14095877,0.5925296,9.720971,-0.011001337,-0.006812535,-0.004690495,-0.06087203696370125,-0.014499466866254807,-2.6933746337890625,1013.7453,
2021.02.13 18:59:55,77.0,19.0,19.99369,-44.146458,-39.50226,0.1406013,0.6297199,9.796529,0.012815369,-0.0046233833,0.018743247,-0.0641850009560585,-0.014351170510053635,-2.6820311546325684,1013.74524,
2021.02.13 18:59:56,77.0,19.0,20.044357,-46.574314,-38.38984,0.10852143,0.6244014,9.586349,0.009743826,-0.01082084,-0.008215772,-0.06503839790821075,-0.011319929733872414,-2.705968141555786,1013.74493,
2021.02.13 18:59:56,77.0,19.0,20.587769,-46.246624,-37.91143,0.08053585,0.6571413,9.890025,-0.022895042,-0.0021277866,-0.011249137,-0.06634514033794403,-0.008142959326505661,-2.695054531097412,1013.74493,
2021.02.13 18:59:56,77.0,19.0,19.073227,-45.138775,-37.01892,0.011941653,0.7069079,9.7007065,0.01418513,-0.0017859293,-0.017374353,-0.07274315506219864,-0.0012310079764574766,-2.7173643112182617,1013.7448,
2021.02.13 18:59:56,77.0,19.0,20.389748,-44.77278,-37.98352,0.10041941,0.5847847,9.7982,0.007939259,0.01357103,-0.011482291,-0.059609029442071915,-0.010248402133584023,-2.686340570449829,1013.74475,
2021.02.13 18:59:56,77.0,19.0,19.814293,-45.0685,-38.26499,-0.025071174,0.6318741,9.608954,0.013002767,0.0073246285,-0.021429433,-0.06566411256790161,0.002609141170978546,-2.706881046295166,1013.74475,
2021.02.13 18:59:56,77.0,19.0,20.655106,-45.82702,-38.118088,0.024250312,0.6846382,9.796661,-0.0031372393,0.016110744,-0.00815888,-0.06977120041847229,-0.0024753597099334,-2.692568063735962,1013.74493,
2021.02.13 18:59:56,77.0,19.0,20.730324,-44.080177,-37.834366,-0.04231116,0.6255092,9.668986,-0.018171374,0.018420313,-0.020388845,-0.06460168957710266,0.004375938791781664,-2.68190860748291,1013.74493,
2021.02.13 18:59:56,77.0,19.0,20.096222,-45.81627,-38.24726,-0.016218837,0.66838235,9.864636,-0.031219343,0.0071880873,-0.0046563637,-0.0676519125699997,0.001644137897528708,-2.7067012786865234,1013.74493,
2021.02.13 18:59:56,77.0,19.0,20.156563,-45.695656,-37.51509,0.03386762,0.6032407,9.737208,0.002244355,0.0021647597,0.004742659,-0.06187267601490021,-0.0034781512804329395,-2.7033815383911133,1013.74493,
2021.02.13 18:59:56,77.0,19.0,20.064018,-45.287735,-37.773376,0.030582165,0.59889966,9.786759,0.007850522,0.011769604,-0.003009688,-0.06111837178468704,-0.003124841023236513,-2.7018680572509766,1013.74493,
2021.02.13 18:59:56,77.0,19.0,20.50074,-46.900604,-37.955933,0.0035467434,0.57533985,9.708402,0.014058029,0.0017609611,-0.004409824,-0.05919282138347626,-3.6532722879201174E-4,-2.710253953933716,1013.74493,
2021.02.13 18:59:56,77.0,19.0,20.29271,-45.4056,-38.422432,-0.058981553,0.68720675,9.821095,0.044263534,-0.006694155,0.008972139,-0.0698573961853981,0.006005526054650545,-2.7015113830566406,1013.74475,
2021.02.13 18:59:56,77.0,19.0,21.434929,-45.486713,-38.07618,0.02131723,0.55323607,9.746116,-0.0014363397,-0.035161864,0.016005082,-0.05670379102230072,-0.0021872506476938725,-2.6800003051757812,1013.7447,
2021.02.13 18:59:56,77.0,19.0,20.119911,-45.858322,-36.57972,-0.06404,0.5822085,9.561611,-0.024665318,-0.014213447,0.016527364,-0.06081376224756241,0.006697515491396189,-2.713395118713379,1013.74445,
2021.02.13 18:59:57,77.0,19.0,20.89473,-45.92456,-37.256706,0.10232716,0.50662655,9.609873,0.006707413,0.012937139,-0.019890128,-0.05266764014959335,-0.010647726245224476,-2.6901419162750244,1013.74426,
2021.02.13 18:59:57,77.0,19.0,20.092926,-46.158558,-37.958885,-0.09169787,0.652707,9.803557,-0.031743743,0.010250937,-0.034235608,-0.06647756695747375,0.009353257715702057,-2.715841770172119,1013.74414,
2021.02.13 18:59:57,77.0,19.0,20.6651,-46.27253,-38.562958,-0.01760034,0.5563914,9.733491,-0.014921978,0.0061511844,-0.0107201915,-0.05710034444928169,0.0018082228489220142,-2.703758478164673,1013.744,
2021.02.13 18:59:57,77.0,19.0,20.56733,-44.55848,-38.770393,0.014997815,0.53692955,9.792838,-0.02368761,0.005244595,-1.6989507E-4,-0.05477388948202133,-0.0015315073542296886,-2.6885499954223633,1013.744,
2021.02.13 18:59:57,77.0,19.0,20.914917,-47.786156,-38.086296,0.036119085,0.55258876,9.797321,-0.005917144,-0.001886718,-0.0015921646,-0.05634194612503052,-0.003686612006276846,-2.708770751953125,1013.74347,
2021.02.13 18:59:57,77.0,19.0,21.051918,-44.773174,-38.16224,0.039398555,0.51231635,9.78425,0.0082035735,0.0021819796,-0.011815533,-0.05231313034892082,-0.00402671005576849,-2.6808524131774902,1013.7434,
2021.02.13 18:59:57,77.0,19.0,22.248978,-45.21037,-38.414726,0.026900267,0.5148971,9.757518,0.001639381,-0.0015148488,-0.010306847,-0.05272017419338226,-0.0027568689547479153,-2.66336989402771,1013.74335,
2021.02.13 18:59:57,77.0,19.0,20.450592,-46.02754,-38.42325,-0.005485023,0.5220732,9.725579,-0.0058614137,-0.0026100904,-0.0052232477,-0.05362894386053085,5.639789742417634E-4,-2.7060561180114746,1013.74316,
2021.02.13 18:59:57,77.0,19.0,20.017754,-45.951073,-38.990585,0.06781685,0.5051501,9.832376,0.020088032,9.086408E-5,-0.01821685,-0.051329854875802994,-0.006897191517055035,-2.7086973190307617,1013.74316,
2021.02.13 18:59:57,77.0,19.0,21.349968,-45.029507,-37.28823,-0.045843493,0.5629738,9.870282,-0.0018530698,0.011345251,-0.017133154,-0.05697491019964218,0.004644564352929592,-2.6823854446411133,1013.74316,
2021.02.13 18:59:57,77.0,19.0,21.56636,-44.940594,-38.579742,-0.076518394,0.603714,9.723918,0.032915637,0.009256096,-0.0013397104,-0.0620039701461792,0.007868928834795952,-2.677276372909546,1013.743,
2021.02.13 18:59:57,77.0,19.0,21.233742,-45.378376,-38.012062,0.0060598366,0.4979774,9.6998625,0.0019099787,0.0059231687,0.006392147,-0.05129356309771538,-6.247342098504305E-4,-2.685866117477417,1013.7428,
2021.02.13 18:59:58,77.0,19.0,21.781097,-45.049892,-37.981552,-0.05956495,0.7075239,9.800605,0.03218885,0.0062957145,0.019187657,-0.07206550985574722,0.006077606696635485,-2.669344663619995,1013.7426,
2021.02.13 18:59:58,77.0,19.0,20.42492,-45.413147,-37.677124,-0.03801471,0.590648,9.569577,0.022587594,-0.004596158,-0.018343871,-0.06164274737238884,0.003972433973103762,-2.701000452041626,1013.7422,
2021.02.13 18:59:58,77.0,19.0,21.091293,-43.796837,-38.123566,-0.027051883,0.64455825,9.927018,-0.024445156,0.0043054335,-0.010448578,-0.06483843922615051,0.0027250696439296007,-2.6707561016082764,1013.74207,
2021.02.13 18:59:58,77.0,19.0,20.537148,-45.090527,-38.26272,-0.087672375,0.60007924,9.666375,0.021320842,-9.0581726E-4,-0.004573618,-0.06199692189693451,0.009069581516087055,-2.699218273162842,1013.7419,
2021.02.13 18:59:58,77.0,19.0,20.715836,-45.301292,-38.23979,-0.021393547,0.5838187,9.79916,-0.011851059,-0.010862102,0.021108197,-0.059507954865694046,0.0021831984631717205,-2.693711519241333,1013.7419,
2021.02.13 18:59:58,77.0,19.0,21.91169,-46.06613,-38.23237,0.03879256,0.58269256,9.734402,-0.0014950424,-0.008037101,0.006721596,-0.059787292033433914,-0.003985078539699316,-2.6740798950195312,1013.7419,
2021.02.13 18:59:58,77.0,19.0,21.51139,-45.482925,-37.296623,0.06336494,0.5496979,9.772672,0.0075167874,-0.0015512903,-0.008270418,-0.05618808791041374,-0.006483800243586302,-2.6762752532958984,1013.7422,
2021.02.13 18:59:58,77.0,19.0,18.898308,-45.280243,-38.825455,0.068285145,0.52796173,9.794494,-0.0117572285,-0.0065410836,0.0021603503,-0.053850509226322174,-0.006971676368266344,-2.7233924865722656,1013.7426,
2021.02.13 18:59:58,77.0,19.0,20.990776,-45.36029,-37.30755,0.022852538,0.5896255,9.705514,0.009074245,-0.003503706,-0.02274145,-0.06067685782909393,-0.002354589058086276,-2.6859772205352783,1013.7428,
2021.02.13 18:59:58,77.0,19.0,21.526245,-46.631104,-38.30844,0.040475767,0.5742302,9.77558,-0.007901443,-0.0018712976,-0.015991114,-0.05867336317896843,-0.004140473902225494,-2.6864700317382812,1013.7428,
2021.02.13 18:59:58,77.0,19.0,21.666023,-44.702778,-39.3583,-0.018916292,0.5552203,9.807724,2.710675E-4,-0.0029132452,-0.017842142,-0.0565500482916832,0.0019287114264443517,-2.670654535293579,1013.7428,
2021.02.13 18:59:58,77.0,19.0,21.21444,-45.3845,-38.542015,-0.04724196,0.5806939,9.716253,0.01143242,-8.003289E-4,-0.0139214145,-0.05969349667429924,0.004862119909375906,-2.6867711544036865,1013.7428,
2021.02.13 18:59:58,77.0,19.0,22.664177,-45.522675,-37.38974,-0.027073244,0.5595375,9.751416,0.0046633487,0.0039877826,1.2921315E-4,-0.057317059487104416,0.0027763324324041605,-2.6612915992736816,1013.7426,
2021.02.13 18:59:58,77.0,19.0,20.751846,-45.19735,-38.517273,-0.0664214,0.6068644,9.781648,0.012525436,0.0028175043,0.016665304,-0.06196027621626854,0.006790305487811565,-2.6943447589874268,1013.7424,
2021.02.13 18:59:59,77.0,19.0,20.665848,-45.720665,-38.52439,-0.016171174,0.5661219,9.705764,0.0013312222,0.0061367946,0.012157251,-0.058262329548597336,0.0016661398112773895,-2.698376417160034,1013.7424,
2021.02.13 18:59:59,77.0,19.0,21.546036,-44.102787,-37.421333,-0.026093878,0.62880194,9.761817,1.08411536E-4,-0.0066722855,0.019453278,-0.06432534009218216,0.0026730492245405912,-2.6656241416931152,1013.7424,
2021.02.13 18:59:59,77.0,19.0,20.977188,-46.601246,-38.21756,0.022075465,0.6090964,9.727393,0.008289754,-0.0059671663,0.019172676,-0.06253480166196823,-0.002269408432766795,-2.69621205329895,1013.7424,
2021.02.13 18:59:59,77.0,19.0,20.701286,-45.967354,-38.347168,0.045202564,0.58641565,9.717089,0.0053476547,-0.0059653316,0.014245801,-0.06027514860033989,-0.00465182913467288,-2.6947970390319824,1013.7424,
2021.02.13 18:59:59,77.0,19.0,21.886185,-46.540356,-38.220802,-0.0033162788,0.61111706,9.717471,0.0015323807,-0.0047922786,0.0021025892,-0.06280577927827835,3.412697114981711E-4,-2.6806998252868652,1013.7424,
2021.02.13 18:59:59,77.0,19.0,21.133995,-46.460327,-38.001823,0.021674497,0.6199779,9.762193,-0.0037875446,-0.0073056454,0.007769376,-0.06342272460460663,-0.0022202450782060623,-2.6919140815734863,1013.7424,
2021.02.13 18:59:59,77.0,19.0,20.127823,-45.544056,-37.28382,0.017547185,0.6171929,9.764791,0.004718359,6.777603E-4,-6.027195E-4,-0.06312188506126404,-0.0017969832988455892,-2.7034482955932617,1013.7429,
2021.02.13 18:59:59,77.0,19.0,21.003578,-45.3412,-37.13212,0.056586515,0.5886113,9.777575,0.011215005,0.0045455173,-0.01483914,-0.06012656167149544,-0.005787312984466553,-2.6835289001464844,1013.743,
2021.02.13 18:59:59,77.0,19.0,21.078987,-45.24933,-37.673225,2.7478984E-5,0.6091769,9.696593,0.0065054935,0.0037467782,-0.008946464,-0.06274135410785675,-2.833880216712714E-6,-2.6839444637298584,1013.743,
2021.02.13 18:59:59,77.0,19.0,20.32695,-44.124466,-38.541588,0.026048765,0.5789748,9.763543,-7.65949E-4,0.0013331228,-0.005184516,-0.05923008918762207,-0.002667956054210663,-2.686691999435425,1013.74304,
2021.02.13 18:59:59,77.0,19.0,20.626488,-45.41708,-38.817253,-0.0062617273,0.5931414,9.719708,0.0018051004,0.001611938,-0.008348193,-0.06094901263713837,6.442298763431609E-4,-2.6945066452026367,1013.74304,
2021.02.13 18:59:59,77.0,19.0,20.415985,-45.19499,-37.97818,0.0376896,0.5849933,9.776386,-0.0049508344,-0.0012396664,0.0027020522,-0.05976566672325134,-0.0038551476318389177,-2.6941871643066406,1013.74316,
2021.02.13 18:59:59,77.0,19.0,21.760094,-45.920403,-38.504265,0.025046209,0.60159427,9.732811,-0.0026457128,-0.007983013,-4.7563342E-5,-0.061732206493616104,-0.0025733730290085077,-2.6755800247192383,1013.74316,
2021.02.13 19:00:00,77.0,19.0,20.21611,-45.013783,-37.93244,0.04425965,0.5866681,9.794403,-0.00215493,-0.0037778623,0.0036641345,-0.05982620641589165,-0.004518840927630663,-2.6958768367767334,1013.7434,
2021.02.13 19:00:00,77.0,19.0,20.210678,-45.723763,-38.104424,0.06656261,0.5587509,9.736461,-5.6687556E-4,-0.008306037,9.7061857E-4,-0.05732326582074165,-0.006836320739239454,-2.7015135288238525,1013.7434,
2021.02.13 19:00:00,77.0,19.0,22.417381,-44.67031,-37.9644,0.0015978379,0.59639585,9.755002,-0.0010261354,-0.008950152,0.0041521857,-0.06106143817305565,-1.6379676526412368E-4,-2.6538610458374023,1013.7434,
2021.02.13 19:00:00,77.0,19.0,20.363503,-45.461506,-38.30333,0.050178844,0.562182,9.793321,-0.0023532151,-0.001958861,0.0016441223,-0.05734096094965935,-0.00512373773381114,-2.6973776817321777,1013.7434,
2021.02.13 19:00:00,77.0,19.0,21.071487,-44.09667,-38.81167,-0.009768538,0.579261,9.764987,0.007270583,0.0013996814,-5.166849E-4,-0.05925074219703674,0.0010003633797168732,-2.67463755607605,1013.7434,
2021.02.13 19:00:00,77.0,19.0,21.4151,-44.85322,-37.697952,0.034505356,0.5798096,9.693279,0.008627198,0.0020086556,0.013509412,-0.05974406749010086,-0.003559704637154937,-2.6725845336914062,1013.7434,
2021.02.13 19:00:00,77.0,19.0,21.848366,-44.556023,-36.303802,0.114055224,0.5236648,9.841078,-0.011985237,4.6341977E-4,0.013413258,-0.053158435970544815,-0.011589189991354942,-2.659724473953247,1013.74316,
2021.02.13 19:00:00,77.0,19.0,18.739319,-45.560963,-39.62107,-0.05639647,0.6330652,9.679745,0.021453775,0.005571924,-0.0023914333,-0.06530690938234329,0.005826169159263372,-2.734046459197998,1013.74316,
2021.02.13 19:00:00,77.0,19.0,21.602333,-45.492744,-37.025436,0.13323303,0.5607274,9.808885,0.00625427,0.0046641584,-0.005797558,-0.05709785595536232,-0.013582057319581509,-2.66981840133667,1013.74316,
2021.02.13 19:00:00,77.0,19.0,21.182022,-45.579666,-38.039856,0.003616805,0.6011123,9.68184,-0.010184025,-8.10932E-4,0.010021576,-0.062006980180740356,-3.7356585380621254E-4,-2.6848576068878174,1013.74316,
2021.02.13 19:00:00,77.0,19.0,20.721657,-45.148582,-37.84066,0.11175815,0.5442547,9.71432,0.0066159084,3.8511748E-4,0.013917618,-0.05596381798386574,-0.011503966525197029,-2.684140682220459,1013.74316,
2021.02.13 19:00:00,77.0,19.0,20.138779,-45.376682,-37.733253,-0.0322167,0.6075819,9.739034,-0.0042204885,0.008368699,-0.0097687105,-0.06230517849326134,0.0033079858403652906,-2.7053959369659424,1013.74316,
2021.02.13 19:00:00,77.0,19.0,21.010437,-45.661324,-37.132843,0.019940158,0.55346364,9.744195,-0.0029159705,0.0066792276,0.0077505186,-0.0567382350564003,-0.002046359935775399,-2.690084457397461,1013.74316,
2021.02.13 19:00:01,77.0,19.0,20.554955,-44.405056,-37.93186,-0.020783601,0.60085374,9.738713,-0.009832049,0.0045850603,0.015480256,-0.061619196087121964,0.0021341186948120594,-2.6878483295440674,1013.74316,
2021.02.13 19:00:01,77.0,19.0,21.833267,-45.62258,-37.45352,0.053833183,0.56490844,9.796066,0.0023601905,0.01124182,0.0018514075,-0.057602204382419586,-0.005495332647114992,-2.6716983318328857,1013.74316,
2021.02.13 19:00:01,77.0,19.0,20.979187,-45.45125,-38.060112,-0.029742807,0.5677084,9.748684,9.406025E-4,0.005470968,0.005888829,-0.05816839635372162,0.00305094663053751,-2.6913058757781982,1013.74316,
2021.02.13 19:00:01,77.0,19.0,21.025177,-44.419247,-37.61029,0.051562767,0.5447616,9.792443,-0.0014766585,0.0031641084,0.014781057,-0.055572763085365295,-0.005265518557280302,-2.6762616634368896,1013.74304,
2021.02.13 19:00:01,77.0,19.0,20.878868,-45.49042,-37.68312,-0.06254602,0.621993,9.75003,0.009583001,-0.0075922916,0.0038132924,-0.06370633095502853,0.0064148688688874245,-2.6940500736236572,1013.7424,
2021.02.13 19:00:01,77.0,19.0,20.767746,-45.680492,-37.396156,0.041431803,0.5642749,9.761639,0.0068644285,-0.026898982,0.032835547,-0.05774057283997536,-0.004244323819875717,-2.6927714347839355,1013.7423,
2021.02.13 19:00:01,77.0,19.0,21.491829,-45.10482,-38.33149,0.014030232,0.61064875,9.75664,0.008432674,-0.030468907,0.029131455,-0.06250641494989395,-0.001438017818145454,-2.6735479831695557,1013.74207,
2021.02.13 19:00:01,77.0,19.0,20.94165,-43.941017,-38.95764,0.08080562,0.60436964,9.858168,0.021161787,-0.034185663,0.04387059,-0.06122780218720436,-0.008196637034416199,-2.6680147647857666,1013.74194,
2021.02.13 19:00:01,77.0,19.0,21.159386,-45.855087,-38.0988,0.11320611,0.62308747,9.875508,0.08484263,-0.054795753,0.0456685,-0.06300656497478485,-0.011462816968560219,-2.6797099113464355,1013.74194,
2021.02.13 19:00:01,77.0,19.0,19.749542,-46.63548,-38.932434,0.15887937,0.47820377,10.955792,-0.19792907,0.09688453,-0.005720082,-0.043616220355033875,-0.014500844292342663,-2.716810941696167,1013.74194,
