Time,Mag_x,Mag_y,Mag_z,Acc_x,Acc_y,Acc_z,Gyro_x,Gyro_y,Gyro_z,Orn_x,Orn_y,Orn_z,Pressure
2018.02.26 11:07:16,29.96292,0.45528,-37.78534,0.21042,1.21407,9.66971,-0.14386,0.05325,-0.01068,279.25824,-6.86412,1.21869,1019.29205
2018.02.26 11:07:16,30.20687,0.75531,-38.06648,0.12662,1.28349,9.48537,-0.05225,0.02023,0.0607,279.15662,-6.58758,1.09114,1019.29187
2018.02.26 11:07:16,30.69439,0.51174,-37.71038,-0.11998,1.23322,9.81337,-0.08208,0.13208,0.13953,278.72049,-6.32812,0.61959,-0.08208
2018.02.26 11:07:16,30.54428,0.02422,-36.97929,-0.25166,1.68573,9.72478,-0.04799,0.08841,0.1555,277.52219,-6.08339,-0.06679,-0.04799
2018.02.26 11:07:16,30.54428,-0.14477,-36.15398,-0.06252,1.88924,9.36325,-0.06715,0.00638,0.07454,276.85645,-5.76253,-0.48855,-0.06715
2018.02.26 11:07:16,30.75066,-0.55733,-35.96668,-0.16069,2.07837,9.33931,-0.02455,0.02023,0.00317,276.99237,-5.86749,-0.57567,1019.29004
2018.02.26 11:07:16,30.91927,-0.83809,-35.46028,-0.24448,2.11908,9.51648,0.00954,-0.11612,-0.03412,277.28125,-6.10672,-0.14178,0.00954
2018.02.26 11:07:17,30.58186,-0.51956,-35.59132,-0.34743,1.73361,10.5029,0.04895,-0.0032,-0.07246,278.194,-6.73877,-0.07067,1019.28992
2018.02.26 11:07:17,31.14433,-0.53825,-35.47878,-0.27081,0.52454,10.6226,-0.04904,-0.05966,-0.15129,278.9375,-7.30272,-0.24833,1019.29016
2018.02.26 11:07:17,30.91927,0.28667,-35.23483,0.04044,0.23006,10.85724,-0.11617,0.05858,-0.18964,279.54242,-6.65821,-0.64077,-0.11617
2018.02.26 11:07:17,30.63812,0.54913,-34.29756,0.25591,0.75917,9.02806,0.26094,-0.03729,-0.03412,279.70026,-7.21098,-0.56064,0.26094
2018.02.26 11:07:17,30.69439,0.34313,-34.20391,0.33492,1.02971,9.01849,0.07559,0.03941,0.04898,279.33157,-6.98511,-0.70704,0.07559
2018.02.26 11:07:17,30.6942,0.00553,-33.82874,0.25351,1.33377,9.54042,-0.07568,-0.0096,-0.00322,278.99634,-7.52097,-0.56734,-0.07568
2018.02.26 11:07:17,30.99422,-0.05074,-33.49152,0.12183,1.74557,9.07835,0.03404,0.13741,-0.04691,279.13745,-7.46952,-1.20476,1019.2912
2018.02.26 11:07:17,31.05011,-0.05074,-33.26645,0.07155,1.64262,10.33052,-0.04692,-0.06073,0.01169,279.2887,-7.88674,-1.04043,1019.2912
2018.02.26 11:07:17,31.98776,-0.8009,-33.06026,-0.06013,1.7767,10.73514,0.09689,0.06178,-0.01282,279.24463,-8.412,-0.32981,0.09689
2018.02.26 11:07:18,31.76308,-0.68836,-32.8352,-0.09604,0.28033,11.44382,-0.22269,-0.20773,0.16083,278.68423,-7.89637,0.14757,1019.29163
2018.02.26 11:07:18,31.8758,-0.85697,-33.22887,-0.76402,0.67297,9.00652,0.1853,0.14807,0.09798,277.56934,-8.28547,0.12571,1019.29224
2018.02.26 11:07:18,32.26929,-2.71339,-32.34768,-0.0314,1.10872,9.06158,0.03618,-0.11719,0.18427,276.27481,-8.24061,-0.2534,0.03618
2018.02.26 11:07:18,32.45659,-2.90089,-32.19757,-0.14632,1.54446,9.38002,-0.14172,-0.01279,0.05217,275.73175,-8.46711,0.14675,-0.14172
2018.02.26 11:07:18,32.28817,-2.75078,-32.76043,-0.43362,1.85092,9.44705,-0.07355,-0.04262,0.09158,275.33752,-7.97175,0.20456,-0.07355
2018.02.26 11:07:18,31.85711,-2.9007,-33.11672,0.03564,1.68573,10.26108,0.00421,-0.09801,-0.06395,275.58051,-8.19625,0.62057,0.00421
2018.02.26 11:07:18,32.28798,-2.7319,-32.70397,0.24155,0.80226,11.13496,0.0596,0.08948,-0.15768,275.94653,-8.45037,0.08109,1019.29315
2018.02.26 11:07:18,32.71885,-1.88847,-32.44133,0.11226,0.74719,9.29143,0.08304,0.1257,-0.18112,277.1026,-7.94844,-0.18836,1019.29321
2018.02.26 11:07:18,32.62558,-2.20718,-32.19776,0.08592,0.46468,9.86365,-0.07462,-0.19815,-0.00961,276.89575,-7.89753,-0.04506,-0.07462
2018.02.26 11:07:19,32.75681,-1.55106,-32.08542,0.47856,1.44391,8.04645,0.12352,0.1225,0.08307,276.54556,-8.2214,0.51753,0.12352
2018.02.26 11:07:19,33.18787,-2.37579,-32.27272,0.27028,1.42955,9.12624,-0.05118,0.0181,0.08519,276.09308,-8.17472,0.47347,1019.2937
2018.02.26 11:07:19,32.56893,-2.65694,-31.87904,0.06198,1.83896,9.53564,-0.11403,0.13847,0.03938,275.44806,-7.64101,0.31645,-0.11403
2018.02.26 11:07:19,33.3189,-2.03857,-31.03523,0.0117,1.36011,11.26186,-0.18114,-0.09482,0.0085,275.83163,-5.93555,-0.17155,-0.18114
2018.02.26 11:07:19,33.1131,-2.63824,-30.81017,-0.23251,0.85973,11.00807,-0.02242,-0.02771,0.30676,274.71887,-6.07127,0.29073,-0.02242
2018.02.26 11:07:19,33.2819,-4.10061,-30.99747,-0.42165,0.73763,8.55162,0.46014,0.28229,0.05643,272.71146,-7.21208,0.33006,0.46014
2018.02.26 11:07:19,33.69427,-5.78823,-30.64137,-0.04816,0.66818,9.87321,-0.01923,-0.21626,0.17574,271.92102,-7.94726,0.23433,-0.01923
2018.02.26 11:07:19,33.39386,-6.80065,-30.26657,0.03804,1.56601,8.73119,0.13737,-0.04369,-0.04263,271.21954,-8.74862,0.45334,0.13737
2018.02.26 11:07:19,33.33759,-7.28836,-30.56641,-0.2397,1.95387,8.77667,-0.0139,0.03514,-0.04477,271.20624,-8.87518,0.24822,-0.0139
2018.02.26 11:07:20,33.15048,-6.59447,-30.67894,-0.02422,1.7791,10.03603,0.017,0.05858,-0.19177,272.15588,-8.80907,0.20139,1019.29602
2018.02.26 11:07:20,32.92561,-5.95703,-29.8914,-0.07928,1.49179,10.62021,0.16614,0.18002,-0.25569,272.72293,-8.87031,-0.16482,0.16614
2018.02.26 11:07:20,32.9443,-5.56335,-29.34742,-0.00267,0.79747,9.92111,-0.09273,-0.1779,-0.04263,274.19888,-7.90366,-0.90197,1019.29651
2018.02.26 11:07:20,32.11937,-5.80711,-30.11646,0.16971,1.16858,8.92273,0.16826,-0.19069,0.05217,273.70895,-8.19607,0.50071,1019.29633
2018.02.26 11:07:20,31.50043,-6.76308,-30.94139,0.42111,1.30026,8.85089,0.017,-0.1044,0.03938,273.2464,-7.85264,1.00089,0.017
2018.02.26 11:07:20,30.95684,-6.81953,-30.60379,0.93825,1.63066,9.1358,-0.01709,0.10759,-0.06927,272.92859,-8.12877,0.75262,-0.01709
2018.02.26 11:07:20,30.56316,-7.66315,-29.7039,0.24155,2.00175,9.0161,0.04576,0.16084,0.16508,272.00107,-8.52554,0.33506,1019.29535
2018.02.26 11:07:20,30.91927,-8.99448,-28.91655,-0.02661,1.44151,10.61542,0.04362,-0.19601,0.09904,270.05304,-9.0044,0.68512,1019.2951
2018.02.26 11:07:20,29.8502,-9.29451,-29.12273,-0.12238,0.1702,11.9059,-0.31856,0.05432,0.05537,269.41547,-8.01418,0.87486,-0.31856
2018.02.26 11:07:21,30.13172,-10.15701,-29.02927,-0.02901,1.21646,8.9754,0.11394,-0.09801,0.09479,267.64832,-8.21366,0.28713,1019.29498
2018.02.26 11:07:21,29.08154,-11.37581,-28.50399,-0.49826,1.14224,9.38959,-0.05331,0.06285,0.15869,266.21683,-7.6482,-0.26272,1019.29468
2018.02.26 11:07:21,29.10042,-11.46946,-28.27873,-0.09125,1.62827,9.18369,-0.0352,-0.02025,-0.04051,265.79626,-7.99381,-0.22054,1019.29443
2018.02.26 11:07:21,28.63178,-12.03194,-28.48511,-0.14632,1.95148,9.19327,0.02232,-0.07138,-0.05435,265.43298,-8.09984,0.11508,0.02232
2018.02.26 11:07:21,27.67544,-11.69453,-28.97243,0.00212,1.46545,10.54839,0.00421,-0.09268,-0.24611,266.45132,-8.45492,-0.18428,0.00421
2018.02.26 11:07:21,27.60029,-11.01971,-28.5038,-0.05055,0.71846,11.05116,-0.18327,-0.06392,-0.2184,267.17102,-7.96073,-0.18298,1019.29437
2018.02.26 11:07:21,27.20661,-10.30693,-28.44791,0.39478,0.66341,9.41832,0.07771,-0.0799,0.1097,266.71234,-6.51906,-0.28358,0.07771
2018.02.26 11:07:21,27.37541,-9.95083,-28.65391,0.30618,0.62509,9.72957,0.09476,-0.22585,0.02341,266.12573,-6.93137,0.85426,1019.29535
2018.02.26 11:07:21,26.77536,-10.42004,-28.84121,0.35646,1.18054,8.5636,0.19597,0.07455,-0.05968,266.17764,-7.09515,0.37365,0.19597
2018.02.26 11:07:22,26.51272,-10.26955,-28.72868,0.37083,1.46066,9.30101,-0.09485,0.1747,0.02448,265.50446,-7.07972,-0.07943,1019.29639
2018.02.26 11:07:22,26.49422,-9.93195,-28.39165,0.30858,1.75276,9.32495,-0.00751,-0.05327,0.03726,265.29553,-6.97946,-0.09497,1019.29688
2018.02.26 11:07:22,25.91305,-10.26974,-28.54156,0.5049,1.57799,10.88837,0.07027,-0.18643,0.03619,264.81259,-7.07852,1.39014,0.07027
2018.02.26 11:07:22,25.85697,-9.89437,-28.59783,-0.10323,0.38089,11.21637,-0.30365,0.08202,0.16083,263.71396,-5.99721,1.14706,-0.30365
2018.02.26 11:07:22,25.74444,-10.49442,-28.99151,-0.14392,1.34814,8.51332,0.32805,0.14061,0.10118,262.79651,-6.80021,0.46259,0.32805
2018.02.26 11:07:22,25.313,-10.96344,-28.82271,-0.00267,0.92676,9.05202,0.07346,-0.00427,0.082,262.00323,-7.74372,0.83204,0.07346
2018.02.26 11:07:22,24.9754,-10.62584,-28.50399,-0.29475,1.42236,9.02568,-0.09485,0.19814,-0.0927,262.20261,-7.69116,0.66318,-0.09485
2018.02.26 11:07:22,25.35019,-9.91344,-28.78513,0.00931,1.91078,9.44466,-0.11084,-0.05113,-0.15662,262.81406,-7.17022,0.52352,-0.11084
2018.02.26 11:07:22,25.44422,-9.50089,-28.4481,-0.05534,1.88445,9.65535,0.00209,0.02982,-0.19498,263.62161,-7.21503,0.30264,1019.2998
2018.02.26 11:07:23,26.04408,-8.33836,-28.61652,-0.12238,1.16858,10.71359,0.01381,0.08948,-0.15875,264.4353,-7.21952,-0.07911,0.01381
2018.02.26 11:07:23,25.3315,-6.46343,-28.1477,-0.23012,0.15344,10.95061,-0.3569,-0.00214,-0.1268,264.82974,-5.37618,-0.27504,-0.3569
2018.02.26 11:07:23,24.69406,-5.61962,-28.05386,0.12662,0.64664,8.60909,0.28864,0.0426,0.12888,264.18738,-6.29191,-0.30559,1019.30035
2018.02.26 11:07:23,24.80659,-6.51951,-28.26004,0.33492,0.72565,8.93948,0.02979,0.09055,-0.12573,264.40887,-6.73954,-0.554,0.02979
2018.02.26 11:07:23,25.35038,-6.14471,-28.59764,0.19844,1.25955,9.05679,-0.1087,-0.03836,-0.05328,264.55307,-6.55362,-0.35063,-0.1087
2018.02.26 11:07:23,25.61302,-5.43213,-28.76663,0.02127,1.71684,9.69127,-0.11189,-0.01811,0.08626,264.56555,-5.79832,-0.5566,1019.3009
2018.02.26 11:07:23,24.8064,-5.4697,-28.80421,0.11943,1.4511,10.41431,0.01913,-0.02557,0.09904,264.21716,-5.90758,-0.36249,0.01913
2018.02.26 11:07:23,24.45049,-5.24426,-29.08535,-0.12477,0.73523,11.27863,0.00314,0.13847,0.09479,263.68582,-6.21897,-0.56557,1019.30127
2018.02.26 11:07:23,24.76921,-5.50671,-28.99151,-0.62755,0.85254,8.67851,0.1949,0.14168,0.16508,262.54129,-5.76468,-0.43487,0.1949
2018.02.26 11:07:24,24.43161,-6.10714,-29.46014,-0.35222,0.69691,8.59233,0.10008,0.04153,0.05856,262.08029,-6.52156,-0.81765,0.10008
2018.02.26 11:07:24,24.4503,-6.03199,-30.26638,0.03564,1.04648,9.12624,0.06494,-0.17471,0.08093,261.45517,-6.52608,0.28316,0.06494
2018.02.26 11:07:24,24.07551,-6.0318,-30.04169,-0.24927,1.47504,9.4303,-0.07355,-0.08203,0.00424,261.61487,-6.4713,0.20205,-0.07355
2018.02.26 11:07:24,23.90652,-5.71308,-30.023,-0.16069,1.95866,9.50212,0.01486,0.02023,-0.13957,262.54608,-6.50669,0.06092,0.01486
2018.02.26 11:07:24,23.64445,-5.11341,-30.96008,-0.17744,0.9938,11.00328,-0.04478,0.01704,-0.21628,263.7496,-6.50683,-0.08804,1019.30237
2018.02.26 11:07:24,23.73829,-4.06342,-30.56622,-0.34743,0.40723,11.2858,-0.16942,0.02876,-0.26848,265.59262,-6.29808,-0.97531,1019.30194
2018.02.26 11:07:24,23.77548,-2.95734,-30.54752,0.00452,0.54608,8.99695,0.18851,0.02556,0.02022,266.26132,-5.90042,-1.51119,0.18851
2018.02.26 11:07:24,23.90652,-2.46983,-31.22272,0.19604,0.73523,8.86287,0.02765,-0.02344,-0.05435,266.48398,-6.44163,-1.07426,0.02765
2018.02.26 11:07:24,24.16897,-2.16961,-31.26011,-0.04576,1.28828,8.80301,0.04683,0.00958,0.04259,266.63263,-6.67876,-1.05886,1019.3006
2018.02.26 11:07:25,23.83175,-2.28176,-31.03523,-0.04816,1.60432,9.56676,-0.03627,0.00745,0.03938,267.1853,-6.49015,-0.95402,-0.03627
2018.02.26 11:07:25,23.51322,-2.038,-31.4476,-0.06252,1.58755,10.03363,0.06281,-0.01811,0.08519,267.40088,-6.99562,-1.20836,0.06281
2018.02.26 11:07:25,23.02589,-2.07577,-31.63528,0.0141,0.66341,11.36241,-0.09698,-0.09908,0.15764,267.1749,-7.0355,-0.46624,1019.29974
2018.02.26 11:07:25,22.21947,-2.11315,-32.25384,-0.23491,0.51018,10.05278,-0.19818,-0.03729,0.19917,266.16916,-5.72046,0.04162,-0.19818
2018.02.26 11:07:25,22.53819,-1.92566,-31.78501,-0.38814,0.55806,9.64337,-0.08208,-0.05008,0.12355,265.8479,-6.12653,-0.18626,1019.29956
2018.02.26 11:07:25,22.12601,-2.45094,-32.02915,0.14339,1.44151,8.42712,0.18958,-0.11612,-0.00748,265.50314,-6.26617,0.75684,0.18958
2018.02.26 11:07:25,22.03197,-2.46964,-32.6479,-0.32109,1.54686,9.64337,-0.06609,0.02342,-0.03412,266.09531,-6.44239,0.3355,-0.06609
2018.02.26 11:07:25,22.01328,-2.45075,-32.8167,-0.06491,1.985,9.32016,0.07878,-0.02344,-0.08632,266.67578,-6.64454,0.39149,1019.29858
2018.02.26 11:07:25,21.67568,-1.81332,-33.39748,-0.18703,1.17577,10.87639,0.04469,-0.06073,-0.10655,268.29309,-7.13323,0.59994,1019.29816
2018.02.26 11:07:26,21.73176,-1.04446,-33.21018,0.18648,-0.0788,10.48613,-0.18541,0.05646,-0.17047,270.12274,-6.48307,0.42235,-0.18541
2018.02.26 11:07:26,21.69456,-0.33188,-33.26626,-0.11998,0.71129,8.82935,-0.06503,0.26631,-0.02666,270.43964,-5.69987,-0.59369,1019.29736
2018.02.26 11:07:26,21.93832,0.4364,-33.60386,0.33971,0.60834,9.72717,-0.08847,-0.07352,-0.16515,271.26764,-5.20962,-0.49413,-0.08847
2018.02.26 11:07:26,21.93851,0.75531,-33.77266,-0.00507,1.25238,9.00174,0.05641,-0.0554,-0.03944,271.91592,-5.58244,-0.80545,0.05641
2018.02.26 11:07:26,22.10712,0.90542,-33.81004,0.04044,1.74797,9.20045,0.07027,0.08308,0.00317,272.96643,-5.95595,-1.01203,0.07027
2018.02.26 11:07:26,22.01328,0.99926,-33.73508,-0.08408,1.21886,10.67528,0.03723,-0.05647,0.10118,273.33469,-6.28096,-1.2871,0.03723
2018.02.26 11:07:26,21.91925,0.69904,-34.20391,-0.01224,1.31941,11.20918,0.07132,-0.04475,0.09584,273.44547,-6.84996,-0.75297,0.07132
2018.02.26 11:07:26,21.97552,1.18675,-34.33514,-0.53178,0.68495,9.48776,0.07664,0.03941,0.14911,272.80518,-5.96814,-0.71336,1019.29437
2018.02.26 11:07:26,22.23835,0.45547,-34.37233,-0.79515,0.60834,9.25792,0.0106,0.05965,0.18745,272.0791,-6.88853,-1.3027,1019.29407
2018.02.26 11:07:27,21.69456,-0.12589,-34.25999,-0.29715,1.27632,8.69289,-0.00858,-0.11612,0.12141,271.65927,-6.66391,-0.82448,1019.29382
2018.02.26 11:07:27,21.28181,-0.50087,-34.18503,-0.12477,1.56361,9.44705,-0.10019,-0.06073,0.14378,271.48148,-6.53904,-0.58742,-0.10019
2018.02.26 11:07:27,21.39416,-0.48199,-34.95388,0.12901,1.81979,9.40875,0.05641,-0.06818,-0.0192,271.97955,-6.70828,-0.03005,0.05641
2018.02.26 11:07:27,20.68157,-0.18215,-35.23521,0.00212,1.39124,10.85963,-0.03946,-0.17683,-0.13425,272.97333,-6.65066,0.50758,-0.03946
2018.02.26 11:07:27,20.56942,0.43659,-34.86004,0.03804,-0.00697,11.40073,-0.20457,-0.04581,-0.28445,274.65314,-6.31774,-0.0879,-0.20457
2018.02.26 11:07:27,20.40043,1.54305,-34.729,0.20323,0.76157,8.79822,0.23431,0.13847,-0.02026,275.44427,-5.88079,-0.7695,1019.29395
2018.02.26 11:07:27,20.71915,1.37424,-34.86004,0.01888,0.58679,8.95384,0.01486,0.04367,-0.09164,276.00864,-6.00191,-0.8687,0.01486
2018.02.26 11:07:27,21.20686,1.8055,-34.5602,0.12662,1.09436,9.24355,-0.06396,-0.01918,-0.03944,276.64291,-6.03454,-0.85399,-0.06396
2018.02.26 11:07:27,21.18816,2.51808,-34.99126,0.27745,1.89163,9.26749,0.01381,-0.05008,-0.00215,277.85211,-5.83513,-0.5299,1019.29401
2018.02.26 11:07:28,20.36304,2.40536,-35.0853,0.10747,1.43672,10.21799,0.03937,-0.02664,-0.04477,278.54291,-6.15755,-0.43833,0.03937
2018.02.26 11:07:28,20.71915,2.34909,-34.46636,-0.22293,1.19492,10.89316,0.02339,0.0916,0.10437,278.7999,-6.58311,-0.56295,0.02339
2018.02.26 11:07:28,21.07563,2.64912,-34.61628,-0.33067,0.73523,9.68408,-0.06396,0.0703,0.12888,278.06433,-5.1797,-0.34783,-0.06396
2018.02.26 11:07:28,20.81299,2.18029,-34.93519,-0.39293,0.53651,9.53325,-0.00858,0.02556,0.08519,277.91681,-5.45687,-0.89768,-0.00858
2018.02.26 11:07:28,21.05694,2.21786,-35.04753,-0.12956,1.31702,8.61627,0.12459,-0.04688,0.00529,277.49319,-5.61025,-0.75987,1019.29565
2018.02.26 11:07:28,21.26331,2.04906,-34.95407,-0.49348,1.54926,9.40157,-0.03839,0,0.00529,278.47644,-5.95068,-1.17535,1019.2959
2018.02.26 11:07:28,21.35696,1.78661,-34.70993,-0.23251,1.87486,9.29143,0.08731,0.0799,-0.14917,279.94604,-6.50192,-1.17221,0.08731
2018.02.26 11:07:28,21.26293,2.1244,-35.12249,-0.54616,1.37927,10.55557,0.08092,0.11824,-0.10016,281.39041,-6.74439,-1.60244,0.08092
2018.02.26 11:07:28,21.39435,2.03056,-35.01015,-0.06731,-0.01895,11.50128,-0.18327,-0.13956,-0.20135,282.34052,-6.42739,-1.44525,1019.29675
2018.02.26 11:07:29,21.52557,2.68688,-35.53505,-0.10083,0.60115,9.12863,0.07664,-0.03197,0.04259,282.50592,-5.69883,-1.57895,0.07664
2018.02.26 11:07:29,21.00029,2.59323,-36.86619,0.20563,0.55806,9.07596,-0.02029,0.00958,-0.00748,282.3215,-5.52729,-0.95331,-0.02029
2018.02.26 11:07:29,21.24424,2.04926,-36.15398,-0.00984,1.20688,8.71683,0.05109,0.03195,0.10437,281.8945,-5.78252,-1.22919,0.05109
2018.02.26 11:07:29,22.27573,2.53658,-35.85434,0.0117,1.56122,9.44466,-0.02667,0.07455,-0.00854,282.31375,-5.53991,-1.31659,-0.02667
2018.02.26 11:07:29,21.80691,2.18029,-35.89153,0.17929,1.33377,10.20363,0.01807,-0.05434,0.06815,282.52542,-5.9384,-1.03285,1019.29706
2018.02.26 11:07:29,22.01309,1.86138,-36.2854,-0.27321,0.73763,11.42706,-0.12468,0.13635,0.14059,282.35516,-6.20656,-0.49783,-0.12468
2018.02.26 11:07:29,22.20058,1.16787,-36.4542,-0.3618,0.28271,10.85245,-0.20457,-0.04794,0.1342,281.11942,-4.75372,-0.75053,-0.20457
2018.02.26 11:07:29,21.9944,0.88673,-36.22913,-0.38814,0.4575,9.26749,0.07346,-0.10333,0.06921,280.85529,-5.80284,-1.31075,0.07346
2018.02.26 11:07:29,21.80691,0.45567,-37.01649,-0.34503,1.26434,8.2691,0.1917,-0.16939,0.01701,280.05792,-6.14032,-0.08258,0.1917
2018.02.26 11:07:30,21.95683,-0.2758,-37.41035,-0.40729,1.31223,9.12863,-0.01816,-0.00534,-0.02986,280.36929,-6.44462,-0.14918,1019.29675
2018.02.26 11:07:30,21.43192,-0.08831,-37.76665,-0.17026,1.80544,9.41592,0.00314,-0.0618,-0.05435,280.78513,-6.43676,0.20837,1019.29675
2018.02.26 11:07:30,21.16947,-0.06962,-37.78515,-0.41925,1.0369,10.89793,-0.07355,-0.05647,-0.1236,281.82614,-6.54951,0.02297,-0.07355
2018.02.26 11:07:30,21.18816,0.19302,-37.41035,0.22957,-0.13147,11.95139,-0.37502,-0.01385,-0.20882,282.82855,-5.53245,-0.25006,-0.37502
2018.02.26 11:07:30,21.54446,1.80531,-37.72888,-0.01942,0.97464,8.80061,0.23006,0.20346,-0.07353,283.25714,-5.22071,-1.1585,0.23006
2018.02.26 11:07:30,22.29462,1.86157,-37.48531,0.05479,0.40244,9.43987,0.04044,-0.01279,-0.10229,283.54102,-5.64751,-1.47843,1019.29572
2018.02.26 11:07:30,22.46304,1.8055,-37.18529,0.1721,1.23561,8.5181,0.09476,0.03514,0.00211,283.70233,-6.32825,-1.35779,0.09476
2018.02.26 11:07:30,21.91944,1.56193,-37.29782,0.00931,1.4894,9.24834,-0.05118,0.0639,-0.05968,284.31516,-5.83221,-1.12051,-0.05118
2018.02.26 11:07:30,22.65072,2.61173,-37.01649,-0.2397,1.79825,9.38719,-0.02348,0.04047,0.06175,284.43805,-5.88229,-1.26395,-0.02348
2018.02.26 11:07:30,22.93167,2.51789,-36.96022,0.26549,1.52771,10.73753,0.00635,-0.13103,0.11609,284.04987,-5.59273,-0.37104,0.00635
2018.02.26 11:07:31,22.10693,2.29282,-37.44774,-0.12717,-0.04289,11.13017,-0.21843,-0.07564,0.21835,283.09024,-4.50583,0.18737,1019.29358
2018.02.26 11:07:31,22.27592,2.4992,-37.1664,-0.55573,0.63947,9.07117,0.15549,0.16191,0.07986,282.42746,-4.97067,-0.37919,1019.29358
2018.02.26 11:07:31,22.40696,2.10533,-36.58543,-0.34026,0.88127,8.98737,0.15228,-0.06712,0.10651,281.73288,-5.45125,-0.33512,0.15228
2018.02.26 11:07:31,22.36919,1.37386,-36.73534,-0.29236,1.19492,9.03525,0.04469,-0.01172,0.00104,281.94641,-6.49483,-0.02063,0.04469
2018.02.26 11:07:31,22.14451,0.38052,-36.24763,-0.17984,1.90839,9.10229,0.08943,-0.10973,0.03513,281.84836,-6.88799,0.28645,0.08943
2018.02.26 11:07:31,21.69456,-0.05054,-37.12883,-0.08885,1.8605,9.61465,0.05641,0.00426,-0.05861,282.21301,-7.39957,0.38243,1019.29376
2018.02.26 11:07:31,22.40696,0.19302,-37.05406,0.02127,1.01295,11.2451,-0.02774,0.12357,-0.0746,282.91876,-7.31128,0.09232,-0.02774
2018.02.26 11:07:31,22.98851,0.68073,-36.41644,0.37801,0.0457,10.95779,-0.29086,0.00745,-0.03624,282.96808,-5.60073,0.06267,-0.29086
2018.02.26 11:07:31,23.68145,2.18067,-35.91022,0.30858,0.3737,9.60028,-0.05438,0.0916,-0.18645,283.23322,-5.46389,-0.58219,1019.29456
2018.02.26 11:07:32,23.10047,2.93064,-35.29148,0.1721,0.72086,9.07596,0.00528,0.147,-0.12573,283.81079,-5.17628,-1.21434,1019.29504
2018.02.26 11:07:32,23.4005,3.60565,-35.31036,0.05479,1.10393,9.09511,-0.04372,0.00319,-0.07353,284.43942,-5.30597,-1.78156,-0.04372
2018.02.26 11:07:32,24.15066,3.64304,-35.49786,-0.07689,1.68333,9.34171,0.02765,-0.07564,-0.00961,284.95349,-5.28672,-1.28503,0.02765
2018.02.26 11:07:32,24.39442,3.86791,-35.19764,-0.13196,1.25955,10.87639,0.01593,-0.11505,0.082,285.12228,-5.4607,-0.48566,0.01593
2018.02.26 11:07:32,23.98167,3.3617,-34.4099,-0.17026,0.9483,11.29778,-0.11829,0.06923,0.15337,284.61945,-5.24216,-0.36647,1019.29572
2018.02.26 11:07:32,23.73791,3.39909,-34.05342,-0.19659,0.76396,9.04962,0.1427,0.04581,0.1342,283.32758,-4.73455,-0.64586,1019.29614
2018.02.26 11:07:32,24.30077,2.81792,-34.12857,-0.56052,0.43594,9.60507,-0.04799,-0.01067,0.20131,282.16644,-5.34485,-0.79642,-0.04799
2018.02.26 11:07:32,24.46938,1.9556,-34.72881,-0.23251,1.40082,8.54204,0.11926,0.00638,0.02554,281.72369,-5.97574,-0.09312,0.11926
2018.02.26 11:07:32,24.33815,1.82419,-34.33533,-0.34743,1.3625,9.40396,-0.06929,-0.12358,0.06496,281.7016,-5.88,0.26333,-0.06929
2018.02.26 11:07:33,23.71941,2.19898,-33.99734,-0.22054,1.81023,9.33453,0.08199,0.0703,-0.12253,282.51746,-6.45174,0.53425,0.08199
2018.02.26 11:07:33,23.51303,2.12402,-33.69732,0.09309,0.98183,10.77344,-0.00218,0.01384,-0.08099,283.60559,-6.48542,0.35181,-0.00218
2018.02.26 11:07:33,22.5008,2.70538,-32.91016,0.20323,0.00978,10.92906,-0.3143,0.07562,-0.20135,284.03348,-5.83401,0.47482,1019.29834
2018.02.26 11:07:33,22.50099,3.84922,-32.8352,0.06198,0.64903,9.24834,0.0905,0.10439,-0.05756,284.74649,-4.81579,-0.36069,0.0905
2018.02.26 11:07:33,22.5378,3.83072,-32.3103,0.16254,0.60594,8.86047,0.03404,0.08095,-0.1481,285.41269,-4.95463,-0.35002,1019.29877
2018.02.26 11:07:33,22.5378,4.22401,-32.08542,0.06677,1.09915,9.28903,-0.03946,0.00851,-0.0746,285.75562,-5.25927,-0.88314,1019.29895
2018.02.26 11:07:33,22.59445,4.41151,-31.91605,-0.02901,1.76952,9.25073,0.07027,0.07137,0.07028,286.24649,-5.09879,-0.89433,0.07027
2018.02.26 11:07:33,22.83783,3.92456,-31.2788,0.16254,1.12787,10.56993,0.04895,-0.02238,0.11502,285.81424,-5.86769,-0.57271,0.04895
2018.02.26 11:07:33,23.19412,2.96803,-31.05373,-0.17744,1.50137,10.75189,0.07132,0.05539,0.15231,285.15729,-6.34482,-0.675,1019.29968
2018.02.26 11:07:34,22.81952,2.57416,-30.79147,0.03325,0.53651,9.82773,-0.00963,-0.11932,0.09691,283.99298,-5.40515,-0.05881,1019.30005
2018.02.26 11:07:34,21.97571,2.14272,-30.86662,-0.38574,0.42398,9.38719,0.07878,0.13103,0.07454,283.47223,-5.9705,-0.74341,1019.30029
2018.02.26 11:07:34,21.88187,1.52416,-30.9042,-0.01942,1.14224,9.04243,-0.00537,-0.13849,0.18959,282.22684,-5.73423,-0.19171,1019.30029
2018.02.26 11:07:34,22.25666,1.18675,-30.30396,-0.25166,1.47025,9.32016,-0.02455,-0.07245,0.05856,281.90839,-6.01844,0.10571,-0.02455
2018.02.26 11:07:34,21.67568,1.29948,-30.64137,-0.18224,1.71924,9.44466,0.03191,-0.01067,0.02129,281.88159,-6.17227,0.30153,1019.30023
2018.02.26 11:07:34,21.41323,1.11179,-30.39761,-0.14392,1.26195,10.57951,0.01807,-0.00534,-0.08525,283.07224,-6.70149,0.26014,0.01807
2018.02.26 11:07:34,21.22555,1.73054,-31.1285,0.74911,1.02254,10.17729,0.07985,-0.06392,-0.28871,284.10065,-7.25786,0.15568,0.07985
2018.02.26 11:07:34,21.15078,2.96803,-31.12869,0.15056,0.13188,9.8828,-0.13214,0.07883,-0.07672,285.18396,-5.50142,-0.47532,-0.13214
2018.02.26 11:07:34,20.71934,3.21178,-30.9227,0.31337,0.53412,9.63141,-0.12575,-0.08842,-0.1481,285.50397,-5.06648,-0.08664,-0.12575
2018.02.26 11:07:35,21.18816,4.43058,-31.46629,-0.02182,0.92676,8.84612,-0.00644,0.11078,-0.02026,285.9364,-4.70336,-0.35141,1019.29968
2018.02.26 11:07:35,21.35696,4.35562,-31.26011,0.29422,1.19012,9.24115,-0.07248,-0.02876,0.02022,285.90213,-4.4774,-0.01655,1019.29956
2018.02.26 11:07:35,21.52576,4.76799,-30.7539,0.21521,1.29547,9.50691,0.00635,-0.02771,0.14592,285.508,-4.52096,0.13347,1019.29956
2018.02.26 11:07:35,21.3007,4.74911,-30.69763,0.14339,1.01056,10.96977,-0.02348,-0.04262,0.08307,285.27429,-4.42981,0.59752,-0.02348
2018.02.26 11:07:35,20.66307,5.04913,-31.09112,-0.28279,0.0457,10.70641,-0.13214,0.049,0.19492,284.02155,-2.47323,0.73869,-0.13214
2018.02.26 11:07:35,21.93813,5.6303,-31.46648,-0.19659,0.31145,8.59711,0.24496,0.0703,0.21729,283.18515,-3.40157,0.18549,1019.30066
2018.02.26 11:07:35,21.75102,4.35562,-31.82259,0.09071,0.65622,9.20285,0.04256,-0.04155,0.1555,281.85455,-3.355,0.76579,0.04256
2018.02.26 11:07:35,21.75083,3.77426,-31.99158,-0.37616,0.94592,9.19806,-0.0629,0.06818,-0.13745,282.33096,-3.85288,0.62515,-0.0629
2018.02.26 11:07:35,21.76933,4.52423,-31.63528,-0.42883,1.49898,9.84688,-0.0416,-0.09056,-0.12999,283.56146,-3.49014,0.62188,-0.0416
2018.02.26 11:07:36,21.91925,5.48038,-32.38544,-0.06491,0.97464,10.46458,0.06813,-0.03197,-0.10976,285.31244,-4.35709,0.53162,1019.30145
2018.02.26 11:07:36,21.99421,5.08671,-32.34787,0.28464,0.61313,10.84288,0.02446,-0.08949,-0.16621,286.5188,-4.91124,0.50257,0.02446
2018.02.26 11:07:36,21.86317,5.83687,-32.06673,0.15056,-0.06204,9.9642,0.00742,0.13954,-0.08099,287.42712,-4.24868,0.45583,0.00742
2018.02.26 11:07:36,22.10693,6.17428,-32.66659,0.32533,0.21808,9.2603,0.08199,0.07669,-0.0192,287.40631,-4.51887,-0.0456,0.08199
2018.02.26 11:07:36,22.81933,6.24924,-32.40395,0.09789,0.90761,8.48219,0.0905,0.0948,0.09052,287.54492,-4.36241,-0.19896,1019.30157
2018.02.26 11:07:36,22.87579,6.1182,-31.91624,0.20563,0.9507,9.36565,-0.07036,-0.02557,-0.00215,287.58545,-4.23943,-0.23371,-0.07036
2018.02.26 11:07:36,22.51949,5.96809,-31.54144,0.11226,1.4511,9.74394,0.09796,-0.00107,0.08626,287.69333,-4.5669,0.04851,0.09796
2018.02.26 11:07:36,22.46323,5.89294,-31.87904,0.2607,1.10872,10.85724,0.05855,-0.06712,0.14059,287.34802,-4.90577,0.45033,1019.30096
2018.02.26 11:07:36,22.87579,5.2927,-32.34768,0.00452,-0.08598,11.08229,-0.20457,0.05432,0.28972,285.9653,-4.60013,-0.01284,-0.20457
2018.02.26 11:07:37,23.43807,4.48685,-32.51648,-0.18463,0.30428,9.57634,0.0596,0.03621,0.10223,284.76572,-4.65875,-0.40072,0.0596
2018.02.26 11:07:37,23.88802,4.24309,-32.02858,-0.33786,0.95309,8.78625,0.02979,-0.00107,-0.04477,284.68555,-4.4872,0.30205,0.02979
2018.02.26 11:07:37,24.28169,4.67434,-32.3288,-0.01224,1.09676,9.12624,-0.03627,-0.04794,-0.13213,285.46094,-4.59703,0.33565,1019.30109
2018.02.26 11:07:37,24.01924,4.93698,-32.23515,0.05479,1.53967,9.36325,0.07771,-0.05966,-0.06395,286.22314,-4.78581,0.69891,0.07771
2018.02.26 11:07:37,24.09439,4.88071,-32.70359,0.00691,1.29547,9.94026,0.10541,-0.02025,-0.1971,287.67142,-5.71911,0.61368,0.10541
2018.02.26 11:07:37,23.81268,5.21832,-32.55367,-0.29236,0.81903,10.54839,0.01913,0.0735,-0.16515,289.10297,-5.86006,0.26912,0.01913
2018.02.26 11:07:37,23.9439,5.98679,-31.9725,-0.05774,0.1678,10.19644,-0.16409,0.00851,-0.13106,289.83203,-5.19835,0.31923,1019.30078
2018.02.26 11:07:37,24.78771,6.6431,-31.09112,0.03564,0.40962,9.45424,-0.08633,0.15872,-0.0746,290.28207,-3.8759,-1.03106,-0.08633
2018.02.26 11:07:37,24.84398,7.01809,-30.90363,0.01648,0.27075,8.96822,0.04362,0.11185,-0.05223,290.43384,-3.9645,-1.09276,0.04362
2018.02.26 11:07:38,25.08774,7.26185,-31.05392,0.1338,0.98901,9.21481,-0.05331,-0.05113,0.05431,290.1203,-4.17533,-1.21659,-0.05331
2018.02.26 11:07:38,25.85678,7.01809,-31.29768,0.24155,1.52771,9.46381,-0.00858,-0.0522,0.01595,290.14127,-4.15751,-0.92844,1019.29871
2018.02.26 11:07:38,26.19419,6.56776,-31.57883,0.02606,1.46545,9.97139,0.10861,0.06071,0.09052,289.88263,-5.15036,-0.85847,1019.29834
2018.02.26 11:07:38,26.40057,5.72414,-31.91643,-0.11519,0.84297,11.25706,-0.00858,-0.02664,0.1555,288.98984,-5.55705,-0.07647,-0.00858
2018.02.26 11:07:38,26.60656,5.79929,-32.10373,0.14816,0.81184,9.21242,0.14696,-0.05434,0.06496,287.77481,-4.47521,0.09099,1019.29828
2018.02.26 11:07:38,26.62563,4.89902,-32.46021,-0.29236,0.17259,9.11665,0.04256,0,0.03726,287.47815,-4.97415,-0.02973,1019.29846
2018.02.26 11:07:38,26.45683,4.76761,-32.85408,-0.10083,0.94113,8.69766,0.00102,-0.1353,0.14485,286.34222,-4.6683,0.5005,0.00102
2018.02.26 11:07:38,27.33822,4.2244,-32.85389,-0.34743,1.20688,9.70323,-0.05971,0.06497,-0.01282,286.18121,-4.70836,0.06881,-0.05971
2018.02.26 11:07:38,27.11315,4.01802,-32.55367,-0.12717,1.63306,9.52606,0.04576,0.0181,-0.04477,286.53867,-5.04341,-0.02346,0.04576
2018.02.26 11:07:39,27.93808,4.18682,-33.39767,-0.06731,1.31941,10.87399,0.0383,0.01277,-0.03412,286.83533,-5.17415,-0.07766,0.0383
2018.02.26 11:07:39,27.97546,3.84922,-33.88519,0.19366,0.48384,10.53403,0.08304,0.00533,-0.11934,287.08673,-5.5709,-0.33675,1019.29877
2018.02.26 11:07:39,28.12538,3.83053,-33.47282,0.1386,0.24202,9.83731,0.09476,0.06178,-0.08737,287.3269,-5.49277,-0.84385,1019.29877
2018.02.26 11:07:39,27.78797,3.6993,-34.12914,0.30858,0.83339,8.85808,0.07132,-0.06818,0.00529,287.19794,-5.81546,0.15087,0.07132
2018.02.26 11:07:39,28.40652,3.98045,-34.05418,0.30618,1.2428,9.34889,0.0383,0.0181,0.0607,286.82825,-6.20239,-0.06096,1019.29907
2018.02.26 11:07:39,28.72543,3.73669,-34.35383,0.37801,1.53011,9.44466,-0.01176,0.0735,0.01062,286.62357,-5.97305,0.06307,1019.29944
2018.02.26 11:07:39,29.06303,3.38039,-34.39121,0.35646,1.41757,10.22038,-0.00644,-0.08629,-0.06927,286.6001,-6.22776,0.16961,-0.00644
2018.02.26 11:07:39,29.51317,3.30544,-34.86023,-0.1918,1.18533,11.02245,-0.032,0.07776,0.01808,286.5401,-6.33097,0.23637,-0.032
2018.02.26 11:07:39,29.15688,3.58677,-35.16026,-0.18703,0.80226,9.18848,0.0415,-0.02557,0.16829,285.15729,-5.13129,0.44484,0.0415
2018.02.26 11:07:40,29.00677,3.7178,-34.99146,0.00931,0.35933,9.77745,-0.02029,-0.03409,0.01915,284.88614,-5.53538,0.26794,1019.30023
2018.02.26 11:07:40,29.47559,3.49293,-36.04145,0.10028,0.96747,8.90596,0.09689,-0.12144,0.17041,283.60022,-5.36704,0.77495,1019.30011
2018.02.26 11:07:40,30.41325,3.79314,-36.82899,-0.15111,1.24998,9.54282,-0.05971,-0.0309,0.00957,283.66705,-5.5058,0.96222,-0.05971
2018.02.26 11:07:40,30.48801,3.38078,-37.18529,0.10747,1.7767,9.19566,0.07771,0.00958,-0.12999,284.31921,-5.94497,1.15233,0.07771
2018.02.26 11:07:40,30.31921,3.77445,-37.41016,0.12662,1.04887,10.87878,0.00742,-0.07245,-0.1758,285.13754,-6.19878,1.22641,1019.30023
2018.02.26 11:07:40,29.86927,4.71191,-38.40351,0.41632,0.65382,10.97215,-0.02562,-0.12465,-0.22693,286.4798,-6.5915,1.38314,1019.3006
2018.02.26 11:07:40,29.71935,5.18074,-38.4037,0.41632,0.7041,8.99695,0.17679,0.13208,-0.09164,287.48334,-6.10526,0.83007,0.17679
2018.02.26 11:07:40,29.60682,5.48077,-38.23528,0.31816,0.57961,8.89879,0.02339,0.03941,-0.0714,287.54718,-6.60835,0.68488,1019.30096
2018.02.26 11:07:40,30.56316,5.87425,-37.42886,0.17929,1.16139,9.3082,-0.08633,-0.01385,0.04471,287.83435,-6.14602,0.11955,1019.3009
2018.02.26 11:07:41,30.97572,6.11801,-37.5227,0.15295,1.51094,9.58353,-0.08101,0.06285,0.0298,287.78418,-5.78901,0.04594,-0.08101
2018.02.26 11:07:41,30.43194,5.79929,-38.25397,0.18648,1.47025,9.82056,0.03618,-0.01385,0.10863,287.48224,-6.04116,0.12445,0.03618
2018.02.26 11:07:41,30.97553,5.19962,-38.68542,0.44266,1.39363,10.73274,0.15228,-0.05008,0.09904,286.70868,-6.67884,0.84942,0.15228
2018.02.26 11:07:41,30.95646,5.06821,-38.38539,0.17929,-0.03571,11.93224,-0.2834,0.07562,0.24925,285.77621,-5.81344,0.6155,-0.2834
2018.02.26 11:07:41,31.10695,3.66192,-38.32912,-0.16547,0.80226,8.46542,0.25029,0.04686,0.082,284.36514,-6.53351,0.49846,1019.30121
2018.02.26 11:07:41,31.20079,2.61154,-39.13517,-0.21574,1.00337,9.02328,0.02979,-0.17683,0.19705,283.06049,-6.64125,0.95888,1019.3009
2018.02.26 11:07:41,31.20079,1.71185,-39.34155,-0.06252,1.50137,9.29622,-0.0938,0.00851,-0.07672,283.40112,-6.69624,1.2803,-0.0938
2018.02.26 11:07:41,30.93815,1.56174,-39.9601,0.21281,1.95387,9.27707,0.03937,-0.03622,-0.06927,283.54712,-6.51472,1.61495,0.03937
2018.02.26 11:07:41,30.71327,2.16179,-41.02898,0.11226,1.54207,10.08151,0.01593,-0.02664,-0.15129,284.38171,-6.98284,1.57609,0.01593
2018.02.26 11:07:42,30.3194,1.99299,-40.72914,0.70602,1.05844,11.27623,-0.00751,-0.12677,-0.13106,285.28369,-7.09004,1.80565,1019.30042
2018.02.26 11:07:42,30.05676,2.25544,-41.06655,0.56955,0.86931,9.15018,0.13312,0.20772,-0.02773,285.64392,-6.22017,1.74813,0.13312
2018.02.26 11:07:42,29.92554,2.91176,-40.78503,0.14339,0.50778,9.60986,-0.02348,0.0799,-0.13745,285.80219,-6.44716,1.40027,-0.02348
2018.02.26 11:07:42,30.41286,2.6495,-41.34769,0.43307,1.20688,9.02806,-0.01283,-0.04581,-0.01068,285.98639,-6.72348,0.56534,-0.01283
2018.02.26 11:07:42,30.61924,2.96822,-41.10413,0.67969,1.33138,9.50212,-0.1151,0.01704,-0.11401,286.37512,-6.20423,0.99758,1019.29907
2018.02.26 11:07:42,30.35698,2.8553,-41.02917,-0.02182,1.70248,9.64337,-0.00963,0.0639,0.08519,286.32904,-6.33293,0.55959,1019.29858
2018.02.26 11:07:42,30.41344,2.85549,-41.02898,0.32533,1.2811,10.60585,0.01486,0.00958,0.09584,285.5332,-6.29316,0.74978,0.01486
2018.02.26 11:07:42,30.09434,2.55547,-41.44154,0.05479,0.21568,10.95779,-0.21736,-0.10121,0.12567,284.52545,-4.82497,0.81561,-0.21736
2018.02.26 11:07:42,29.68178,2.36778,-41.55388,-0.62755,0.86452,8.64261,0.22046,0.19493,0.09372,283.84256,-5.39408,0.19846,1019.29791
2018.02.26 11:07:43,29.85039,1.6367,-41.45985,-0.11279,0.83578,9.42072,0.0692,-0.29295,0.16508,282.745,-5.62347,1.30463,1019.29791
2018.02.26 11:07:43,29.45671,0.56782,-42.69772,0.16254,1.61151,9.12144,0.04256,-0.0831,-0.00536,282.59189,-6.64319,1.9305,0.04256
2018.02.26 11:07:43,28.68805,-0.06943,-42.79118,0.24155,1.93233,9.08792,0.0596,0.01491,-0.03624,282.6087,-6.77626,1.94499,0.0596
2018.02.26 11:07:43,28.81927,0.13676,-42.5478,0.20563,1.70248,9.78224,0.03511,0.07562,-0.11508,283.0199,-7.16892,1.44855,0.03511
2018.02.26 11:07:43,28.78189,0.75569,-42.22908,0.57195,0.97226,11.00089,-0.09273,0.01917,-0.18645,283.76202,-6.91549,1.32489,1019.29767
2018.02.26 11:07:43,28.53794,2.44312,-41.7038,0.22238,0.36412,10.31136,-0.24931,0.049,-0.20242,284.9711,-5.07958,0.83598,-0.24931
2018.02.26 11:07:43,29.1193,3.38058,-41.94756,0.30858,0.44792,9.83012,-0.02562,-0.05753,-0.0437,285.1608,-4.80491,1.05511,-0.02562
2018.02.26 11:07:43,29.15668,3.02448,-42.34123,0.20802,0.98183,8.26431,0.15761,0.19174,0.04152,284.96652,-5.06267,0.45794,0.15761
2018.02.26 11:07:43,29.02546,3.17459,-41.6666,0.49294,0.98183,9.51648,-0.04904,0.16512,0.04152,284.34579,-5.17421,-0.13588,1019.29822
2018.02.26 11:07:44,29.1193,2.91195,-41.6666,0.2583,1.48222,9.67929,0.03404,0.03621,0.06815,283.94736,-5.4938,-0.40724,1019.29858
2018.02.26 11:07:44,29.94423,2.21806,-41.44135,-0.02661,1.30505,10.4191,0.11926,-0.02771,0.09904,283.45004,-5.89757,0.05661,0.11926
2018.02.26 11:07:44,30.20668,1.71165,-42.02251,-0.25166,0.30905,11.09187,-0.17581,0.0916,0.16615,282.74564,-5.71101,-0.18131,1019.29932
2018.02.26 11:07:44,29.85058,0.84934,-41.47892,-0.38574,0.97943,8.76711,0.27692,0.05751,0.18533,280.93002,-5.42048,0.10479,0.27692
2018.02.26 11:07:44,29.64439,0.49324,-41.90998,0.06915,0.64664,9.57394,-0.0043,-0.1257,0.14485,280.19238,-5.49729,0.56591,1019.30048
2018.02.26 11:07:44,29.51298,-0.12569,-40.87887,-0.24208,1.41039,9.27946,0.00954,0.00638,-0.06607,280.1084,-6.32999,1.06039,0.00954
2018.02.26 11:07:44,29.66309,-0.48199,-41.31012,-0.16786,1.85092,9.18848,0.0905,0.02449,-0.06714,280.58484,-6.86173,0.85654,0.0905
2018.02.26 11:07:44,30.24426,-0.42572,-40.8226,-0.0697,1.12787,11.04878,-0.05757,-0.02557,-0.1481,281.53317,-7.17323,0.46848,-0.05757
2018.02.26 11:07:45,30.31921,-0.06943,-39.97898,0.64856,0.74242,11.01047,-0.02667,-0.01067,-0.12253,281.7699,-7.0088,0.16579,1019.30164
2018.02.26 11:07:45,30.01919,1.37405,-39.75391,0.11705,0.80226,9.55479,-0.02029,0.12889,-0.17686,282.45117,-6.20746,-0.16098,1019.30145
2018.02.26 11:07:45,30.75066,2.66781,-39.21032,0.33012,0.44073,9.83971,-0.09592,-0.09694,-0.08205,283.03625,-6.08696,-0.10764,-0.09592
2018.02.26 11:07:45,30.93815,2.79922,-38.79776,0.37083,1.33856,8.90117,-0.00111,-0.01385,0.05217,282.70276,-6.2443,-0.23458,-0.00111
2018.02.26 11:07:45,30.90057,2.6865,-38.85384,0.16733,1.4894,9.27707,-0.0352,-0.02344,-0.04051,282.95074,-6.13731,0.0247,1019.30115
2018.02.26 11:07:45,30.16911,1.78642,-38.45997,0.00212,1.37448,9.83971,0.02019,-0.03304,0.10544,282.53055,-6.45421,0.04876,1019.30115
2018.02.26 11:07:45,30.05676,2.25544,-38.61008,-0.32109,1.16139,10.98413,-0.03413,0.16191,0.12355,281.94858,-6.45153,0.33911,-0.03413
2018.02.26 11:07:45,30.69439,1.65558,-38.64746,0.09309,0.77592,9.80139,-0.00111,0.02982,0.26842,279.8457,-5.2374,0.2754,1019.30145
2018.02.26 11:07:45,30.24426,0.45547,-38.1979,-0.22054,0.6203,9.46381,0.07878,0.07669,0.19278,278.86249,-5.68919,-0.16996,0.07878
2018.02.26 11:07:46,30.46913,-0.46349,-37.56008,-0.17265,1.44391,8.41754,0.12566,-0.09056,0.23859,276.67084,-6.27669,0.55622,1019.30157
2018.02.26 11:07:46,30.15041,-0.53825,-37.44755,-0.08885,1.58517,9.05202,0.04044,-0.11186,0.05643,276.58832,-6.61651,0.88652,0.04044
2018.02.26 11:07:46,29.60682,-0.21935,-37.22248,0.21761,1.75995,9.35129,0.05748,-0.06712,-0.08737,277.00143,-6.97223,1.19886,0.05748
2018.02.26 11:07:46,29.00677,-0.2758,-37.20379,-0.0721,1.60672,11.13017,-0.06822,-0.02132,-0.16833,278.6864,-6.9847,1.03553,-0.06822
2018.02.26 11:07:46,28.59402,1.24264,-37.40997,0.32056,0.28033,11.14455,-0.16837,-0.08949,-0.26741,280.36411,-6.12184,1.0403,-0.16837
2018.02.26 11:07:46,28.87535,3.34301,-37.05387,0.40913,0.73763,9.07596,0.19916,0.15233,-0.18326,281.34775,-6.55621,0.23906,1019.30231
2018.02.26 11:07:46,28.91312,3.56789,-36.4727,0.18169,1.01775,8.4774,0.06067,0.15979,-0.08205,281.78943,-7.03393,-0.17808,0.06067
2018.02.26 11:07:46,28.40691,3.94287,-36.1351,0.21281,1.4463,9.14778,-0.07248,0.01277,-0.03731,282.29834,-7.01822,-0.588,1019.30206
2018.02.26 11:07:46,28.10688,4.80576,-35.02903,0.07155,1.87726,9.4303,0.00421,-0.02876,0.00211,283.13266,-6.81811,-0.48172,0.00421
2018.02.26 11:07:47,27.86293,4.76818,-35.70404,0.0524,1.37209,10.47417,0.06599,-0.08842,0.09479,283.11401,-7.1621,-0.11147,0.06599
2018.02.26 11:07:47,27.35672,4.78687,-34.99107,-0.00267,0.30905,11.68564,-0.22055,0.03728,0.19705,282.59164,-7.20865,0.33802,-0.22055
2018.02.26 11:07:47,27.35672,4.80556,-34.74751,-0.5246,1.25476,8.4774,0.20129,0.1747,0.24925,280.60794,-6.3957,-0.15766,0.20129
2018.02.26 11:07:47,27.50683,4.24309,-34.33514,-0.37137,0.73044,9.45903,0.0383,0.02556,0.15337,279.82233,-6.27064,0.25922,0.0383
2018.02.26 11:07:47,26.90678,4.0556,-33.79116,-0.28758,1.51094,8.90117,0.01807,0.01917,-0.00748,279.66196,-7.07821,0.37517,1019.29944
2018.02.26 11:07:47,26.64413,4.16813,-33.5474,-0.17505,1.64981,9.49014,-0.04692,-0.04369,0.01169,280.39685,-7.024,0.28566,1019.29871
2018.02.26 11:07:47,26.56898,4.20551,-33.6977,0.14577,1.45589,10.06715,-0.01816,-0.09056,-0.07779,281.60028,-7.15637,0.60137,-0.01816
2018.02.26 11:07:47,25.72536,4.54292,-33.41656,0.42351,0.74719,11.44621,-0.15025,-0.05859,-0.17259,282.95337,-6.5689,0.91647,-0.15025
2018.02.26 11:07:47,25.27561,6.09932,-33.34141,0.22957,0.71608,10.04321,-0.0043,0.16405,-0.31854,284.56854,-5.97496,0.79417,1019.297
2018.02.26 11:07:48,26.04427,7.11193,-32.49779,0.40434,0.48384,9.70563,0.00742,-0.16725,-0.11827,285.64789,-6.24916,0.28656,0.00742
2018.02.26 11:07:48,25.44403,6.90556,-31.97289,0.1721,1.40561,8.16376,0.17358,0.0948,-0.00322,286.24103,-6.95608,-0.23808,0.17358
2018.02.26 11:07:48,25.03128,6.62422,-31.99158,0.29422,1.58995,9.25552,-0.03413,0.03621,-0.06607,286.92313,-6.93732,-0.20297,-0.03413
2018.02.26 11:07:48,25.5188,6.66161,-32.12242,0.1721,1.985,9.17651,0.0596,-0.01067,0.04152,287.24014,-7.19604,-0.18466,0.0596
2018.02.26 11:07:48,24.97559,6.54907,-31.76632,0.53842,1.61629,10.5843,0.00635,-0.06285,0.15657,287.03525,-7.22185,0.46206,1019.2948
2018.02.26 11:07:48,25.33169,6.04305,-31.74763,-0.17265,0.4144,11.15891,-0.26636,-0.09161,0.19705,285.83765,-5.60336,0.28601,-0.26636
2018.02.26 11:07:48,25.53787,5.57423,-31.74763,-0.26364,0.8262,9.08313,0.11394,0.05113,0.17148,285.07703,-5.90654,0.2826,0.11394
2018.02.26 11:07:48,25.16289,5.59311,-31.4476,0.1362,0.81664,9.25073,0.06706,-0.1875,0.17894,284.1604,-5.98149,1.18926,1019.29395
2018.02.26 11:07:48,25.05035,5.04932,-32.04765,0.09789,1.3625,8.89639,0.03404,-0.0554,0.01808,284.15411,-6.64534,1.41714,1019.29388
2018.02.26 11:07:49,25.16289,4.50535,-31.80389,0.2583,1.68573,9.23636,0.00742,0.01598,-0.0746,284.84161,-6.76975,1.46032,0.00742
2018.02.26 11:07:49,24.80679,4.61807,-30.94139,0.16733,1.27393,10.72556,-0.0565,-0.06818,-0.14703,285.64883,-6.78403,1.5343,1019.29388
2018.02.26 11:07:49,25.18177,5.91164,-30.97858,0.27985,0.60594,11.20918,-0.07143,0.03728,-0.36221,287.73334,-6.79403,0.9726,-0.07143
2018.02.26 11:07:49,25.33169,7.14931,-30.56641,0.1769,0.8262,9.00891,0.20235,0.14168,-0.1694,289.62119,-6.381,-0.12807,0.20235
2018.02.26 11:07:49,25.18177,6.68068,-30.64137,0.3828,0.89325,9.00174,0.01381,-0.09056,-0.17259,290.63794,-6.82517,0.64421,0.01381
2018.02.26 11:07:49,25.50049,6.58646,-31.29749,0.14577,1.28589,8.79344,0.01593,0.01065,-0.0011,290.86151,-7.4101,0.2901,0.01593
2018.02.26 11:07:49,25.33169,6.00529,-31.35395,0.40674,1.56601,9.53564,-0.03413,0.06178,0.06282,290.72311,-7.26248,0.19197,-0.03413
2018.02.26 11:07:49,25.27523,5.9679,-30.11646,0.1338,1.54686,10.43108,0.02872,0.0426,0.12888,290.05701,-7.69284,0.26481,0.02872
2018.02.26 11:07:49,26.47572,5.16148,-29.72279,-0.10323,1.48222,11.09427,-0.07994,0.07883,0.17787,288.90164,-7.49968,0.407,-0.07994
2018.02.26 11:07:50,26.40057,5.49908,-29.6854,-0.40729,0.96507,9.23875,0.14377,0.07455,0.21622,287.20325,-6.89361,0.13073,0.14377
2018.02.26 11:07:50,26.60675,4.46796,-29.64764,-0.10562,0.72086,9.03046,0.05855,0.03728,0.10863,286.57956,-7.56774,-0.09786,0.05855
2018.02.26 11:07:50,26.88789,3.51181,-29.96635,0.33252,1.61389,8.37685,0.06813,-0.14063,0.1033,285.53018,-7.62094,0.90639,0.06813
2018.02.26 11:07:50,26.49441,3.23067,-30.36022,-0.16307,1.66179,9.55,-0.02242,-0.04262,-0.04263,285.77374,-7.8029,0.88378,-0.02242
2018.02.26 11:07:50,26.58806,3.19309,-30.2475,0.02846,2.16217,8.91554,0.0596,0.01917,-0.13745,286.40347,-8.12661,0.75017,1019.29407
2018.02.26 11:07:50,26.88808,3.53031,-29.81644,-0.29475,1.44391,10.76865,-0.08633,0.1012,-0.1236,287.45193,-7.84444,0.64163,1019.29419
2018.02.26 11:07:50,26.83182,4.5805,-30.15385,0.06438,0.50539,11.03201,-0.06183,0.07243,-0.29085,288.94223,-6.94385,0.83995,-0.06183
2018.02.26 11:07:50,26.96304,5.72414,-29.66652,0.36604,0.83818,9.08313,0.1853,0.01598,-0.21521,289.78745,-7.3989,-0.07087,0.1853
2018.02.26 11:07:50,27.26288,5.51796,-29.53529,0.20802,1.18773,8.47261,0.04895,0.13741,-0.06714,290.35135,-7.47133,0.0171,0.04895
2018.02.26 11:07:51,27.90031,6.00586,-29.66652,0.09549,1.49179,9.25313,-0.01176,0.03514,-0.10762,290.79993,-7.59915,-0.32196,-0.01176
2018.02.26 11:07:51,27.7504,5.66807,-30.11646,0.16014,2.05203,9.06638,0.08836,-0.06285,0.06389,290.96786,-7.94851,-0.47149,0.08836
2018.02.26 11:07:51,27.82555,4.9181,-30.34115,0.02367,1.53011,10.79021,0.0106,-0.09589,0.14697,290.4274,-8.31345,0.17587,0.0106
2018.02.26 11:07:51,28.16296,4.07448,-30.58529,0.33012,0.03372,11.80534,-0.33028,-0.08736,0.16296,289.34476,-7.75501,0.03973,-0.33028
2018.02.26 11:07:51,28.33157,3.99933,-30.92289,-0.48151,0.88606,8.95863,0.07239,0.12996,0.10118,287.74716,-7.20772,0.48107,0.07239
2018.02.26 11:07:51,28.66917,3.23048,-30.99747,-0.01224,1.25476,8.724,0.08517,-0.09482,0.21729,286.35663,-7.20618,1.04217,0.08517
2018.02.26 11:07:51,28.50056,2.64931,-31.82278,-0.1942,1.46066,9.02568,0.00102,-0.02238,0.05537,285.9039,-7.57936,1.21821,1019.29614
2018.02.26 11:07:51,28.6129,2.36778,-32.25403,-0.07689,1.85571,9.24834,-0.01495,0.02663,0.01489,285.47821,-7.43477,1.22519,-0.01495
2018.02.26 11:07:51,29.51279,2.10552,-32.34768,-0.27081,1.56122,9.98335,0.02979,0.09267,-0.0746,285.58719,-7.60123,0.40942,0.02979
2018.02.26 11:07:52,29.55055,2.19898,-32.1043,0.45941,1.53728,10.72316,-0.03413,-0.00214,0.03299,285.41055,-7.60546,0.30972,1019.2962
2018.02.26 11:07:52,30.13172,2.96803,-32.21645,0.09309,0.71129,10.17729,-0.17795,0.10226,-0.20242,286.20038,-5.70872,0.36616,1019.29602
2018.02.26 11:07:52,30.35679,3.1929,-32.94754,0.44984,0.42398,9.6386,0.02979,-0.17897,-0.07672,286.52301,-6.29217,0.31591,0.02979
2018.02.26 11:07:52,30.16949,3.83053,-33.28533,0.31337,1.1183,8.3577,0.14056,0.15765,-0.07246,287.14722,-6.67155,0.25764,0.14056
2018.02.26 11:07:52,30.50671,3.99933,-33.24776,0.51208,1.26913,9.37283,-0.08208,-0.07457,-0.04156,287.26141,-6.50218,0.51961,-0.08208
2018.02.26 11:07:52,31.05049,4.0369,-33.41637,0.22957,1.74078,10.08391,-0.00325,-0.08096,0.05537,287.04886,-6.55808,0.21438,-0.00325
2018.02.26 11:07:52,31.78177,3.28674,-34.24149,0.30139,1.76712,10.40714,0.07346,-0.07138,0.11823,286.26477,-6.86054,1.03675,0.07346
2018.02.26 11:07:52,31.55689,2.55547,-34.52282,0.78024,-0.0405,11.66408,-0.17049,-0.40587,0.22581,284.8645,-6.10951,2.04475,-0.17049
2018.02.26 11:07:52,31.35033,1.78661,-34.71031,-0.16547,0.53172,9.65056,0.03191,-0.0522,0.18959,283.07874,-7.01308,1.87706,0.03191
2018.02.26 11:07:53,31.59409,0.4179,-35.87265,-0.02182,1.32899,8.64738,0.0596,-0.01492,0.17574,281.83194,-7.18181,2.15941,1019.29401
2018.02.26 11:07:53,31.57539,-0.74444,-35.74162,0.04761,1.62108,9.02806,-0.00963,0.04793,0.01489,281.75879,-7.39477,1.77681,1019.29315
2018.02.26 11:07:53,31.65035,-0.55695,-35.89153,0.29422,2.09035,9.01849,0.07132,0.00426,-0.04584,281.63855,-7.75744,1.94219,0.07132
2018.02.26 11:07:53,32.86915,-0.78182,-36.00426,0.1338,1.36969,11.19003,-0.07462,-0.10014,-0.13531,282.10266,-7.72278,2.21109,1019.29199
2018.02.26 11:07:53,32.86915,-0.76313,-35.81657,0.52884,1.00577,10.94821,-0.13321,-0.11505,-0.19923,282.52216,-7.46575,2.24508,-0.13321
2018.02.26 11:07:53,32.6067,0.39921,-36.02276,0.74911,0.58917,9.4662,0.04895,0.07562,-0.11401,283.12891,-6.08385,1.70946,1019.29108
2018.02.26 11:07:53,32.77531,1.13029,-36.17287,0.75868,0.57481,9.5524,-0.06715,-0.0618,-0.17899,283.39746,-6.22975,1.81463,-0.06715
2018.02.26 11:07:53,33.78773,1.14918,-37.09126,0.33492,1.31223,8.6881,0.01913,0.01384,0.01062,283.30786,-6.61014,1.45069,1019.29047
2018.02.26 11:07:53,33.88138,1.07403,-37.1851,0.49294,1.81979,9.4303,-0.0107,0.02023,-0.06181,283.46298,-6.47091,1.4352,-0.0107
2018.02.26 11:07:54,34.31301,0.26798,-37.12902,0.44745,1.67615,10.11504,0.07985,0.00745,-0.02666,283.42392,-6.97738,1.27153,1019.29034
2018.02.26 11:07:54,34.46312,-0.25711,-37.24136,-0.08646,1.34335,10.78062,0.02232,0.12889,0.14378,282.35266,-7.2644,1.09604,1019.29034
2018.02.26 11:07:54,35.34431,-1.60694,-36.75404,-0.16547,0.91719,9.49493,-0.00858,0.1747,0.23647,279.94867,-5.78673,0.77112,-0.00858
2018.02.26 11:07:54,35.68172,-2.91958,-36.09753,-0.14392,0.58917,9.87083,0.08943,0.07669,0.11395,279.11343,-6.5769,0.04262,0.08943
2018.02.26 11:07:54,35.90641,-4.17576,-36.22894,0.07634,1.29547,8.60909,0.13205,-0.03943,0.15125,277.5314,-6.55516,0.31057,1019.29016
2018.02.26 11:07:54,36.11279,-5.43175,-35.40382,-0.26842,1.76474,9.29861,-0.02455,-0.05859,0.03194,276.72943,-6.82209,0.55351,-0.02455
2018.02.26 11:07:54,35.62546,-5.48801,-35.91022,0.09071,2.05443,9.30341,0.0383,-0.01172,-0.08844,276.604,-7.23087,1.1955,0.0383
2018.02.26 11:07:54,35.55069,-5.80692,-37.48531,0.10986,1.159,11.00089,-0.04799,-0.17578,-0.10976,276.84579,-7.30031,1.64758,-0.04799
2018.02.26 11:07:54,34.80053,-5.61943,-37.18529,0.64377,0.02415,11.41748,-0.27489,-0.1566,-0.21307,277.1665,-6.14116,2.22112,-0.27489
2018.02.26 11:07:55,35.06298,-5.16968,-37.09145,0.39717,0.61313,9.44945,0.06813,0.02342,-0.10442,277.32803,-5.72172,1.11338,1019.28955
2018.02.26 11:07:55,35.0069,-4.75712,-36.73534,0.41153,0.84058,9.15974,-0.0043,0.0799,-0.12999,277.57437,-5.66044,0.90399,1019.28925
2018.02.26 11:07:55,35.21328,-5.00088,-35.72273,0.35886,1.22125,9.07835,0.05748,0.05858,0.03726,276.67426,-6.36042,0.31081,0.05748
2018.02.26 11:07:55,35.26955,-5.75066,-34.78527,0.27505,1.66417,9.222,-0.01709,0.05219,-0.00322,276.45636,-6.36937,-0.08402,-0.01709
2018.02.26 11:07:55,34.81941,-6.8758,-34.78527,0.27745,1.20688,10.8716,0.02126,-0.04475,0.11288,274.93182,-6.79976,0.36081,0.02126
2018.02.26 11:07:55,34.36928,-7.94449,-34.86004,-0.10562,0.38089,11.60663,-0.24719,0.1225,0.16829,273.03766,-6.18936,-0.13834,-0.24719
2018.02.26 11:07:55,34.59435,-8.63838,-34.5787,-0.67305,0.95309,9.07835,0.07771,0.16298,0.19066,271.81973,-5.78485,-0.30606,1019.28918
2018.02.26 11:07:55,34.21898,-9.50089,-34.37252,-0.09604,0.45032,9.78943,0.05534,-0.16193,0.22581,269.86786,-6.0295,-0.1494,0.05534
2018.02.26 11:07:55,32.38163,-10.75706,-34.12895,-0.10323,1.31462,8.36487,0.07771,0.04581,0.00211,268.54117,-6.98148,-0.04006,0.07771
2018.02.26 11:07:55,32.08141,-11.97605,-33.75397,-0.13196,1.71684,9.0544,0.01167,-0.02025,-0.01814,267.82367,-7.072,-0.00187,0.01167
2018.02.26 11:07:56,32.25021,-12.38861,-33.34141,-0.07689,1.89641,9.42072,-0.02242,-0.01918,-0.0746,267.70972,-7.18283,-0.04945,1019.28918
2018.02.26 11:07:56,31.14433,-11.76968,-33.73508,0.27505,1.75276,10.9554,-0.00644,0.04793,-0.15236,267.73199,-6.90348,0.28248,-0.00644
2018.02.26 11:07:56,30.35698,-10.38208,-33.54759,-0.06013,0.22287,10.28741,-0.20351,0.23969,-0.25462,268.86151,-5.04003,0.01413,-0.20351
2018.02.26 11:07:56,30.13191,-9.70726,-32.8352,0.03325,0.52933,8.90596,0.327,0.1012,-0.06181,268.69595,-6.04841,-1.08738,0.327
2018.02.26 11:07:56,30.07565,-10.23216,-32.3103,0.19604,0.58917,8.70724,0.12566,0.05219,-0.10123,268.55685,-6.60067,-1.15615,1019.28961
2018.02.26 11:07:56,30.52559,-10.19459,-32.06654,-0.01703,1.29787,9.12863,-0.08208,-0.01172,-0.09697,268.16843,-7.20343,-0.90649,1019.28961
2018.02.26 11:07:56,29.73785,-10.10094,-32.61013,0.08353,1.88205,9.50452,-0.08208,-0.08842,0.07028,268.06592,-6.58098,-0.95452,-0.08208
2018.02.26 11:07:56,28.66917,-10.21347,-32.34749,0.39717,1.76952,10.45981,-0.05864,-0.13742,0.12674,266.91391,-6.46742,-0.23054,-0.05864
2018.02.26 11:07:56,27.9192,-11.07597,-32.62882,-0.15111,1.39842,10.99611,-0.01602,0.1161,0.21622,265.32755,-6.56482,-0.2347,1019.28949
2018.02.26 11:07:57,26.56898,-11.16982,-32.3288,-0.34982,0.92436,9.40636,0.19597,0.06178,0.14485,263.13416,-6.16947,0.68242,0.19597
2018.02.26 11:07:57,25.72536,-10.96306,-32.02896,-0.17744,0.77113,9.15257,0.02551,-0.12677,0.07135,262.64905,-7.14899,0.74297,0.02551
2018.02.26 11:07:57,24.39404,-11.73229,-32.798,-0.09843,1.42715,8.60669,0.10115,-0.15446,0.11395,261.84912,-7.37211,1.62832,1019.28986
2018.02.26 11:07:57,24.13158,-11.73229,-32.21664,-0.34503,1.64023,9.29622,-0.0874,-0.06073,0.08093,261.16861,-7.43481,1.494,-0.0874
2018.02.26 11:07:57,23.70052,-11.39488,-31.76632,0.2583,2.07837,9.56915,0.01913,-0.03304,-0.08311,261.05557,-7.52077,1.71932,0.01913
2018.02.26 11:07:57,23.64464,-11.37619,-31.6164,0.11226,1.17577,10.97455,-0.04372,0.10439,-0.18964,261.68896,-7.61782,1.1713,1019.29065
2018.02.26 11:07:57,22.74399,-10.56976,-31.22253,0.44984,0.12231,11.1613,-0.20351,-0.24289,-0.2951,262.5751,-6.97653,1.07071,-0.20351
2018.02.26 11:07:57,22.03178,-9.25713,-30.97897,0.37083,0.38089,9.89717,-0.05225,0.00426,-0.08418,263.58801,-5.71542,0.64478,-0.05225
2018.02.26 11:07:57,20.81318,-8.7883,-31.16627,0.51208,0.9962,8.4391,0.08517,0.17683,-0.05328,263.57288,-5.56904,0.94133,-0.01283
2018.02.26 11:07:58,20.79449,-8.6195,-30.90401,0.53363,0.88367,9.40636,0.03723,-0.01172,-3e-05,263.28879,-5.95126,0.63717,1019.2923
2018.02.26 11:07:58,20.06321,-8.84457,-30.09796,0.41632,1.6953,8.61627,0.05641,0.10971,0.04684,263.16644,-5.99594,0.28022,1019.29297
2018.02.26 11:07:58,19.70711,-9.63211,-29.79774,0.40913,1.62827,10.43585,0.00209,-0.06392,0.08839,262.17804,-6.37849,0.44194,1019.2934
2018.02.26 11:07:58,18.28175,-10.02579,-29.16031,-0.2397,1.2021,10.82611,-0.02774,0.24927,0.14804,260.68951,-6.19691,0.28586,-0.02774
2018.02.26 11:07:58,17.96303,-10.00729,-28.74813,0.33971,0.37849,11.2858,-0.20032,0.20772,0.10544,259.98233,-5.76684,-0.91717,1019.29395
2018.02.26 11:07:58,17.51308,-9.63211,-28.24173,-0.86458,0.83339,8.70724,0.25668,0.16084,0.01595,258.22321,-4.92287,-0.81187,0.25668
2018.02.26 11:07:58,16.91303,-10.10075,-27.54765,-0.67783,0.86931,8.69766,0.12991,-0.14914,0.16296,257.36377,-5.59909,-0.95253,0.12991
2018.02.26 11:07:58,16.36944,-10.41985,-26.89171,-0.29475,1.5732,8.95863,-0.05971,0.01704,0.02448,256.70844,-5.91939,-0.72126,-0.05971
2018.02.26 11:07:58,15.7505,-10.75726,-26.7416,-0.04816,1.91557,9.40636,0.00314,-0.07564,0.01489,256.20322,-5.88161,-0.51536,0.00314
2018.02.26 11:07:59,15.63816,-10.55088,-27.1162,-0.23251,0.80945,10.90273,0.07132,-0.10547,-0.10442,256.19705,-6.57805,-0.73375,1019.29297
2018.02.26 11:07:59,15.37571,-10.10075,-26.30997,0.64616,-0.36131,11.96815,-0.45279,-0.21092,-0.27913,256.8345,-5.55126,-0.04994,-0.45279
2018.02.26 11:07:59,15.54451,-9.01318,-25.86021,0.18408,0.76157,9.49973,0.03511,0.20453,-0.10229,257.29269,-4.9036,-0.12836,1019.29224
2018.02.26 11:07:59,15.48805,-9.25713,-25.93517,0.10507,0.51256,9.52846,0.07346,0.16724,-0.17473,257.42505,-5.41224,-0.73873,0.07346
2018.02.26 11:07:59,16.21933,-8.45089,-25.41027,0.22238,1.35771,8.43431,0.13098,0.0735,-0.10762,257.95511,-6.7547,-2.08172,1019.29163
2018.02.26 11:07:59,16.14437,-8.50716,-24.71657,-0.0721,1.55884,9.43269,-0.01176,-0.05008,-0.02347,258.38882,-6.55219,-2.20742,-0.01176
2018.02.26 11:07:59,15.61909,-8.6195,-24.32251,-0.10562,1.21407,10.60345,0.01593,-0.17683,0.17255,257.34271,-6.91888,-1.44277,0.01593
2018.02.26 11:07:59,14.77528,-8.84476,-24.80984,-0.33546,1.02731,11.6138,-0.09485,0.0948,0.29079,256.05453,-6.8291,-1.46885,1019.29095
2018.02.26 11:07:59,14.17542,-9.08833,-24.75395,-0.38814,1.0321,9.19566,0.16614,0.0426,0.16936,253.54657,-6.05214,-0.93179,0.16614
2018.02.26 11:08:00,14.83173,-9.01337,-24.06044,-0.36897,0.4599,10.0025,-0.04799,-0.14595,0.14592,252.27475,-6.61256,-1.1719,-0.04799
2018.02.26 11:08:00,14.75677,-8.63838,-24.24774,-0.33546,1.72163,8.20686,0.1118,0.03195,-0.12892,252.10118,-7.45808,-0.8113,0.1118
2018.02.26 11:08:00,14.41917,-8.82568,-23.68507,-0.62515,1.74318,9.55479,-0.08527,-0.12465,0.00317,252.7444,-7.15492,-0.6419,-0.08527
2018.02.26 11:08:00,13.85651,-8.45051,-23.76022,-0.28998,1.33377,10.03363,-0.0139,-0.09268,-0.12146,253.4939,-7.57348,-0.33304,-0.0139
2018.02.26 11:08:00,13.33199,-7.30686,-23.87257,0.48096,1.04169,11.42706,-0.06503,-0.14595,-0.0714,253.72565,-7.28116,0.0708,1019.29047
2018.02.26 11:08:00,12.63828,-6.06918,-23.94753,-0.26602,0.7879,9.65535,-0.06715,0.27057,-0.22906,254.85461,-5.8143,0.13487,1019.29016
2018.02.26 11:08:00,12.93812,-5.16949,-23.85406,0.88559,0.33539,9.92828,-0.10551,-0.22159,-0.13957,255.60559,-5.43835,-0.09994,-0.10551
2018.02.26 11:08:00,12.35695,-4.32606,-23.89145,0.00931,1.0752,8.54922,0.05534,0.13422,0.00636,256.03284,-5.34083,-0.44676,0.05534
2018.02.26 11:08:00,12.45079,-3.42579,-23.64731,-0.02182,1.34814,9.71999,-0.0842,0.05325,-0.01707,256.70093,-4.98306,-0.75123,-0.0842
2018.02.26 11:08:01,13.06934,-2.97585,-24.04137,-0.25885,1.61868,9.18608,0.19063,-0.02025,0.082,256.99286,-5.61321,-0.80584,1019.28766
2018.02.26 11:08:01,12.37564,-2.91939,-24.34139,0.00931,1.39363,10.47896,0.04895,0.05646,0.0607,257.13034,-6.34776,-0.62957,0.04895
2018.02.26 11:08:01,11.79409,-1.70059,-23.83518,-0.22533,0.29469,11.46057,-0.18007,0.1683,0.1033,257.00281,-4.82306,-1.87094,-0.18007
2018.02.26 11:08:01,12.07581,-1.06335,-24.00398,-0.51743,0.54129,10.048,0.05322,-0.03729,0.14059,256.29034,-5.74361,-2.18147,1019.28638
2018.02.26 11:08:01,11.94439,-0.9882,-24.37916,-0.20857,1.52052,7.70886,0.23857,-0.01492,0.07774,255.81226,-7.06895,-1.17639,1019.28595
2018.02.26 11:08:01,12.48817,-1.17569,-24.3042,-0.54616,1.50616,9.09511,0.03618,-0.06285,0.00636,256.97769,-7.5702,-1.00598,0.03618
2018.02.26 11:08:01,12.20703,-0.95081,-24.84798,0.0141,2.10471,8.8102,0.09796,-0.11293,-0.08311,257.65686,-7.80979,-0.2753,0.09796
2018.02.26 11:08:01,11.83186,0.19302,-25.12913,-0.42165,1.49898,10.85005,-0.03839,0.13847,-0.23332,260.82776,-8.01545,-0.63369,-0.03839
2018.02.26 11:08:02,11.7382,2.1431,-25.07286,0.15056,-0.36131,12.0256,-0.46451,-0.23756,-0.22054,263.60519,-6.0297,0.22094,-0.46451
2018.02.26 11:08:02,11.51276,3.43685,-25.12913,0.11943,0.6227,8.77428,0.17572,0.0799,-0.02133,264.25278,-6.00098,0.07589,1019.28479
2018.02.26 11:08:02,11.88793,4.13074,-25.8791,0.16493,0.51256,9.21721,-0.0778,-0.06285,-0.09909,265.62802,-5.71107,0.4236,-0.0778
2018.02.26 11:08:02,12.05673,4.56181,-25.89817,0.3445,1.30743,9.17172,-0.04266,-0.03943,0.03619,267.38525,-5.64341,0.27415,-0.04266
2018.02.26 11:08:02,12.26292,5.72414,-26.47934,0.39478,1.76474,9.34889,0.08624,0.02769,0.04471,270.23477,-5.80341,0.34763,0.08624
2018.02.26 11:08:02,12.20665,6.09913,-26.53522,0.23915,1.31941,10.84288,-0.00644,-0.03943,0.01701,271.96173,-6.20024,0.77067,1019.28314
2018.02.26 11:08:02,12.63809,6.3242,-26.17893,0.14339,1.05365,11.1613,-0.06076,0.0703,0.03194,274.746,-6.30088,0.60872,-0.06076
2018.02.26 11:08:02,13.25665,6.6803,-26.49803,-0.70656,0.83818,8.77907,0.1427,0.49854,-3e-05,274.68765,-5.21883,-0.21932,1019.28326
2018.02.26 11:08:02,13.96904,7.50542,-25.67272,-0.71135,0.38089,9.24594,-0.14172,0.05539,0.10756,275.56595,-4.58365,-1.77395,1019.28357
2018.02.26 11:08:03,14.25037,7.97405,-25.78526,-0.26125,1.2021,8.64738,0.16721,-0.34515,0.04791,276.75165,-5.57407,-0.24583,1019.28369
2018.02.26 11:08:03,14.34402,7.74918,-26.42307,-0.43842,1.27632,9.11665,0.03297,-0.0032,-0.04691,277.71173,-5.85513,-0.47966,1019.28412
2018.02.26 11:08:03,14.45694,7.67422,-26.53542,-0.20857,1.67375,9.32735,0.06387,0.08627,-0.13745,280.11624,-6.45921,-0.73115,0.06387
2018.02.26 11:08:03,14.98203,8.29296,-26.77898,-0.45038,1.02971,10.89316,-0.05118,-0.00746,-0.02026,281.95459,-6.386,-0.76699,-0.05118
2018.02.26 11:08:03,15.18803,7.86152,-27.07882,0.32295,0.05049,11.72633,-0.45384,-0.12358,-0.27274,285.65192,-5.59917,-0.4695,-0.45384
2018.02.26 11:08:03,15.45048,9.19285,-26.404,0.05,0.75438,9.38242,0.06174,0.11185,-0.12041,287.76718,-4.64742,-1.26832,1019.2851
2018.02.26 11:08:03,15.938,9.56783,-26.64738,0.07634,0.76874,8.69049,0.03618,0.07883,-0.03624,289.09546,-4.98456,-0.44564,0.03618
2018.02.26 11:08:03,16.31298,9.34296,-26.70364,0.14577,1.18773,9.37762,0.04362,-0.02876,0.02129,289.78839,-5.23535,-0.16173,0.04362
2018.02.26 11:08:03,16.63189,9.34296,-26.94778,0.38519,1.58038,9.60028,-0.02667,-0.02132,0.18106,289.98212,-5.22313,-0.49843,1019.28589
2018.02.26 11:08:04,16.65077,9.34296,-27.6413,0.37801,1.18773,10.97215,0.09796,-0.14063,0.12567,291.29932,-5.55212,0.24781,1019.28601
2018.02.26 11:08:04,17.21325,8.44307,-27.97871,0.33971,0.14865,11.63057,-0.13747,-0.02664,0.29718,289.94748,-6.20916,0.2715,-0.13747
2018.02.26 11:08:04,18.20698,7.78675,-27.75364,-0.73529,0.74959,8.45107,0.2375,0.15019,0.04259,289.03217,-6.1108,-0.08794,0.2375
2018.02.26 11:08:04,19.10686,6.493,-28.18489,0.19127,0.73283,8.97301,-0.02455,-0.21092,0.24179,288.28687,-5.89242,0.99954,-0.02455
2018.02.26 11:08:04,18.3569,5.6118,-28.41015,0.06915,1.31462,8.67133,0.04362,-0.04369,-0.04903,288.44504,-6.18282,1.49246,1019.28735
2018.02.26 11:08:04,18.13164,5.74322,-28.86028,-0.12238,1.39363,9.59549,-0.01816,-0.04155,-0.03731,289.16492,-6.06916,1.62841,1019.28784
2018.02.26 11:08:04,18.43166,5.81799,-29.42257,-0.09125,1.22125,10.3784,-0.01283,0.08522,-0.09483,290.7149,-6.64232,0.91357,-0.01283
2018.02.26 11:08:04,19.18221,5.7806,-28.87897,0.60785,0.84297,10.94583,-0.09698,0.02556,-0.20349,291.4455,-6.52416,0.3505,0.01486
2018.02.26 11:08:04,19.76318,6.99959,-28.59764,-0.09125,0.07204,10.76147,-0.31004,0.0799,-0.30896,293.39081,-4.86052,0.17711,-0.31004
2018.02.26 11:08:05,19.91291,7.05547,-28.74775,0.3445,0.34976,9.43509,0.03404,-0.20454,-0.05223,294.2327,-4.85676,-0.44104,0.03404
2018.02.26 11:08:05,19.85683,6.77433,-28.76682,-0.0314,0.97464,8.50374,0.09369,0.18002,0.02873,294.39575,-4.81772,-0.63918,0.09369
2018.02.26 11:08:05,20.49427,7.01809,-28.46661,0.17929,1.16139,9.15974,0.00635,-0.0799,0.05643,294.29868,-5.12145,-0.32709,0.00635
2018.02.26 11:08:05,20.9816,6.36177,-29.02889,0.39238,1.62347,9.36325,0.05322,-0.09908,0.1033,293.71509,-5.37324,-0.10386,0.05322
2018.02.26 11:08:05,20.75672,6.11801,-28.87897,0.22,1.20927,10.57233,0.07771,0.00105,0.0607,293.18542,-5.71975,0.23985,1019.28973
2018.02.26 11:08:05,20.40043,5.81799,-28.48511,-0.1918,0.03372,11.6138,-0.29086,0.0181,0.20663,292.03439,-4.93254,-0.44194,1019.28979
2018.02.26 11:08:05,21.07563,5.33028,-28.37257,-0.21097,0.60355,8.82455,0.18958,-0.01599,0.12674,290.78439,-5.41371,-0.25263,0.18958
2018.02.26 11:08:05,20.88814,4.29916,-28.54156,-0.12717,0.41919,9.63141,0.01274,-0.18323,0.1555,290.05316,-5.43255,0.35367,0.01274
2018.02.26 11:08:05,20.92571,3.54919,-28.37257,-0.16786,1.43195,8.88441,0.11075,-0.02025,0.01489,289.54642,-6.26496,0.79809,1019.29028
2018.02.26 11:08:06,20.38174,3.0056,-28.5038,-0.21574,1.85571,9.14778,0.06067,0.07776,-0.03731,289.4668,-6.63292,0.64949,0.06067
2018.02.26 11:08:06,20.4565,3.51181,-28.61652,-0.01942,1.24998,10.68726,-0.02562,-0.09161,-0.16301,290.65936,-7.07646,0.61391,-0.02562
2018.02.26 11:08:06,20.77541,4.01802,-28.59764,0.62701,1.25955,10.98892,-0.02667,-0.05647,-0.1481,291.26212,-6.868,0.73663,-0.02667
2018.02.26 11:08:06,19.78188,4.46796,-27.94132,-0.11998,0.15344,10.26826,-0.19818,0.15765,-0.22374,292.40033,-5.2671,0.44782,-0.19818
2018.02.26 11:08:06,19.53812,5.53665,-27.32258,0.66771,0.38089,9.45663,-0.02988,-0.08203,-0.11295,293.01102,-5.09116,0.39454,1019.29181
2018.02.26 11:08:06,19.80019,5.85556,-27.60391,0.12183,1.03929,8.53008,0.05534,0.14594,-0.00642,293.28229,-5.19446,-0.02531,0.05534
2018.02.26 11:08:06,19.87514,6.09932,-27.60429,0.2607,1.19252,9.25792,-0.02881,-0.00107,-0.05649,293.52383,-5.17857,-0.08851,-0.02881
2018.02.26 11:08:06,19.91291,5.9864,-27.81048,0.46899,1.63306,9.18369,0.07346,-0.11612,0.03513,293.87454,-5.57987,0.37221,0.07346
2018.02.26 11:08:06,18.90049,6.41804,-28.29762,0.24632,1.3266,10.66809,0.07239,0.00851,0.09691,293.43243,-5.95925,1.06428,0.07239
2018.02.26 11:08:07,18.97545,6.08063,-28.12881,0.08592,0.17976,11.01047,-0.22162,0.06497,0.15657,292.43912,-4.9212,0.90968,1019.29346
2018.02.26 11:08:07,19.59438,5.87425,-28.03555,-0.4025,0.9124,8.98976,0.23643,0.10971,0.06282,291.96301,-5.56346,0.74628,1019.29425
2018.02.26 11:08:07,20.02563,5.93052,-27.56653,0.10028,0.88606,9.08792,0.07559,-0.20987,0.22368,290.82288,-6.0217,0.79676,0.07559
2018.02.26 11:08:07,19.85664,5.19924,-28.05405,-0.12717,1.19731,9.19087,-0.05864,-0.00639,-0.0224,290.61334,-6.60737,1.14921,-0.05864
2018.02.26 11:08:07,19.68803,4.67434,-28.16658,-0.02422,1.76712,9.17651,0.02446,-0.03836,-0.09909,291.50635,-6.42736,1.14763,0.02446
2018.02.26 11:08:07,19.80038,5.87425,-28.41053,0.15295,1.63306,9.88759,-0.04478,-0.06285,-0.14064,292.3765,-6.56406,1.23617,1019.29584
2018.02.26 11:08:07,19.33155,6.68049,-28.76682,0.29422,1.00577,10.953,-0.0842,-0.02876,-0.10123,293.73157,-5.9328,1.33539,-0.0842
2018.02.26 11:08:07,19.33136,6.94294,-28.91674,0.23196,0.24921,10.14856,-0.12682,0.0948,-0.11188,294.54874,-4.26384,1.78212,-0.12682
2018.02.26 11:08:07,18.88161,8.10547,-28.33538,0.73953,0.38089,9.35608,0.08624,-0.01385,-0.04477,294.55777,-5.13515,1.62077,0.08624
2018.02.26 11:08:08,19.25678,7.97405,-28.22285,0.40913,1.07999,8.51572,0.15442,0.13847,-3e-05,294.7338,-5.99122,0.70584,0.15442
2018.02.26 11:08:08,19.98787,7.95555,-28.56026,0.35167,1.15181,9.35129,0.00528,-0.01811,-0.03091,295.02271,-6.19899,0.7426,1019.297
2018.02.26 11:08:08,20.41931,7.93705,-28.50418,0.41872,1.75516,9.42072,0.04469,-0.07564,-0.03091,295.84412,-6.18806,1.2775,0.04469
2018.02.26 11:08:08,19.9316,8.12454,-28.52287,0.18648,1.41039,10.69682,0.07239,0.06818,0.14272,295.77853,-6.41811,1.31699,0.07239
2018.02.26 11:08:08,19.81907,7.33681,-28.5038,-0.16069,0.26117,11.77422,-0.24292,0.19814,0.30251,294.49786,-5.7789,0.56645,1019.2973
2018.02.26 11:08:08,20.88795,6.77433,-28.01647,-0.20618,0.95789,8.97061,0.22899,0.22369,0.08839,293.07828,-6.03978,-0.35642,1019.29773
2018.02.26 11:08:08,21.95663,6.23055,-28.3165,0.06915,0.54129,9.69604,0.04044,-0.23969,0.18852,292.14957,-6.37563,-0.1404,0.04044
2018.02.26 11:08:08,22.25685,5.98679,-28.5038,-0.38335,1.30505,8.68091,-0.01602,0.01598,-0.01175,291.77103,-6.80321,-0.00079,-0.01602
2018.02.26 11:08:08,21.82579,6.75564,-28.71056,-0.13196,1.29308,9.65295,-0.13,-0.09056,-0.10869,292.42703,-6.29893,0.31806,-0.13
2018.02.26 11:08:09,22.12563,7.44896,-28.84178,0.07874,1.40321,10.27306,-0.02348,-0.13637,-0.07993,293.29773,-6.24028,0.99011,-0.02348
2018.02.26 11:08:09,22.06936,8.19912,-28.74756,0.59109,1.23801,10.62979,0.02339,-0.00853,-0.10655,294.29861,-6.38582,1.03263,0.02339
2018.02.26 11:08:09,21.18816,8.55541,-28.48549,-0.09843,0.27794,10.13179,-0.25464,0.18854,-0.1481,295.37408,-4.52162,-0.0308,-0.25464
2018.02.26 11:08:09,21.91963,9.66167,-27.99778,0.33012,0.4144,9.28186,0.02979,-0.11719,-0.02026,295.51855,-5.08164,-0.31518,0.02979
2018.02.26 11:08:09,21.86317,10.16788,-28.41015,0.1745,0.52933,9.4279,-0.0352,0.03195,-0.05861,296.03864,-4.7866,0.18499,1019.29932
2018.02.26 11:08:09,21.8071,10.11181,-28.14751,0.16014,1.12549,9.23396,-0.07887,-0.02025,-0.00536,295.98813,-5.04125,-0.00545,1019.29932
2018.02.26 11:08:09,21.48819,10.43034,-27.84767,0.2583,1.58995,9.35129,-0.0043,0.00638,0.03194,296.64084,-4.7309,0.25424,-0.0043
2018.02.26 11:08:09,21.78822,10.93636,-27.28519,0.50012,1.28589,10.61781,0.00742,0.00958,0.11609,296.53137,-4.75864,0.50265,1019.29932
2018.02.26 11:08:09,22.12582,10.39295,-26.96629,-0.19659,1.00816,10.88597,-0.08633,0.13954,0.12781,296.08118,-4.72579,0.08064,-0.08633
2018.02.26 11:08:10,22.93186,10.09293,-26.40381,-0.32828,0.64424,9.25552,0.13312,0.06497,0.16083,295.13672,-3.72816,0.031,0.13312
2018.02.26 11:08:10,23.419,9.83028,-27.35996,-0.35461,0.14386,9.47099,0.0596,0.04047,0.07668,294.72644,-4.48044,-0.39225,1019.29944
2018.02.26 11:08:10,23.43826,9.81159,-26.85394,0.06438,0.84535,8.63782,0.18637,-0.11826,0.10756,294.04456,-4.84437,-0.07039,0.18637
2018.02.26 11:08:10,23.382,8.9304,-26.59149,-0.17984,1.21886,9.4662,0.05002,-0.04048,0.00636,294.1489,-5.55056,0.50864,0.05002
2018.02.26 11:08:10,23.71922,8.38661,-27.06013,0.1338,1.79108,8.99455,0.10329,-0.01385,-0.07993,294.6756,-6.24716,0.63847,0.10329
2018.02.26 11:08:10,22.70679,8.83675,-26.62907,0.23436,0.93634,10.82372,-0.04372,-0.07671,-0.14171,295.7374,-6.35401,0.76126,1019.29987
2018.02.26 11:08:10,22.68829,9.04293,-26.29166,0.45222,0.51495,11.27863,-0.20778,-0.12997,-0.17154,296.60175,-5.94894,0.97939,1019.30005
2018.02.26 11:08:10,22.78194,9.90543,-26.23539,-0.11758,0.66818,8.94188,0.10435,0.16512,-0.13638,297.80984,-4.70615,0.16748,1019.30005
2018.02.26 11:08:10,22.63203,10.61783,-26.06659,0.3804,0.33778,9.57874,-0.02774,-0.0831,-0.10762,298.30945,-4.95747,0.41379,1019.2998
2018.02.26 11:08:11,23.26927,9.86767,-25.80414,0.10507,1.19252,9.12863,-0.01283,0.03941,0.02022,298.32004,-5.09135,0.10463,-0.01283
2018.02.26 11:08:11,23.00682,9.7929,-25.6916,0.09071,1.37927,9.4686,-0.00751,0.0916,0.05537,298.10098,-5.03439,-0.17435,1019.29907
2018.02.26 11:08:11,23.02551,9.36165,-24.97921,0.299,1.56361,9.51888,0.14163,-0.01492,0.05643,297.71402,-5.96731,-0.21567,0.14163
2018.02.26 11:08:11,22.80045,8.93021,-24.51,0.18648,1.12787,10.26826,0.07559,0.05751,0.06496,297.44986,-6.66695,0.23217,0.07559
2018.02.26 11:08:11,23.25058,8.51765,-24.47243,-0.68262,0.46468,10.44304,-0.16623,0.1225,0.17894,296.22357,-4.99015,-0.42044,1019.29761
2018.02.26 11:08:11,24.20692,8.34942,-24.21017,-0.29475,0.48862,9.39917,0.06174,-0.13103,0.0788,295.75006,-5.23966,-0.28449,1019.29675
2018.02.26 11:08:11,24.20654,7.37419,-23.94791,-0.0314,0.95549,9.20045,0.05534,-0.18962,0.22049,294.13782,-4.83255,0.4646,0.05534
2018.02.26 11:08:11,23.85025,6.4743,-23.96641,-0.18463,1.16618,9.11905,-0.02029,-0.04369,0.05431,293.35864,-5.21784,0.72755,1019.29578
2018.02.26 11:08:11,23.83194,6.04305,-24.17259,0.0117,1.47743,9.4279,0.04256,-0.07031,0.01276,293.05997,-5.36485,1.21739,1019.29529
2018.02.26 11:08:12,24.15066,6.36158,-24.30401,0.16971,0.97464,10.66092,0.00954,-0.12038,-0.13638,293.41214,-5.86972,1.2202,0.00954
2018.02.26 11:08:12,23.53172,6.02436,-23.85406,0.85686,0.82381,10.91949,-0.0352,-0.14063,-0.26527,294.26141,-5.94695,1.68999,1019.2948
2018.02.26 11:08:12,23.34442,6.68068,-23.51665,-0.01942,0.50539,9.95462,-0.12468,0.29187,-0.18326,295.46381,-4.53473,1.00241,-0.12468
2018.02.26 11:08:12,24.11308,7.33662,-23.57273,0.64856,0.18456,9.87561,0.01486,-0.11826,-0.16515,296.15198,-4.80135,1.263,0.01486
2018.02.26 11:08:12,24.09458,7.97405,-23.31009,0.03085,1.18294,8.9323,-0.03094,0.09799,-0.04691,296.30933,-5.18029,0.54504,-0.03094
2018.02.26 11:08:12,24.03793,7.61795,-23.47889,0.12662,1.05125,9.88759,-0.08952,-0.0309,-0.07779,296.66641,-4.75585,0.40152,1019.2948
2018.02.26 11:08:12,24.0942,7.41138,-23.36655,0.29422,1.53967,9.38242,0.18425,0.05113,0.06708,296.38306,-5.77707,-0.04269,0.18425
2018.02.26 11:08:12,25.25654,6.60553,-23.32897,0.31816,1.41757,10.03842,0.11819,0.04686,0.11823,295.11108,-6.61622,0.10527,1019.29492
2018.02.26 11:08:12,25.57526,5.66807,-23.12241,-0.02901,0.16301,10.41431,-0.28873,-0.00853,0.28546,293.08783,-5.06875,-0.02974,1019.29523
2018.02.26 11:08:13,26.25046,5.42431,-22.7663,-0.39293,0.97943,8.5612,0.10754,0.08095,0.07986,292.06955,-5.37944,-0.42053,1019.29535
2018.02.26 11:08:13,25.85697,4.56181,-22.65377,-0.21814,0.46947,9.97617,0.01274,-0.13742,0.1619,291.21838,-5.13109,-0.238,1019.29559
2018.02.26 11:08:13,24.86286,4.07429,-23.15998,-0.13196,1.22844,9.0999,0.03297,-0.06818,0.10118,290.06244,-5.90392,0.35648,0.03297
2018.02.26 11:08:13,25.66929,3.49312,-22.9351,0.22238,1.83417,9.30101,0.0692,-0.07457,0.0085,289.1329,-6.21025,1.22877,0.0692
2018.02.26 11:08:13,25.18158,3.41797,-23.1411,0.07874,1.38405,10.29221,0.05322,-0.08203,-0.05649,289.13947,-6.96696,1.17513,0.05322
2018.02.26 11:08:13,24.6191,3.39909,-23.79761,0.39478,0.89565,10.8333,0.1427,0.05432,-0.09377,289.28226,-7.48706,1.02784,1019.29688
2018.02.26 11:08:13,25.03166,3.34301,-23.7978,-0.07928,0.74719,9.40636,-0.16837,0.1257,-0.23865,290.28162,-6.48862,-0.14294,-0.16837
2018.02.26 11:08:13,25.57545,3.75557,-23.16017,0.26309,0.94353,9.0544,0.17998,-0.05966,-0.0224,290.03391,-7.37891,-0.32108,1019.29742
2018.02.26 11:08:13,25.78182,4.16813,-22.67265,-0.05534,1.26674,8.52768,0.06067,0.10652,-0.02347,290.24277,-7.30621,-0.34325,1019.29749
2018.02.26 11:08:14,25.68779,4.74949,-22.91622,0.02127,1.53011,8.97778,-0.02774,-0.04581,0.02022,289.88641,-7.38967,-0.30772,-0.02774
2018.02.26 11:08:14,25.76275,4.59919,-23.42262,0.10268,2.13344,9.24355,0.00314,0.0703,-0.02986,289.91833,-7.35149,-0.54114,0.00314
2018.02.26 11:08:14,25.18158,3.96175,-23.21644,0.38759,1.59235,10.59148,0.01913,-0.03409,0.08733,289.60181,-7.66501,-0.46485,0.01913
2018.02.26 11:08:14,25.76275,4.61788,-23.17886,-0.17026,1.00816,11.22595,-0.09059,0.0799,0.04898,288.75861,-7.69718,-0.27008,-0.09059
2018.02.26 11:08:14,25.51918,4.76799,-22.65377,-0.55573,0.96028,9.8804,0.03618,0.06178,0.09479,288.00159,-6.5366,-0.69359,1019.30035
2018.02.26 11:08:14,26.02539,4.41189,-22.56012,-0.4839,0.35216,9.66971,-0.0043,-0.14275,0.16083,287.30081,-6.92928,-0.8901,1019.30127
2018.02.26 11:08:14,24.99409,4.61826,-22.67246,-0.09604,1.57799,8.62344,0.10008,0.00212,0.05431,286.17529,-7.56303,0.43084,0.10008
2018.02.26 11:08:14,24.90063,4.16794,-22.69135,0.01648,1.81262,9.2627,0.02658,-0.02025,0.00211,286.02573,-7.66243,0.52244,0.02658
2018.02.26 11:08:14,25.65022,4.46796,-23.06633,0.11705,2.15738,9.13341,0.06494,0.04047,-0.07886,286.41016,-8.08226,0.26988,0.06494
2018.02.26 11:08:15,24.48807,4.22401,-22.82257,-0.10083,1.82698,10.31615,0.0479,0.06178,-0.16089,287.57111,-8.3573,0.288,0.0479
2018.02.26 11:08:15,24.28188,5.16167,-22.14775,-0.19899,-0.01895,11.14934,-0.38994,0.16298,-0.30576,289.00851,-7.24834,-0.07879,-0.38994
2018.02.26 11:08:15,23.96278,6.34308,-21.8853,0.1362,0.71608,9.82294,0.15335,-0.02664,-0.14278,289.79819,-7.07156,-0.70377,0.15335
2018.02.26 11:08:15,24.18804,6.58665,-21.77277,0.04761,1.39363,8.04884,0.14909,0.13315,-0.08951,290.99548,-7.58015,-0.91011,0.14909
2018.02.26 11:08:15,24.22543,7.11193,-21.24729,0.45222,1.43912,9.24834,-0.06076,-0.24928,0.00211,291.1113,-7.59495,-0.13945,1019.30511
2018.02.26 11:08:15,23.85044,7.09305,-21.45367,0.35406,2.11668,9.43987,0.00954,0.04367,-0.02879,291.51941,-7.45083,0.38392,0.00954
2018.02.26 11:08:15,23.41938,6.58665,-21.2101,0.26549,1.80544,10.19405,0.00528,0.03409,0.06175,291.40802,-7.66702,0.21594,1019.30579
2018.02.26 11:08:15,22.98813,5.83649,-21.11645,0.07874,1.3625,11.32172,-0.01923,0.05219,0.16402,290.46674,-8.10635,0.60689,1019.30603
2018.02.26 11:08:15,23.7381,5.48038,-20.5164,-0.29236,1.21167,8.96582,0.20981,0.10332,0.31422,288.14902,-6.9851,0.29207,0.20981
2018.02.26 11:08:16,24.0757,4.91829,-20.47882,-0.09125,0.7448,9.26509,0.03723,-0.09161,0.01382,287.42914,-7.77918,0.34697,0.03723
2018.02.26 11:08:16,24.33796,4.80576,-20.77885,0.04521,1.73601,8.59711,0.05641,-0.07457,-0.05223,287.3848,-8.34085,1.25989,0.05641
2018.02.26 11:08:16,23.88802,4.78668,-21.00391,-0.30194,1.58278,9.78943,-0.08633,-0.07564,0.04684,287.46741,-7.94609,1.53683,1019.30658
2018.02.26 11:08:16,23.96297,4.33674,-21.69762,0.32056,2.29385,9.12863,0.01593,0.00745,0.02448,287.26291,-8.28857,1.70409,1019.30658
2018.02.26 11:08:16,23.75698,3.92437,-22.20402,0.2583,1.64742,10.74471,-0.00218,0.02982,-0.06607,287.60785,-8.26612,1.67885,-0.00218
2018.02.26 11:08:16,23.77567,4.78706,-20.74127,0.32056,0.47905,11.44861,-0.24506,-0.10228,-0.24716,288.57129,-7.0109,1.51815,-0.24506
2018.02.26 11:08:16,24.16935,5.27458,-20.94765,0.42111,0.91479,8.97778,0.18318,0.27803,-0.12573,289.14447,-7.26913,0.55395,0.18318
2018.02.26 11:08:16,24.91913,6.15578,-20.81642,0.56476,1.03929,8.79105,0.03511,0.07883,-0.1481,289.81448,-7.8913,0.00888,1019.3067
2018.02.26 11:08:16,25.12531,6.04324,-21.24748,0.52167,1.63066,9.12624,-0.03627,-0.07777,0.02341,289.60925,-8.22695,0.22084,-0.03627
2018.02.26 11:08:17,25.23804,6.43673,-20.89119,0.05719,2.0257,9.24594,0.01593,0.05325,-0.04691,290.0647,-7.82937,0.07854,1019.30695
2018.02.26 11:08:17,25.68817,6.84929,-20.70408,0.33492,1.67136,10.22997,0.02872,-0.03516,0.02022,290.09042,-8.12917,-0.07856,0.02872
2018.02.26 11:08:17,26.21307,6.75583,-20.85361,0.06915,1.01056,11.63057,-0.14172,-0.09482,0.07561,289.86444,-7.92482,0.42526,1019.3075
2018.02.26 11:08:17,26.49384,6.43692,-20.44106,-0.61559,1.23801,8.85568,0.30463,0.16724,0.07135,288.83041,-7.80689,0.31631,0.30463
2018.02.26 11:08:17,26.81255,5.83687,-20.38517,-0.15829,0.68256,9.39677,-0.05544,-0.02557,0.2599,288.13571,-8.09655,-0.15157,-0.05544
2018.02.26 11:08:17,28.05023,5.38673,-20.83492,0.12183,1.5325,8.46782,0.01593,-0.04369,0.02661,287.00546,-7.84603,0.31256,0.01593
2018.02.26 11:08:17,28.29418,5.38673,-20.66612,-0.22533,1.49898,9.40396,-0.14493,0.02237,-0.10869,287.56674,-7.3424,0.03595,-0.14493
2018.02.26 11:08:17,28.78151,5.40543,-20.92876,-0.09843,1.8653,9.38002,0.00742,-0.10654,-0.1268,288.2207,-7.21285,0.07865,1019.31012
2018.02.26 11:08:17,28.21922,6.3055,-21.43497,-0.31392,1.26913,10.625,-0.10657,0.01384,-0.15982,289.04602,-6.94757,0.12848,1019.31006
2018.02.26 11:08:18,28.23772,6.90575,-20.98522,0.16493,0.15344,11.63536,-0.27808,-0.13316,-0.24184,290.23474,-6.07146,0.44731,-0.27808
2018.02.26 11:08:18,28.4441,7.26166,-20.70389,-0.01224,0.85733,8.87245,0.15868,0.05006,0.03833,290.42578,-5.9729,-0.20599,0.15868
2018.02.26 11:08:18,29.00658,7.337,-20.32909,0.02606,0.73044,9.16933,0.02446,0.13103,-0.03091,290.49603,-6.06696,-0.52165,0.02446
2018.02.26 11:08:18,29.21295,6.73695,-20.29152,0.25591,1.45349,9.48297,-0.02348,-0.04688,-0.00854,290.09314,-6.39399,-0.7461,-0.02348
2018.02.26 11:08:18,29.58832,6.17428,-20.01038,0.17929,1.97781,9.35368,0.04256,0.03195,0.02234,289.89963,-6.51428,-0.81906,0.04256
2018.02.26 11:08:18,29.68178,5.57423,-20.19768,0.20563,1.36011,10.66092,0.05748,-0.08736,0.07774,289.1745,-7.40958,-0.64018,0.05748
2018.02.26 11:08:18,29.19407,4.7493,-19.89746,-0.11998,0.42877,11.50368,-0.20778,0.08095,0.16829,287.82416,-7.37663,-0.86542,1019.30603
2018.02.26 11:08:18,29.43783,3.51162,-20.12253,-0.26364,1.09676,9.2603,-5e-05,0.0213,0.10437,286.9845,-6.53419,-0.63828,1019.30573
2018.02.26 11:08:18,29.28791,2.53696,-20.31021,-0.19899,0.21089,9.78943,-0.06503,-0.17151,0.13313,285.92166,-6.58036,-0.55842,-0.06503
2018.02.26 11:08:18,29.53148,1.91803,-20.25375,-0.32349,1.58038,8.84612,0.0479,-0.03729,0.09904,284.54095,-6.91623,0.14071,0.0479
2018.02.26 11:08:19,28.7817,0.73681,-20.38517,-0.10802,1.76474,9.18848,0.03937,0.04047,-0.02347,284.01166,-6.94363,0.0926,0.03937
2018.02.26 11:08:19,28.85666,0.81177,-20.14141,-0.05055,1.99458,9.27467,0.07452,0.07669,-0.04903,283.64563,-7.54077,-0.34852,1019.30322
2018.02.26 11:08:19,28.81908,1.13029,-20.14141,-0.23491,1.47504,10.47656,0.06281,0.03302,-0.07886,283.81329,-7.79484,-0.3874,0.06281
2018.02.26 11:08:19,28.59421,0.69904,-20.31002,0.32773,0.60834,10.43347,-0.23547,-0.01385,-0.14597,283.92184,-6.39516,-0.08112,-0.23547
2018.02.26 11:08:19,28.89442,1.31798,-20.21618,-0.01703,0.86931,9.24355,0.08731,0.15979,-0.10016,284.05386,-6.50831,-0.77017,1019.30212
2018.02.26 11:08:19,29.41952,1.69315,-20.1786,0.03804,0.99141,9.14778,-0.05011,-0.03622,-0.08737,284.41614,-6.11864,-0.87649,-0.05011
2018.02.26 11:08:19,28.98827,1.78661,-19.86008,0.33971,1.36729,9.31776,-0.07568,-0.07138,-0.12466,284.40799,-6.21853,-0.60786,-0.07568
2018.02.26 11:08:19,28.5944,1.67427,-19.71016,0.07394,1.91078,9.43269,0.05748,-0.02557,-0.05009,284.3942,-6.45381,-0.46149,0.05748
2018.02.26 11:08:19,27.76928,0.83065,-20.02869,0.11943,1.37927,10.66809,0.00847,-0.10547,-0.01068,284.21823,-6.7044,-0.16008,0.00847
2018.02.26 11:08:20,27.18792,0.81177,-20.1601,-0.16307,0.55327,11.10623,-0.15237,0.11078,0.19066,282.85736,-6.33786,-0.46658,-0.15237
2018.02.26 11:08:20,27.5631,0.68035,-19.57855,-0.43123,0.95789,8.58275,0.21939,0.0799,0.10756,281.44949,-6.32668,-0.04259,1019.30145
2018.02.26 11:08:20,27.05669,-0.66967,-20.64743,-0.21574,0.27554,10.24432,-0.0778,-0.17897,0.12993,280.52753,-6.06639,0.37769,1019.30133
2018.02.26 11:08:20,26.73779,-1.02577,-20.98522,-0.31631,1.41278,8.64021,0.07132,0.03409,0.08626,279.69016,-6.54705,0.69792,0.07132
2018.02.26 11:08:20,26.40057,-1.10092,-20.02888,-0.20618,1.42715,9.42072,-0.0107,-0.01918,0.0298,278.9021,-6.65009,0.65115,-0.0107
2018.02.26 11:08:20,26.38206,-1.41964,-19.74754,-0.05055,1.68573,9.54521,0.04469,0.06604,-0.10548,279.25983,-7.1347,0.38045,0.04469
2018.02.26 11:08:20,25.9882,-0.65041,-20.23506,0.44505,1.21886,10.77583,-0.04266,0.01065,-0.18538,279.84521,-7.04691,0.25245,-0.04266
2018.02.26 11:08:20,25.59414,0.19302,-20.23487,0.20084,0.0864,10.72316,-0.39526,-0.03622,-0.23332,280.73529,-5.51363,0.70606,1019.30273
2018.02.26 11:08:20,25.93155,0.49286,-20.06645,-0.10083,0.98662,9.0999,0.12033,0.02663,-0.00961,280.84338,-5.62173,-0.41479,0.12033
2018.02.26 11:08:21,26.34411,0.99926,-20.49751,0.38759,1.08717,8.47501,0.19916,0.10439,-0.0011,280.97739,-5.98475,0.02172,0.19916
2018.02.26 11:08:21,26.25046,1.14918,-20.74108,0.39717,1.45349,9.2627,0.07346,0.05646,0.02448,280.60785,-6.67506,-0.36484,0.07346
2018.02.26 11:08:21,26.11904,0.09918,-19.86008,0.18648,1.75995,9.31776,0.05748,0.03195,0.07986,279.78915,-7.3177,-0.4207,1019.30627
2018.02.26 11:08:21,26.06277,-0.31319,-20.23468,0.48814,1.3625,11.06075,-0.01602,-0.14063,0.10011,279.19202,-7.3713,0.01804,-0.01602
2018.02.26 11:08:21,25.72536,-0.20065,-21.02222,-0.06731,-0.0764,12.33446,-0.40166,0.0181,0.21942,277.62808,-6.21025,-0.39921,-0.40166
2018.02.26 11:08:21,25.46291,-1.23196,-20.90988,-0.69939,1.24519,8.61388,0.16826,0.14168,0.18852,276.02621,-6.22805,-0.87846,0.16826
2018.02.26 11:08:21,25.95043,-1.25084,-20.89119,-0.26602,0.4599,9.54761,-0.04904,-0.16299,0.1555,275.36206,-5.98623,-0.46297,1019.30811
2018.02.26 11:08:21,25.23804,-1.28822,-21.2101,-0.18463,1.20927,8.67372,0.05641,-0.06499,-0.04156,275.11053,-6.58284,0.72564,1019.30872
2018.02.26 11:08:21,25.23785,-1.75686,-21.73481,0.20323,1.75276,9.61703,-0.02988,-0.13103,-3e-05,275.15289,-5.98555,1.64785,-0.02988
2018.02.26 11:08:22,25.35019,-1.40057,-22.54124,0.10268,1.62587,10.18446,0.05002,0.0703,-0.15022,275.96649,-6.66655,1.23375,0.05002
2018.02.26 11:08:22,24.56264,-0.85678,-22.82276,0.30618,0.94353,11.25229,-0.04904,-0.01811,-0.04584,276.43481,-6.62354,0.85426,-0.04904
2018.02.26 11:08:22,24.9752,-0.29469,-22.56012,0.30858,0.46228,10.62979,-0.26103,0.08308,-0.27806,277.12213,-5.28969,0.60772,1019.31201
2018.02.26 11:08:22,24.86305,0.53024,-22.24121,0.20084,0.54608,9.17172,0.10968,0.01065,-0.11188,277.94556,-5.83848,0.18615,0.10968
2018.02.26 11:08:22,25.23804,0.36201,-22.57881,0.10028,1.10872,8.46065,0.14056,0.09373,-0.0224,278.39319,-6.01369,0.03724,0.14056
2018.02.26 11:08:22,25.51937,0.43678,-23.04764,0.05,1.41278,9.36086,-0.04585,0.01491,0.06496,277.80472,-6.04989,-0.13982,1019.31415
2018.02.26 11:08:22,24.33796,0.66185,-22.65396,0.15535,1.6546,9.84927,0.11819,-0.06392,0.05431,277.62927,-6.87243,-0.29353,0.11819
2018.02.26 11:08:22,24.37553,0.54951,-23.06671,0.69165,1.15421,10.93146,0.08836,-0.09694,0.02661,277.48914,-7.32275,0.23232,1019.31506
2018.02.26 11:08:23,23.28815,-0.2943,-23.76022,0.10028,0.6203,11.09187,-0.22694,-0.07138,-0.00748,277.44519,-6.92765,1.28194,-0.22694
2018.02.26 11:08:23,22.68848,-0.4818,-23.31028,-0.18941,0.95549,9.06877,0.09369,0.08948,0.08626,276.84836,-6.95463,0.26787,0.09369
2018.02.26 11:08:23,22.83821,-1.64433,-22.86015,0.00212,0.67776,9.16214,-0.03839,-0.00107,0.21622,275.50595,-6.79394,0.58748,1019.31622
2018.02.26 11:08:23,22.72549,-1.47572,-23.06652,-0.10562,1.22365,9.17172,0.01486,0.01277,-3e-05,275.30457,-7.07502,0.83843,1019.31616
2018.02.26 11:08:23,21.8256,-1.75705,-23.21644,0.1362,1.61389,9.39677,-0.0043,-0.10228,0.01169,275.08783,-6.93439,1.00677,-0.0043
2018.02.26 11:08:23,21.16928,-1.47572,-23.10371,-0.14153,1.16618,10.42868,-0.032,0.02342,-0.09377,275.58011,-7.1172,0.86756,-0.032
2018.02.26 11:08:23,21.16947,-1.36337,-23.40393,0.27745,1.07042,10.7471,0.08624,-0.0032,-0.10442,276.02783,-7.66966,0.4822,1019.31561
2018.02.26 11:08:23,21.28162,-0.96951,-23.72265,0.15535,0.39764,10.34967,-0.32602,0.049,-0.23332,276.62823,-6.25277,0.07643,1019.31543
2018.02.26 11:08:23,20.6068,-0.70686,-23.42243,0.13141,0.96507,8.85568,-0.05864,-0.08203,0.05963,276.8602,-6.34865,-0.01178,-0.05864
2018.02.26 11:08:24,20.10059,-0.55695,-23.23494,-0.04097,1.41518,8.79822,0.02872,0.15659,0.08839,276.513,-6.12187,0.23444,0.02872
2018.02.26 11:08:24,19.68784,0.11768,-23.17886,0.39957,1.3242,9.77745,-0.02348,-0.02132,0.09052,276.05347,-6.23574,0.65026,1019.31415
2018.02.26 11:08:24,19.42539,-0.46329,-23.70415,0.51688,1.78868,10.0049,-0.02774,0.02663,0.08307,275.68005,-6.84227,0.70623,1019.3136
2018.02.26 11:08:24,18.99452,-0.40684,-23.87276,0.31097,1.37927,10.87399,0.06494,0.0703,0.00104,275.72476,-7.15387,0.75357,0.06494
2018.02.26 11:08:24,18.86311,-0.6321,-23.74153,-0.16069,0.78311,9.41832,-0.00218,-0.05859,0.10863,275.17645,-6.12825,1.76341,-0.00218
2018.02.26 11:08:24,18.80684,-0.12569,-24.19128,-0.47911,0.7065,9.28186,0.05534,-0.07031,0.14378,274.52496,-6.67944,1.47492,0.05534
2018.02.26 11:08:24,18.26305,-0.55676,-24.71638,0.2607,1.38644,8.894,0.07878,-0.00214,0.11502,273.79596,-6.56359,1.83885,0.07878
2018.02.26 11:08:24,18.24417,0.15583,-24.88537,0.23915,1.36011,9.55479,-0.04266,0.04153,0.01382,274.02435,-6.8159,1.68529,-0.04266
2018.02.26 11:08:24,18.80703,0.75569,-24.73526,0.23196,1.72643,9.07356,0.10968,0.10971,-0.13745,275.08405,-7.36587,1.39518,0.10968
2018.02.26 11:08:25,18.75076,0.94299,-24.81022,-0.29955,1.1566,10.9554,-0.0874,0.02556,-0.14064,276.07599,-7.26554,1.14263,1019.3103
2018.02.26 11:08:25,19.01302,2.23694,-25.14782,0.27985,0.42638,11.39594,-0.16837,-0.0309,-0.16833,277.70615,-7.14806,0.87675,1019.30969
2018.02.26 11:08:25,19.10648,3.73669,-25.2039,0.40913,0.78551,9.32735,0.10329,-0.02983,-0.08737,278.84393,-6.69856,0.21892,1019.30896
2018.02.26 11:08:25,19.76299,4.43039,-25.26035,0.16971,1.0369,9.04723,-0.02562,0.06285,-0.03198,279.91458,-6.3363,0.143,-0.02562
2018.02.26 11:08:25,20.15648,4.56181,-26.5913,0.35167,1.33138,9.42551,-0.05438,-0.05647,0.00317,280.28568,-6.44078,0.42667,-0.05438
2018.02.26 11:08:25,19.96918,5.19943,-25.59776,0.25351,1.87486,9.14778,0.0905,0.01384,-0.02773,281.54373,-6.79074,0.53973,0.0905
2018.02.26 11:08:25,20.64457,5.36823,-25.74768,0.36125,1.26195,10.46458,0.0415,-0.08949,0.02554,282.10275,-7.17452,0.71403,0.0415
2018.02.26 11:08:25,20.64438,5.48077,-26.06659,-0.00267,1.22604,10.49811,-0.02562,0.1683,0.05003,282.34161,-7.42664,0.31758,-0.02562
2018.02.26 11:08:25,21.22593,6.51169,-25.41046,-0.34264,1.26913,9.15497,0.11819,0.15233,0.11502,282.28082,-6.47594,0.17565,0.11819
2018.02.26 11:08:26,22.36938,5.79929,-25.18539,-0.17744,0.71846,9.52846,-0.00325,-0.09161,0.06282,282.21921,-6.67796,0.19728,1019.30823
2018.02.26 11:08:26,22.3505,5.57423,-25.1852,0.31577,1.47743,8.33136,0.08731,-0.09589,0.06921,282.07507,-6.98659,0.954,1019.30835
2018.02.26 11:08:26,22.25685,5.25551,-25.93517,-0.14153,1.31462,9.28424,-0.00963,-0.10654,0.05643,282.60495,-7.10586,1.39161,1019.30878
2018.02.26 11:08:26,22.10712,5.4245,-25.99163,0.32773,1.70248,9.71999,0.00528,-0.02771,-0.06395,283.78955,-7.20547,1.68706,0.00528
2018.02.26 11:08:26,22.89448,6.43692,-25.89779,-0.13196,1.58517,10.61781,-0.05011,0.10652,-0.0714,284.56775,-7.00251,1.56164,-0.05011
2018.02.26 11:08:26,23.51322,6.34289,-25.44765,0.18887,-0.05008,11.72873,-0.31644,0.08415,-0.13745,285.7153,-6.32416,0.68424,1019.3103
2018.02.26 11:08:26,23.79436,6.6431,-24.81022,0.0524,0.93394,9.14778,0.15654,0.01172,0.12141,285.61554,-6.48697,-0.14073,0.15654
2018.02.26 11:08:26,24.58191,6.15559,-25.22278,0.42351,0.46707,9.78943,-0.02667,-0.09589,-0.16089,286.20279,-6.39986,0.52206,1019.31097
2018.02.26 11:08:26,24.67556,6.08063,-25.0164,0.15056,1.25238,8.85089,0.05322,-0.05113,-0.05756,286.90683,-6.87045,0.5352,0.05322
2018.02.26 11:08:27,24.50695,6.08044,-24.90387,0.24394,1.82219,9.18369,0.00314,0.03195,0.00211,287.39398,-6.92449,0.48687,1019.31165
2018.02.26 11:08:27,24.56303,6.38046,-25.07267,0.39478,1.2811,10.96738,-0.02774,0.04047,0.08733,287.45093,-7.07555,0.23505,-0.02774
2018.02.26 11:08:27,25.89436,5.48038,-24.88518,-0.10323,0.43834,11.55635,-0.24719,0.14594,0.18745,286.5769,-6.86492,-0.31025,-0.24719
2018.02.26 11:08:27,26.47552,4.5805,-24.88518,-0.278,1.11351,9.12863,0.04469,0.10439,0.17148,285.58109,-6.29352,-0.48853,0.04469
2018.02.26 11:08:27,26.94416,4.20551,-24.67918,-0.14632,0.60594,9.73676,-0.02029,-0.16939,0.03513,284.91388,-6.56074,-0.63322,-0.02029
2018.02.26 11:08:27,26.7004,3.66154,-25.01659,-0.01463,1.52771,8.72879,0.10754,-0.0522,-0.01601,284.67664,-6.8578,0.03555,0.10754
2018.02.26 11:08:27,26.5316,3.62434,-25.93536,0.19127,1.59474,9.40396,0.01913,-0.12997,-0.00322,284.74356,-7.19316,0.76704,0.01913
2018.02.26 11:08:27,26.38149,3.8868,-25.93536,0.28464,1.76234,9.36565,0.08624,-0.04688,-0.15343,285.39258,-7.57221,0.98906,1019.31323
2018.02.26 11:08:27,26.6819,3.77426,-26.08528,-0.0721,1.27393,10.34488,0.01807,0.09799,-0.24397,286.98816,-7.61755,1.09377,0.01807
2018.02.26 11:08:28,26.21288,4.86164,-26.02882,0.08113,0.60355,10.31375,-0.22162,0.18109,-0.20563,288.37085,-6.32568,0.41223,-0.22162
2018.02.26 11:08:28,26.73817,6.00567,-25.26016,0.19127,0.64664,9.45424,0.03723,0.09906,-0.07565,288.71851,-6.36424,0.06474,0.03723
2018.02.26 11:08:28,26.19438,6.24905,-25.74749,0.12422,1.07999,8.53247,0.05215,0.0799,0.04684,288.72272,-6.21652,-0.29005,0.05215
2018.02.26 11:08:28,26.60694,6.62384,-25.65384,0.10268,1.11351,9.18608,-0.04266,0.02342,-0.0192,288.71112,-6.17469,-0.41936,-0.04266
2018.02.26 11:08:28,27.43187,6.56796,-25.05398,0.27745,1.81502,9.20763,0.05109,0.04686,0.00529,288.98288,-6.22705,-0.45331,1019.31226
2018.02.26 11:08:28,27.76928,5.9679,-25.39158,0.03325,1.13745,10.90273,0.00528,0.02663,0.08946,288.52301,-6.43698,-0.66857,1019.31207
2018.02.26 11:08:28,28.05042,6.60553,-24.97921,-0.61798,0.58679,10.24911,-0.15451,-0.05113,0.1864,287.59451,-5.18103,-0.30451,-0.15451
2018.02.26 11:08:28,28.57571,6.68049,-24.67899,-0.67305,0.5006,9.32256,0.23325,0.05751,0.04259,287.26123,-6.1027,-0.44486,0.23325
2018.02.26 11:08:28,28.87554,6.09951,-25.22278,0.06198,1.39124,8.34093,0.15121,-0.11719,0.12248,286.04355,-6.60699,0.61622,0.15121
2018.02.26 11:08:29,28.93181,5.74284,-25.59795,-0.06013,1.487,9.25073,-0.06076,-0.15767,-0.00536,286.02933,-6.76377,1.5158,-0.06076
2018.02.26 11:08:29,29.32529,6.26774,-26.44176,-0.0338,1.78868,9.44705,0.01381,0.02876,-0.04691,286.32974,-6.7036,1.40025,0.01381
2018.02.26 11:08:29,29.86927,6.71806,-25.27943,-0.29475,1.12309,10.91949,-0.01495,0.2056,-0.1971,287.62323,-7.11589,0.25729,-0.01495
2018.02.26 11:08:29,30.63793,7.39288,-24.82929,0.20563,0.78311,10.91949,0.00528,0.08627,-0.22479,288.48929,-7.21951,-0.59707,0.00528
2018.02.26 11:08:29,30.76916,8.34942,-24.84798,0.2583,0.98422,9.77745,-0.05864,-0.03622,-0.08099,289.28482,-5.6617,-0.57866,1019.31439
2018.02.26 11:08:29,31.31275,8.91171,-25.46654,0.35886,0.67776,9.51408,-0.03839,-0.09908,-0.09483,289.814,-5.96816,-0.19191,-0.03839
2018.02.26 11:08:29,31.96926,8.83656,-24.86649,0.29182,1.22365,9.15018,0.00954,-0.14169,-0.05435,290.11121,-6.29626,0.24019,0.00954
2018.02.26 11:08:29,32.36275,9.28631,-25.18539,0.22717,1.6546,9.30341,0.00209,0.01491,0.01489,290.36792,-6.29524,0.23585,0.00209
2018.02.26 11:08:29,32.86896,9.43623,-25.57907,0.47139,1.58755,9.9642,0.07346,-0.09056,0.14697,289.93488,-6.78971,0.63968,1019.31506
2018.02.26 11:08:30,33.09422,8.93021,-25.84152,0.31577,0.65143,11.17088,0.01807,0.16937,0.13953,288.84048,-7.43661,0.60422,1019.31543
2018.02.26 11:08:30,33.86307,8.66795,-26.29147,-0.62515,1.14464,8.83653,0.02872,0.19707,0.12674,287.37714,-6.18587,0.91402,0.02872
2018.02.26 11:08:30,35.47573,8.4053,-25.54131,-0.34026,0.65382,9.57874,0.02872,-0.1321,0.20024,286.47531,-5.92547,0.85555,0.02872
2018.02.26 11:08:30,35.60677,8.14266,-26.36623,-0.09364,1.44151,8.29784,0.14163,0.03621,0.11609,285.81909,-6.50159,0.75829,1019.31567
2018.02.26 11:08:30,36.30066,7.43046,-26.08509,-0.0314,1.54686,9.58113,-0.02135,-0.02025,0.08519,285.25333,-6.58293,0.88282,1019.31567
2018.02.26 11:08:30,36.35674,7.5428,-27.22893,0.08592,1.93951,9.5524,0.0692,-0.01704,-0.0714,285.60489,-7.06064,0.90627,0.0692
2018.02.26 11:08:30,37.16316,8.27408,-27.22874,0.09549,1.55405,10.82372,-0.02242,0.03621,-0.13106,286.5625,-7.26176,0.95397,1019.3158
2018.02.26 11:08:30,37.95052,8.81805,-27.49138,0.08832,0.49101,10.18446,-0.15344,0.13103,-0.21947,288.04443,-6.18619,0.64807,-0.15344
2018.02.26 11:08:30,38.19447,9.92432,-27.285,0.02367,0.65143,9.00174,0.10861,-0.00214,-0.02879,288.30701,-6.44622,-0.11429,0.10861
2018.02.26 11:08:31,38.86929,10.95543,-27.36015,0.45941,0.42159,9.78224,-0.08313,-0.08522,-0.18964,289.1615,-6.19002,0.16092,1019.31543
2018.02.26 11:08:31,38.45673,10.91805,-27.71645,0.37561,1.23561,8.93709,-0.04799,-0.09694,0.00636,289.21777,-5.98512,0.28301,-0.04799
2018.02.26 11:08:31,38.43803,11.04927,-27.97928,0.36604,1.81262,9.28664,-0.09273,0.07243,-0.04051,289.38513,-5.68349,0.2814,-0.09273
2018.02.26 11:08:31,38.62553,11.27434,-27.66018,-0.01942,1.30743,11.14215,0.02979,0.04153,0.04045,289.52444,-6.05858,0.07702,0.02979
2018.02.26 11:08:31,38.60683,10.8242,-28.11031,0.00212,0.84058,11.28101,-0.1151,0.06604,0.06496,289.01773,-6.11359,-0.24218,-0.1151
2018.02.26 11:08:31,39.2067,10.4681,-28.1292,-0.07928,1.09196,8.66176,0.21301,-0.08842,0.04152,288.31958,-5.53597,0.02962,0.21301
2018.02.26 11:08:31,39.88152,9.81178,-28.87878,-0.28279,0.33778,9.71761,0.0383,-0.06606,0.08093,288.04648,-6.06572,0.13541,0.0383
2018.02.26 11:08:31,39.63795,8.23631,-29.53491,-0.05295,1.44151,8.43431,0.14484,-0.04901,0.06815,287.17157,-6.35712,1.22758,0.14484
2018.02.26 11:08:31,39.13174,7.84302,-29.68521,-0.00267,1.47983,9.37044,-0.08208,-0.05008,-0.03198,287.40247,-6.11692,1.1411,1019.31519
2018.02.26 11:08:32,38.64441,7.80582,-30.11646,0.07155,1.7767,9.40157,0.00742,-0.04475,-0.03624,287.60162,-6.07277,1.39979,1019.31512
2018.02.26 11:08:32,39.24446,7.41177,-30.51033,-0.35222,1.22365,11.0392,-0.03839,-0.02238,-0.00536,287.67767,-6.28037,1.18148,-0.03839
2018.02.26 11:08:32,39.30054,7.41177,-30.99766,0.62701,0.09119,10.95061,-0.26636,-0.01172,-0.14597,288.14731,-5.04898,1.81084,-0.26636
2018.02.26 11:08:32,39.58168,7.52392,-30.45406,0.44984,0.51974,9.31776,0.12459,0.03514,-3e-05,288.04517,-5.17043,0.28575,0.12459
2018.02.26 11:08:32,39.9189,7.14893,-30.58529,0.33731,0.56046,9.24834,0.03191,0.0799,-0.10976,288.26608,-5.21658,0.16448,1019.31445
2018.02.26 11:08:32,39.63814,6.58646,-30.7539,0.42589,1.0321,9.12144,0.05748,-0.15128,-0.03519,288.0437,-5.88929,0.25448,1019.31403
2018.02.26 11:08:32,39.78806,6.23055,-31.4476,0.1338,1.6546,9.26749,0.06599,0.01277,0.01701,287.73407,-6.32467,0.32883,0.06599
2018.02.26 11:08:32,40.10677,5.48038,-31.59771,0.06915,1.25238,10.73035,0.02979,0.01704,0.14911,286.65472,-6.78349,0.1324,0.02979
2018.02.26 11:08:32,40.83786,3.36151,-31.87885,0.27028,0.26117,11.66647,-0.11189,-0.02132,0.20024,284.84531,-6.96789,-0.05907,-0.11189
2018.02.26 11:08:33,41.13789,1.69315,-32.10411,0.02367,0.92197,9.72957,0.17786,-0.00746,0.28867,283.17917,-7.08798,0.42553,1019.31384
2018.02.26 11:08:33,41.86954,-0.25711,-31.99158,-0.00267,1.0752,9.17172,0.04044,-0.02771,0.06921,282.01981,-7.23122,0.09677,0.04044
2018.02.26 11:08:33,42.16938,-0.48199,-32.53517,0.41153,1.38167,8.94427,-0.00218,-0.03622,-0.16089,281.66956,-7.52235,0.53319,-0.00218
2018.02.26 11:08:33,41.92581,-0.6321,-32.6849,-0.09364,1.84853,9.21481,0.01167,-0.0554,-0.05009,281.84286,-7.49902,0.69574,0.01167
2018.02.26 11:08:33,40.61298,-0.78201,-33.60386,-0.04576,1.96585,9.44705,0.02658,-0.09589,-0.16833,282.45331,-7.71454,1.16023,1019.31335
2018.02.26 11:08:33,40.53802,-0.51975,-33.81004,0.51927,1.88445,10.61542,-0.0107,-0.02557,-0.11508,282.84589,-7.57351,1.30697,1019.31348
2018.02.26 11:08:33,40.14454,0.60539,-34.0538,0.00452,0.43356,10.80457,-0.16942,0.15552,-0.24078,283.44269,-6.35926,0.70652,-0.16942
2018.02.26 11:08:33,40.66944,0.73662,-33.67882,0.34927,0.53651,9.17651,0.13524,-0.02132,-0.08205,283.72598,-7.15131,0.74495,0.13524
2018.02.26 11:08:33,40.51952,0.90542,-33.885,0.22478,0.9124,8.6019,0.03937,-0.00639,-0.09483,283.89832,-7.15323,0.84487,1019.31409
2018.02.26 11:08:34,39.86301,0.73662,-33.99773,0.3828,1.77191,8.99455,-0.04266,0.10439,-0.04477,283.55881,-7.18245,0.14435,1019.31396
2018.02.26 11:08:34,40.18173,0.45509,-33.37898,0.23915,1.97063,9.4303,0.08304,0.0181,0.07561,282.64633,-7.40714,-0.40967,0.08304
2018.02.26 11:08:34,40.14454,-0.36964,-33.77285,-0.09604,1.40799,10.56754,0.09157,0.02876,0.02554,281.87146,-8.23268,-0.56618,0.09157
2018.02.26 11:08:34,40.42568,-0.59414,-33.39767,-0.19659,0.47665,11.33368,-0.30791,-0.03729,0.12781,281.20496,-8.19282,-0.88747,-0.11403
2018.02.26 11:08:34,40.81917,-0.42553,-33.24776,-0.855,0.84775,9.43747,-0.00111,0.10652,0.08839,280.04379,-6.82327,-1.02423,-0.00111
2018.02.26 11:08:34,40.12547,-1.25084,-34.44767,-0.04097,1.13266,9.10947,-0.0416,-0.22797,0.24498,278.64398,-6.4807,0.06349,-0.0416
2018.02.26 11:08:34,39.3568,-2.13203,-34.97295,0.08832,1.39603,8.64738,-0.01709,-0.12251,0.12248,277.84576,-6.48521,0.84638,-0.01709
2018.02.26 11:08:34,38.68179,-1.71967,-35.85396,0.05719,1.5325,9.37283,-0.03094,-0.09161,0.04684,277.00079,-6.16678,1.28244,-0.03094
2018.02.26 11:08:34,37.66899,-1.36318,-35.6102,0.08113,1.57799,10.26587,-0.03307,0.0703,-0.17259,277.59467,-6.43086,1.0412,-0.03307
2018.02.26 11:08:35,36.71284,-0.42572,-36.60393,0.63179,0.9124,11.35284,-0.01816,0.00745,-0.08737,278.34045,-5.8151,1.10023,1019.31531
2018.02.26 11:08:35,36.67564,0.02441,-36.84769,0.37561,0.57721,9.72957,0.00954,0.20346,-0.24823,278.92719,-5.10834,1.64608,1019.31561
2018.02.26 11:08:35,36.00063,1.28059,-36.86657,0.30139,-0.01656,10.02167,-0.0565,-0.09589,-0.05649,279.67667,-5.01673,0.94655,1019.31616
2018.02.26 11:08:35,35.49423,1.97411,-36.56635,0.16971,1.15181,8.36487,0.13205,0.19067,-0.07565,279.90759,-5.16835,0.34841,0.13205
2018.02.26 11:08:35,35.15663,2.04906,-36.69758,0.47379,1.30505,9.15497,0.0415,-0.00214,-0.06288,280.31812,-5.40082,0.84209,0.0415
2018.02.26 11:08:35,34.27582,1.46809,-36.37867,0.25591,1.8174,9.19566,0.07239,-0.04048,0.04471,280.27094,-5.86926,0.96365,1019.31628
2018.02.26 11:08:35,32.55081,0.60539,-37.24155,0.44026,0.71368,11.39594,-0.01176,-0.16086,0.13527,279.76495,-6.17196,1.58364,-0.01176
2018.02.26 11:08:35,31.61335,0.09918,-36.02295,0.39478,0.37849,11.3289,-0.2621,0.10332,0.17574,278.30136,-5.76862,0.90512,-0.2621
2018.02.26 11:08:35,31.78196,0.11806,-35.57301,-0.02422,0.51018,8.93948,-0.02988,0.04367,0.22261,277.1041,-4.82789,0.8899,-0.02988
2018.02.26 11:08:36,32.04422,-0.21954,-35.61039,-0.14871,0.6179,9.19566,0.07132,-0.01492,0.04578,276.44336,-5.84835,0.58281,1019.315
2018.02.26 11:08:36,31.80027,-0.85697,-34.935,-0.22054,1.26674,8.58275,0.14163,0.04047,-0.02773,276.45981,-6.67132,0.93892,0.14163
2018.02.26 11:08:36,31.06918,-1.94435,-34.63478,0.02127,1.48222,9.3465,0.03297,-0.09801,0.09479,275.88824,-6.94695,1.16954,0.03297
2018.02.26 11:08:36,29.53167,-1.92566,-34.12857,0.19844,1.82698,8.98257,0.04469,-0.00746,-0.0011,275.78833,-7.24364,1.31623,0.04469
2018.02.26 11:08:36,28.98788,-1.83201,-34.12876,0.16971,1.26674,10.94583,-0.05331,-0.0554,-0.03944,276.01053,-6.89359,1.66725,-0.05331
2018.02.26 11:08:36,28.53794,-1.17588,-34.03511,0.35167,-0.09557,11.32651,-0.43787,0.06071,-0.40056,277.73801,-5.73143,1.53988,-0.43787
2018.02.26 11:08:36,28.6129,0.45528,-33.69732,-0.06731,0.73044,8.72639,0.1917,0.08627,-0.0959,278.8653,-5.37555,0.49896,0.1917
2018.02.26 11:08:36,28.18165,1.05534,-33.58479,0.1362,0.51256,9.59071,-0.03946,0.00745,-0.17154,279.50635,-5.41857,0.40638,1019.31238
2018.02.26 11:08:36,28.68805,1.43051,-33.19111,0.41632,1.2021,8.64499,0.04362,-0.07245,0.05003,279.58228,-5.75497,0.53681,0.04362
2018.02.26 11:08:37,28.65067,1.58043,-33.56647,0.47856,1.84373,9.14778,0.02126,0.02769,-0.00215,279.59299,-5.83019,1.03797,0.02126
2018.02.26 11:08:37,28.01304,1.4679,-32.89146,0.31577,1.06563,11.18045,0.0479,0.0213,0.09265,279.26385,-6.3234,1.10129,0.0479
2018.02.26 11:08:37,28.48186,1.07422,-33.32272,0.00212,0.9962,10.88837,-0.02881,0.18854,0.14697,278.59821,-6.41801,0.48577,1019.31165
2018.02.26 11:08:37,28.76301,0.90561,-33.26626,-0.21574,0.97464,9.62422,0.00954,0.08522,0.11395,277.43445,-5.25625,0.1448,0.00954
2018.02.26 11:08:37,28.87535,0.77438,-32.57236,-0.24687,0.59636,9.6721,0.06174,-0.13103,0.19705,276.34323,-6.14513,0.28941,1019.31183
2018.02.26 11:08:37,28.40672,0.39902,-33.13522,-0.06731,1.51334,8.4798,0.08304,0.02237,0.03406,275.85242,-7.0607,0.78602,1019.31171
2018.02.26 11:08:37,28.29399,0.00534,-33.60405,-0.06731,1.42955,9.41353,-0.02562,-0.08949,0.05963,275.80881,-7.0496,0.91565,1019.31171
2018.02.26 11:08:37,28.1065,0.49286,-34.2041,0.05959,1.7767,9.23875,0.11713,0.07455,-0.05968,276.32843,-7.62071,1.25377,0.11713
2018.02.26 11:08:37,28.20034,0.86803,-33.96015,-0.24208,1.11111,11.1637,-0.02348,0.16405,-0.01707,276.95544,-7.63366,1.12925,-0.02348
2018.02.26 11:08:38,28.088,1.89915,-34.20372,0.82573,0.62988,10.59866,-0.23866,-0.06818,-0.19817,277.74579,-6.87818,1.08573,1019.31207
2018.02.26 11:08:38,28.36933,3.8868,-33.73508,0.30379,0.74719,9.47578,0.10648,-0.03622,0.0085,278.35522,-6.25529,0.61521,1019.31219
2018.02.26 11:08:38,28.59421,5.23663,-34.37252,0.27985,0.70889,8.63303,0.07239,0.12996,-0.08951,279.22903,-6.32968,0.31314,1019.31238
2018.02.26 11:08:38,28.7817,5.18055,-34.24149,0.32533,1.39603,8.95624,-0.00751,0.00319,-0.02559,279.66122,-6.46487,0.24858,-0.00751
2018.02.26 11:08:38,28.95069,5.68676,-33.92258,0.18887,1.62108,9.44945,0.03723,-0.06285,0.0085,280.57947,-6.35284,0.53473,0.03723
2018.02.26 11:08:38,29.32529,6.28681,-33.99773,0.35646,1.22365,10.52684,-0.01283,-0.04901,0.06602,280.75122,-6.44179,0.68822,-0.01283
2018.02.26 11:08:38,29.47559,6.62403,-33.58517,-0.0314,0.03612,12.08546,-0.38673,0.04474,0.16083,280.80826,-5.65783,0.71616,-0.38673
2018.02.26 11:08:38,29.68197,7.11174,-33.34141,-0.14871,1.04169,8.94427,0.24603,0.08627,0.11183,279.68799,-5.65035,0.76327,0.24603
2018.02.26 11:08:38,30.45082,6.287,-34.11026,-0.17265,0.84775,9.55959,0.09264,-0.14063,0.20345,278.90869,-6.11769,0.86373,0.09264
2018.02.26 11:08:39,30.8445,5.96809,-34.54132,0.11465,1.53728,8.62584,0.12566,0.0181,0.03726,278.94647,-6.69538,1.00813,1019.31445
2018.02.26 11:08:39,30.01919,5.33028,-34.35402,0.16493,1.83896,9.20525,0.08092,-0.06606,0.02873,279.45923,-7.40292,1.25389,1019.31415
2018.02.26 11:08:39,29.68178,5.49927,-34.44767,-0.05295,1.54446,10.3808,0.01167,-0.10654,-0.07353,280.89423,-8.00738,1.50523,1019.31366
2018.02.26 11:08:39,29.86908,5.85556,-34.25999,0.58391,1.74318,10.28981,0.04895,-0.08096,-0.17899,282.36481,-8.37753,1.85382,0.04895
2018.02.26 11:08:39,29.90685,6.79302,-34.0723,0.71559,0.83339,9.97139,-0.27275,0.11185,-0.24611,283.91684,-7.21276,1.6215,1019.31299
2018.02.26 11:08:39,30.5254,8.23669,-33.86631,0.31097,0.76157,9.36565,0.06281,0.07243,-0.01282,284.32309,-7.40576,1.29068,1019.31268
2018.02.26 11:08:39,30.63793,8.53672,-33.43506,0.27266,1.29068,8.51093,0.04576,0.11504,-0.03412,284.93845,-7.3432,0.33687,0.04576
2018.02.26 11:08:39,30.99422,8.7429,-32.98492,0.26549,1.28349,9.58113,-0.0874,0.02237,-0.08525,286.11386,-6.35507,-0.34536,-0.0874
2018.02.26 11:08:39,31.29425,8.78029,-32.60994,-0.00267,2.1095,8.97061,0.02446,0.07776,0.0607,286.29083,-6.37209,-0.52903,0.02446
2018.02.26 11:08:40,31.33183,7.99294,-32.36656,0.25351,1.4846,10.35686,0.10754,-0.21199,0.14059,286.15991,-6.81083,0.33255,1019.3114
2018.02.26 11:08:40,31.68774,7.89948,-31.65417,0.23915,0.04091,12.11899,-0.25891,-0.03729,0.34724,284.7327,-6.54334,0.28433,1019.3114
2018.02.26 11:08:40,32.77531,6.86817,-31.57883,-0.13196,0.89085,8.83414,0.16614,0.1747,0.17361,282.78967,-6.81053,0.15944,0.16614
2018.02.26 11:08:40,33.24413,5.59292,-31.18515,-0.09125,0.72804,9.92349,-0.00325,-0.0799,0.16508,281.85971,-6.86972,0.74094,-0.00325
2018.02.26 11:08:40,33.45013,4.82426,-30.9042,-0.07689,1.69769,8.28108,0.13737,-0.01067,0.00317,281.86676,-7.41058,0.95473,0.13737
2018.02.26 11:08:40,34.18159,5.64938,-31.35395,-0.14153,1.80544,9.38002,-0.02135,0.02982,-0.10016,282.65469,-7.38771,0.68229,1019.31201
2018.02.26 11:08:40,34.42554,6.8119,-31.46629,-0.24927,1.54926,10.12222,-0.03734,-0.01279,-0.17366,284.18719,-7.54767,0.56544,-0.03734
2018.02.26 11:08:40,34.89437,7.44934,-31.59733,0.74432,1.18054,10.96977,-0.10977,-0.1353,-0.16301,285.66504,-7.01801,0.67259,-0.10977
2018.02.26 11:08:40,34.93176,8.70552,-30.64156,-0.10323,0.59636,10.01927,-0.28979,0.09799,-0.1694,286.5307,-5.615,0.53892,-0.28979
2018.02.26 11:08:41,36.00044,10.09293,-29.74148,0.2607,0.57961,9.50931,0.09157,-0.01492,-0.04691,286.98718,-5.73231,0.14411,1019.31293
2018.02.26 11:08:41,37.33177,10.71167,-29.89159,0.24872,1.16618,8.16615,0.1395,0.07776,-0.02879,287.50519,-6.22883,-0.01244,0.1395
2018.02.26 11:08:41,38.21297,11.04927,-29.83494,0.27745,1.25716,9.44705,-0.0107,0.02449,-0.09909,288.00403,-6.47233,-0.16332,1019.31323
2018.02.26 11:08:41,38.70029,11.89289,-29.12273,0.30379,1.78868,9.40157,0.12672,0.00319,-0.07033,289.13513,-6.78573,-0.22869,0.12672
2018.02.26 11:08:41,39.82544,12.69932,-28.93543,-0.01703,1.41039,10.48613,0.05215,-0.10014,0.07242,289.26947,-7.52123,-0.31571,1019.31317
2018.02.26 11:08:41,41.19434,12.56809,-28.54156,-0.11758,0.27554,11.60184,-0.29086,0.11078,0.2354,288.32355,-7.08266,-1.05158,1019.31317
2018.02.26 11:08:41,42.39445,12.32414,-27.88525,-0.18941,1.30505,8.91315,0.20341,-0.01172,0.13632,286.9733,-7.08125,-0.11289,0.20341
2018.02.26 11:08:41,42.86327,11.63006,-28.82309,-0.25645,1.14943,9.70084,0.0383,-0.21626,0.14592,286.4072,-6.96393,0.86345,0.0383
2018.02.26 11:08:41,42.97543,10.43053,-28.57914,-0.05055,1.74078,8.33853,0.1427,0.049,-0.01282,286.54309,-7.69944,0.82365,0.1427
2018.02.26 11:08:42,43.08815,9.88655,-28.63522,-0.1535,1.73361,9.23875,0.05109,0.01277,0.02341,286.36105,-8.10011,0.82572,0.05109
2018.02.26 11:08:42,43.95065,9.36184,-28.09143,0.04044,1.52052,10.59387,-0.01176,-0.09056,-0.0746,286.92288,-8.4661,0.8062,-0.01176
2018.02.26 11:08:42,43.61305,9.24911,-27.56634,0.38519,1.95627,9.97856,0.09264,0.02023,-0.18326,288.27017,-8.57698,1.0132,1019.31305
2018.02.26 11:08:42,42.24434,10.18658,-27.39792,0.33492,0.86691,9.3082,-0.16623,0.11185,-0.29192,289.43842,-7.19806,0.83254,-0.16623
2018.02.26 11:08:42,42.11311,10.95543,-27.41642,0.38759,0.71129,9.50931,-0.00644,-0.0309,-0.065,289.79456,-7.46399,0.49933,1019.31317
2018.02.26 11:08:42,41.60709,10.16769,-26.98517,0.05479,1.54446,8.65697,0.07132,0.06497,0.00957,290.02411,-7.57544,0.32973,1019.31317
2018.02.26 11:08:42,41.30726,10.03666,-27.06032,0.37323,1.79346,9.49014,-0.02348,0.00533,-0.06821,290.30011,-7.60131,0.35433,-0.02348
2018.02.26 11:08:42,41.6256,9.49287,-26.87263,-0.05295,1.83177,9.98814,0.02339,0.05965,0.03726,290.13361,-8.0818,0.08839,0.02339
2018.02.26 11:08:42,40.59429,8.48026,-25.97256,0.38998,1.657,10.05518,0.07878,-0.02876,0.08412,289.53497,-8.30656,0.17571,1019.31311
2018.02.26 11:08:43,40.31296,7.91779,-26.08528,-0.02661,0.03133,11.46776,-0.45279,-0.07352,0.14165,288.6889,-6.92795,0.43451,1019.31354
2018.02.26 11:08:43,40.18192,6.75545,-26.04752,0.04521,0.89325,10.27785,-0.11189,-0.16832,0.06921,287.5452,-6.34156,0.69872,-0.11189
2018.02.26 11:08:43,39.37569,5.93033,-26.17874,0.10747,1.27393,8.6833,0.18744,-0.11826,0.12993,286.34235,-6.63323,1.11786,0.18744
2018.02.26 11:08:43,38.81302,5.29289,-26.04771,-0.29715,1.52052,8.98018,0.03723,0.07669,0.02766,286.14035,-7.18217,0.96581,0.03723
2018.02.26 11:08:43,37.95052,4.39281,-25.93536,0.02846,1.93233,8.91075,0.08304,-0.01067,-0.00536,285.75226,-7.634,1.09016,1019.31403
2018.02.26 11:08:43,36.91921,4.63676,-26.49784,0.18169,1.09436,10.97934,-0.0629,-0.08417,-0.10548,286.17712,-7.75065,1.28013,-0.0629
2018.02.26 11:08:43,36.0569,5.87463,-27.22874,0.68686,-0.03571,11.79816,-0.41017,-0.28656,-0.29297,287.39777,-6.7176,2.40574,-0.41017
2018.02.26 11:08:43,35.23178,7.22427,-27.64149,0.3828,0.85733,9.49733,0.02126,0.28654,-0.21947,288.44833,-5.961,1.58026,0.02126
2018.02.26 11:08:43,34.76295,8.18062,-27.58522,0.32773,0.69452,9.59309,0.07771,0.15233,-0.07565,288.45105,-6.31345,1.18905,1019.31384
2018.02.26 11:08:44,34.91306,7.41177,-27.90375,0.37801,1.30026,8.71204,0.06174,0.1257,0.05003,288.03387,-7.0588,-0.11206,1019.31348
2018.02.26 11:08:44,34.78184,7.44915,-28.6726,0.27985,1.94669,9.27946,0.01913,0.06923,0.0575,287.80325,-7.10535,-0.43703,0.01913
2018.02.26 11:08:44,34.70669,7.73048,-28.63579,-0.0314,1.95148,9.90195,0.05002,-0.02983,0.11288,287.41577,-7.53109,-0.3695,1019.31299
2018.02.26 11:08:44,34.48181,7.22427,-28.84159,-0.00507,1.56601,10.63937,0.09476,0.12996,0.21835,286.35562,-8.23895,-0.28075,0.09476
2018.02.26 11:08:44,34.70688,6.45542,-29.01001,0.30618,0.87169,10.17729,-0.05864,-0.12465,0.26735,284.45975,-7.25939,0.23781,-0.05864
2018.02.26 11:08:44,34.85661,5.34916,-29.92916,-0.31152,0.88367,9.35847,0.02872,-0.08203,0.09798,283.71625,-8.2713,0.03622,0.02872
2018.02.26 11:08:44,35.25047,4.59957,-30.8857,0.01888,0.97943,9.41353,0.03404,-0.20134,0.10223,283.19373,-8.21496,0.87358,0.03404
2018.02.26 11:08:44,34.89418,4.91829,-31.44779,-0.12238,1.71207,9.3441,-0.06396,-0.04901,-0.05223,283.73114,-8.6306,0.96359,-0.06396
2018.02.26 11:08:44,35.00652,5.14297,-32.76024,0.2607,2.16936,9.17412,0.00528,-0.03409,-0.17259,284.69489,-8.54413,1.34426,0.00528
2018.02.26 11:08:45,34.80053,6.11801,-33.09765,0.37323,1.41757,10.70401,-0.01816,-0.12465,-0.21947,285.85712,-8.6331,1.4832,1019.31342
2018.02.26 11:08:45,35.11906,6.83041,-33.004,0.22,0.76874,10.92906,-0.19179,0.00426,-0.23119,287.30917,-8.43815,0.91571,1019.31372
2018.02.26 11:08:45,35.5505,9.04293,-32.55405,0.20563,0.97464,9.21242,-0.00218,0.1161,-0.0959,288.50815,-6.88474,-0.05446,-0.00218
2018.02.26 11:08:45,35.53181,9.64298,-32.79762,0.02846,0.66579,9.51648,-0.05118,0.11398,-0.19284,289.55563,-6.71008,0.1361,-0.05118
2018.02.26 11:08:45,35.38189,10.16808,-33.0225,-0.02901,1.35533,8.35291,0.12991,0.00533,0.1342,289.24146,-7.22294,-0.2158,1019.31427
2018.02.26 11:08:45,36.45077,9.71794,-33.04157,0.53363,1.71207,9.5117,-0.0352,-0.00853,-0.03519,289.37796,-7.21628,0.15345,1019.31445
2018.02.26 11:08:45,36.71322,10.43053,-33.58498,0.15535,1.75755,10.22038,0.03085,0.10013,-3e-05,289.7865,-7.67207,-0.1519,0.03085
2018.02.26 11:08:45,36.60049,10.05535,-33.37879,-0.07689,1.31462,10.90991,0.07239,0.17577,0.09798,289.29538,-8.1523,-0.30405,0.07239
2018.02.26 11:08:45,36.82575,8.96797,-33.73547,0.07874,0.59157,10.86922,-0.2131,-0.04901,0.20131,288.48956,-7.19791,-0.39468,-0.2131
2018.02.26 11:08:46,37.33196,8.46176,-33.69789,-0.40968,0.59875,9.13101,0.03404,0.00745,0.05003,287.82306,-7.68822,-0.89455,0.03404
2018.02.26 11:08:46,38.06286,8.51784,-33.22906,0.03564,1.54926,8.42952,0.02446,-0.11612,0.0788,287.18311,-7.52433,-0.29433,0.02446
2018.02.26 11:08:46,37.87556,8.59299,-33.3601,-0.34982,1.5325,9.05679,-0.05544,0.02663,-0.03091,287.22058,-7.4523,-0.01333,1019.31622
2018.02.26 11:08:46,38.34438,8.91171,-33.75397,-0.02182,2.10231,9.38481,-0.00644,-0.12784,-0.00854,287.48224,-7.16993,0.41253,-0.00644
2018.02.26 11:08:46,38.15689,8.96778,-33.54759,-0.06491,1.60912,10.59148,-0.02348,-0.09589,-0.08418,288.40643,-7.38849,0.6321,-0.02348
2018.02.26 11:08:46,38.43822,9.84917,-33.62255,0.43307,0.42398,11.6593,-0.21097,-0.12038,-0.15875,289.29684,-6.71029,1.05869,1019.31677
2018.02.26 11:08:46,38.11913,10.50529,-33.5289,-0.0338,1.04169,8.79584,0.12885,0.28122,-0.06288,290.0206,-6.37557,-0.26307,0.12885
2018.02.26 11:08:46,38.71937,10.3178,-33.13503,0.1769,0.21568,10.01448,-0.02135,-0.10014,-0.03624,290.05322,-6.50913,0.0463,-0.02135
2018.02.26 11:08:46,38.6631,10.16769,-32.51648,0.12422,1.42715,8.07758,0.09689,0.04153,0.02448,290.1618,-6.45263,0.05491,0.09689
2018.02.26 11:08:47,38.8319,10.52418,-32.53517,0.16493,1.69769,9.15974,-0.01923,0.04581,0.02448,290.18628,-6.28726,-0.11609,-0.01923
2018.02.26 11:08:47,39.26334,10.50549,-32.59125,0.19127,1.7384,9.76309,0.07985,0.00745,0.08412,289.89713,-6.69361,-0.17204,1019.3172
2018.02.26 11:08:47,39.31942,10.26154,-31.76632,-0.49109,1.18773,11.12778,-0.09166,0.05751,0.08519,289.24445,-6.89349,-0.04812,1019.3172
2018.02.26 11:08:47,38.96275,9.51157,-31.31638,-0.01463,0.41919,10.9147,-0.25464,-0.09589,0.2045,288.45773,-5.41762,0.26876,-0.25464
2018.02.26 11:08:47,39.82544,8.53653,-31.44798,-0.0721,0.38567,9.71999,0.01274,-0.19283,0.09691,287.17523,-6.66507,0.09474,1019.31732
2018.02.26 11:08:47,39.80675,8.2552,-32.08523,-0.23012,1.657,8.3577,0.16933,-0.04901,0.14272,286.45279,-7.17837,0.94646,1019.31732
2018.02.26 11:08:47,39.69421,7.58018,-31.9725,0.08113,1.71207,9.11426,0.02765,-0.06392,0.04578,286.18402,-7.59121,1.47127,0.02765
2018.02.26 11:08:47,39.35661,7.67422,-31.8037,0.18648,1.70009,9.45184,0.06494,0.02982,-0.0927,286.75235,-8.21043,1.55709,0.06494
2018.02.26 11:08:47,39.03809,8.38661,-31.57864,0.16014,1.46066,10.5029,-0.07675,-0.15128,-0.13213,287.46683,-7.94082,2.0711,1019.31689
2018.02.26 11:08:48,39.16912,10.2993,-31.31618,-0.1559,-0.2464,12.028,-0.48367,0.1012,-0.326,289.09018,-6.69029,1.76938,1019.31653
2018.02.26 11:08:48,38.96275,12.17422,-30.45387,0.6701,0.62509,9.48537,0.14696,-0.09801,-0.1172,290.85461,-6.41916,1.43463,0.14696
2018.02.26 11:08:48,38.90686,12.88662,-30.79147,0.08592,0.85254,8.48459,0.12885,0.0948,-0.0959,291.21478,-6.78511,1.14143,1019.31586
2018.02.26 11:08:48,39.07585,13.29937,-30.11627,0.56715,1.27632,9.44466,-0.07887,-0.09161,-0.00322,291.43542,-7.05878,1.30444,-0.07887
2018.02.26 11:08:48,39.09416,13.37433,-30.62248,0.48575,2.08076,9.05919,0.02232,0.07455,0.09372,291.42715,-6.84241,1.47866,0.02232
2018.02.26 11:08:48,39.33811,13.29918,-30.15366,0.57434,1.47983,10.60825,0.07771,0.05858,0.12888,290.68042,-7.20811,0.83799,0.07771
2018.02.26 11:08:48,40.51933,13.65528,-29.16012,0.24872,0.21329,11.89154,-0.21204,0.0735,0.2045,289.90756,-7.0106,0.79402,-0.21204
2018.02.26 11:08:48,41.58764,13.24272,-28.42903,-0.45038,1.16139,8.75992,0.19702,0.01491,0.12888,288.96112,-6.53208,-0.10088,0.19702
2018.02.26 11:08:48,42.07535,12.23049,-28.41034,0.00931,0.94353,9.24594,0.08304,-0.01279,0.27267,287.48294,-6.75166,0.20446,0.08304
2018.02.26 11:08:49,42.46922,11.03058,-28.61652,-0.06252,1.70009,8.79822,0.15868,-0.03836,0.20982,286.57608,-7.63664,0.78608,1019.31262
2018.02.26 11:08:49,43.74409,9.6241,-29.57268,0.10028,1.8988,9.2627,0.02019,-0.07884,0.06282,285.92682,-8.05798,1.09718,1019.31189
2018.02.26 11:08:49,43.61305,9.98039,-29.47903,0.49054,1.38644,10.77344,0.0106,-0.14169,-0.18964,287.18225,-8.50731,1.38359,1019.31158
2018.02.26 11:08:49,43.55679,10.54306,-29.68559,0.72517,1.10872,11.10384,0.04256,0.02449,-0.17793,288.0011,-8.66648,1.32192,0.04256
2018.02.26 11:08:49,44.55013,11.93066,-29.68502,0.30858,1.02731,9.50931,0.02446,0.10439,-0.15129,290.18112,-7.41229,0.95299,0.02446
2018.02.26 11:08:49,45.13149,12.36191,-29.59156,0.57912,0.77592,9.49254,0.01913,-0.07457,-0.16515,290.81586,-7.66209,1.46693,1019.31177
2018.02.26 11:08:49,46.42544,11.89289,-29.19769,0.32773,1.58517,8.24756,0.11926,0.02663,-0.0224,291.22278,-8.13984,1.0087,0.11926
2018.02.26 11:08:49,46.81892,11.91177,-28.93524,0.43787,1.59235,9.54521,-0.08208,0.05965,-0.02666,291.25604,-7.95161,0.79473,-0.08208
2018.02.26 11:08:49,47.3814,11.27396,-28.29762,0.21761,1.65221,10.43347,-0.00858,-0.0032,0.07668,290.68268,-8.29999,0.77647,-0.00858
2018.02.26 11:08:50,47.60666,9.53007,-27.92282,0.21761,1.61868,10.41431,0.10222,0.0948,0.19385,289.6279,-8.44219,0.79131,1019.31268
2018.02.26 11:08:50,48.63834,7.69272,-27.45399,0.24394,1.02492,10.27306,-0.14386,-0.07457,0.30676,287.04373,-6.93901,0.85971,-0.14386
2018.02.26 11:08:50,48.52562,5.72395,-27.22874,-0.0697,0.98422,9.50931,0.00635,-0.03729,0.19173,285.38763,-7.35159,0.74427,0.00635
2018.02.26 11:08:50,48.28186,3.15552,-27.94132,0.10028,1.1183,8.48938,0.16081,-0.07564,0.24818,284.11603,-7.75936,1.38165,0.16081
2018.02.26 11:08:50,48.46935,1.35555,-28.35407,-0.02422,1.49179,9.17172,-0.06183,-0.08629,0.082,282.77701,-8.2909,1.77553,-0.06183
2018.02.26 11:08:50,48.24429,0.51193,-28.29781,0.33492,2.17892,9.02568,0.00635,-0.05008,-0.12999,282.72012,-8.23821,2.02082,0.00635
2018.02.26 11:08:50,46.70677,0.62428,-28.05405,0.1338,1.30266,11.0751,-0.0938,-0.0799,-0.17686,283.23309,-8.16597,2.20433,1019.31494
2018.02.26 11:08:50,45.54424,1.35574,-28.35388,0.73474,0.38089,11.41508,-0.26636,-0.23436,-0.28125,284.33838,-7.37023,2.45661,1019.3158
2018.02.26 11:08:50,44.79408,2.64969,-28.05386,0.3445,0.8262,9.28424,0.04576,0.2269,-0.18964,285.72638,-6.23373,1.69537,0.04576
2018.02.26 11:08:51,44.36302,3.32432,-28.39146,0.32056,0.35933,9.62901,-0.09698,0.01704,-0.0746,285.85132,-5.94189,1.48927,1019.31677
2018.02.26 11:08:51,43.93177,3.02391,-29.02908,0.4642,1.25238,9.08313,0.03618,0.07883,-0.00748,285.4635,-6.0928,0.69374,1019.3172
2018.02.26 11:08:51,43.59417,2.94895,-28.56007,0.53603,1.72403,9.2627,0.03511,0.05325,0.00957,285.30017,-6.17621,0.60688,1019.31769
2018.02.26 11:08:51,43.27545,3.24917,-27.58522,0.05959,1.47743,10.5867,0.02872,0.00745,0.12035,284.20703,-6.83749,0.32821,0.02872
2018.02.26 11:08:51,42.97562,2.40555,-27.75402,-0.31152,1.159,10.96498,-0.09166,0.25566,0.22261,282.33728,-7.30889,-0.19332,-0.09166
2018.02.26 11:08:51,42.18788,0.60539,-27.58522,0.01888,1.30026,9.12384,0.22153,-0.05327,0.19705,280.25623,-6.69663,0.34791,0.22153
2018.02.26 11:08:51,41.75663,-0.35038,-27.9974,-0.08168,0.90761,9.2627,0.05534,-0.00107,0.17255,279.30524,-7.15694,0.15555,1019.31915
2018.02.26 11:08:51,41.94431,-0.91324,-28.52268,0.17929,1.53011,8.31459,0.12991,0.05006,-0.03198,278.55334,-7.86963,0.59983,0.12991
2018.02.26 11:08:51,41.7944,-0.98839,-28.59783,-0.2397,1.80064,9.26749,-0.04053,-0.04688,-0.05116,278.77295,-7.79051,0.74621,-0.04053
2018.02.26 11:08:52,40.98816,0.21172,-28.97263,0.03085,2.12148,9.30341,-0.02667,-0.01811,-0.12573,279.23022,-7.77853,0.68547,1019.3197
2018.02.26 11:08:52,40.68813,1.39313,-29.16012,0.1769,1.83656,10.24193,0.03085,-0.00107,-0.15662,280.19281,-7.73785,1.02437,1019.31982
2018.02.26 11:08:52,40.03162,3.39909,-30.07908,0.28943,0.51735,10.65134,-0.22162,0.16724,-0.2802,281.84076,-5.92219,1.4651,1019.31982
2018.02.26 11:08:52,40.10677,5.40543,-29.8727,0.25591,0.52933,9.7583,-0.02667,-0.00107,-0.18005,282.86542,-6.40896,1.21627,-0.02667
2018.02.26 11:08:52,39.8819,5.72414,-30.52883,-0.02901,0.94353,8.31699,0.15335,0.15233,-0.10442,283.45624,-6.67256,0.58324,0.15335
2018.02.26 11:08:52,40.08808,5.85537,-29.79755,0.42111,1.29787,9.53804,-0.05118,-0.00214,-0.12146,283.94043,-7.00056,0.37046,-0.05118
2018.02.26 11:08:52,40.27576,6.73676,-30.30376,0.37083,1.77431,9.50212,0.02765,-0.06924,-3e-05,284.30719,-7.17666,0.50108,0.02765
2018.02.26 11:08:52,40.10677,7.39326,-29.98543,-0.05774,1.76952,10.26587,0.11713,0.11185,0.09479,283.86948,-7.3453,0.46223,0.11713
2018.02.26 11:08:52,40.66925,6.38065,-29.94766,0.38519,-0.00218,12.10461,-0.34413,-0.16086,0.229,283.0473,-6.32039,0.73403,-0.34413
2018.02.26 11:08:53,40.81936,5.70564,-30.22881,-0.55573,1.02254,9.09511,0.17679,0.18109,0.13527,281.47955,-6.63436,0.32455,1019.31915
2018.02.26 11:08:53,41.90655,4.67434,-30.47256,0.11226,1.10393,8.46782,0.12991,-0.08522,0.20663,280.7308,-7.18438,0.71979,0.12991
2018.02.26 11:08:53,42.41314,2.98672,-29.89159,-0.11041,1.5708,8.48938,0.05428,-0.02344,0.0575,279.99939,-7.92168,0.90835,1019.31952
2018.02.26 11:08:53,43.05077,2.76184,-30.52902,0.14577,2.19809,9.11426,-0.00858,-0.04688,-0.01707,279.76447,-7.82321,0.93071,1019.3197
2018.02.26 11:08:53,41.75682,2.76165,-30.94158,-0.01942,1.15181,10.97694,-0.10445,-0.11186,-0.18005,280.86038,-7.7365,1.3207,-0.10445
2018.02.26 11:08:53,41.26911,3.32432,-31.33488,0.72517,0.14386,12.05434,-0.36436,-0.19495,-0.27806,282.38623,-6.47613,1.89032,-0.36436
2018.02.26 11:08:53,41.1377,4.7678,-30.97858,0.40913,0.66579,9.42551,0.14803,0.0213,-0.13957,283.52481,-6.13579,1.21983,0.14803
2018.02.26 11:08:53,41.83159,4.76799,-31.42891,0.20563,0.90521,8.36726,0.06706,0.19174,-0.06607,284.11511,-6.33019,0.6825,0.06706
2018.02.26 11:08:53,42.00077,4.48685,-31.41041,0.42111,1.42715,9.21002,-0.05331,0.02237,0.04152,283.54202,-6.56355,0.09153,-0.05331
2018.02.26 11:08:54,41.53194,4.33693,-31.50425,0.3828,1.94191,9.3058,-0.00751,-0.04048,0.09052,283.10876,-6.50013,0.24943,1019.32251
2018.02.26 11:08:54,41.34426,3.58677,-31.87904,0.25591,1.32899,10.76387,0.06281,0.01917,0.1246,282.34854,-7.18946,0.64564,1019.32288
2018.02.26 11:08:54,41.34407,2.64931,-32.17888,0.15775,-0.15302,12.70078,-0.29939,0.13422,0.18213,281.15222,-7.28545,0.42277,-0.29939
2018.02.26 11:08:54,41.40053,2.04906,-31.95381,-0.25406,0.7448,8.84372,0.14589,-0.06818,0.08946,279.53198,-7.2159,-0.3444,0.14589
2018.02.26 11:08:54,41.56933,0.43659,-32.62863,-0.26125,0.72804,8.85329,0.06174,0.01598,0.12781,279.00757,-7.34331,-0.17709,1019.32404
2018.02.26 11:08:54,41.23173,-0.4818,-33.82874,-0.18703,1.23082,8.66176,-0.0352,-0.07138,0.09158,277.86981,-7.34936,0.71237,1019.32465
2018.02.26 11:08:54,41.32557,-0.08812,-34.0538,0.1362,1.89641,9.24834,-0.05225,-0.09161,0.03938,277.34732,-6.95675,1.21215,-0.05225
2018.02.26 11:08:54,40.85674,0.09937,-34.76639,0.16971,1.40561,10.77823,-0.03839,-0.05859,-0.12785,278.06046,-7.19886,1.3846,-0.03839
2018.02.26 11:08:54,40.33165,0.30556,-35.01015,0.44505,1.00337,10.82851,-0.07994,-0.1257,-0.23972,279.1886,-7.01985,1.22188,1019.3266
2018.02.26 11:08:55,40.31296,2.21825,-35.08549,0.36125,0.56763,9.42551,0.05748,0.10545,-0.23012,280.81229,-5.67465,0.85214,1019.32715
2018.02.26 11:08:55,40.29446,2.85568,-35.42271,0.34689,0.29948,9.10469,0.04683,0.03195,-0.22267,281.58926,-6.21995,0.66103,0.04683
2018.02.26 11:08:55,39.80694,2.89326,-35.66666,0.20084,1.16379,8.55641,0.04895,-0.0032,-0.05542,282.23547,-6.28685,0.44522,0.04895
2018.02.26 11:08:55,39.50691,3.15571,-35.9478,0.41393,1.55884,9.3465,-0.05118,-0.01811,-0.05542,282.62686,-6.08727,0.61046,-0.05118
2018.02.26 11:08:55,38.92574,3.99914,-35.61039,0.25351,1.69769,9.76309,0.01167,0.0213,0.09158,282.37805,-6.25349,0.62994,1019.32788
2018.02.26 11:08:55,38.55076,3.08075,-35.55412,0.35406,1.5708,10.39276,0.09369,0.09694,0.1555,281.40771,-6.60917,0.91777,1019.32776
2018.02.26 11:08:55,38.83171,2.55547,-35.61058,0.0141,0.33539,11.01286,-0.2834,0.10759,0.26416,279.60495,-4.83222,0.0782,-0.2834
2018.02.26 11:08:55,39.26315,1.8055,-35.42271,-0.20378,0.38329,9.96899,0.02765,-0.07138,0.12888,278.23535,-5.75477,-0.29694,0.02765
2018.02.26 11:08:55,38.8504,0.60558,-35.5917,0.08832,1.14943,8.35291,0.24922,-0.10866,0.23753,277.2475,-6.64786,0.19297,1019.32709
2018.02.26 11:08:56,38.28812,-0.44422,-36.02295,-0.19899,1.33138,9.43747,0.02979,-0.0554,0.04366,276.70071,-7.39932,0.81966,1019.32666
2018.02.26 11:08:56,38.1382,-0.76313,-35.96649,0.09549,2.11908,8.7719,0.08731,0.06604,-0.09377,277.04984,-7.96517,0.77183,0.08731
2018.02.26 11:08:56,37.57553,-0.66948,-37.82272,-0.06013,1.37209,10.68246,-0.02135,0.04047,-0.13425,277.63458,-8.09122,1.09402,-0.02135
2018.02.26 11:08:56,37.78191,-0.10662,-38.45997,0.41393,0.46468,11.21158,-0.32602,-0.20773,-0.14171,278.54614,-7.03844,1.17039,-0.32602
