Time,Mag_x,Mag_y,Mag_z,Acc_x,Acc_y,Acc_z,Gyro_x,Gyro_y,Gyro_z,Orn_x,Orn_y,Orn_z,Pressure
2018.03.19 19:57:34,31.20003,10.96954,-33.69637,0.36365,1.39124,9.56198,-0.07895,-0.07045,0.06505,292.63782,-6.74577,0.80949,-0.07895
2018.03.19 19:57:34,31.2748,10.98804,-33.69656,-0.3187,1.75755,8.70485,-0.20146,0.03181,0.1279,292.35062,-6.06107,0.95664,1013.33936
2018.03.19 19:57:35,31.25572,11.4193,-33.43372,0.22,1.26674,9.99054,-0.08855,-0.07259,0.10979,291.88321,-5.39208,0.86937,-0.08855
2018.03.19 19:57:35,30.97458,10.55698,-32.90882,-0.30194,1.8605,9.5117,0.02757,0.15538,0.09274,290.93823,-5.837,-0.09594,0.02757
2018.03.19 19:57:35,31.38714,9.8444,-32.21531,-0.45517,1.46066,9.71521,-0.21318,0.12875,-0.1022,291.54749,-5.03565,-1.01152,-0.21318
2018.03.19 19:57:35,32.4934,11.15665,-31.52142,-0.76163,1.54446,9.22919,-0.08748,0.07655,-0.0191,291.87378,-4.7007,-1.55942,1013.33978
2018.03.19 19:57:35,32.4934,11.96327,-31.82163,-0.55573,1.61629,9.88998,-0.06511,-0.15034,0.03947,292.15906,-4.33186,-0.69432,-0.06511
2018.03.19 19:57:35,32.11842,11.83186,-31.76537,-0.57727,1.46545,10.048,0.14688,-0.00441,6e-05,292.5209,-5.23518,-0.345,0.14688
2018.03.19 19:57:35,32.08103,11.53202,-31.3715,-0.1559,0.73044,11.0392,-0.25366,-0.03316,-0.01378,292.66879,-4.42908,0.01136,-0.25366
2018.03.19 19:57:35,31.66847,11.90701,-30.99651,0.27985,0.12471,10.32813,-0.23555,-0.26752,-0.18742,293.49771,-3.04519,0.74047,1013.34149
2018.03.19 19:57:35,31.36845,11.79447,-31.40907,0.48096,0.77353,9.16214,0.28111,-0.05659,-0.01485,293.30301,-4.52705,1.51676,1013.34216
2018.03.19 19:57:36,31.01234,12.07561,-31.72779,0.3445,0.63228,8.86047,0.13942,0.03928,-0.1086,294.36887,-5.21762,1.46366,0.13942
2018.03.19 19:57:36,31.36864,11.51314,-31.1655,0.49533,1.5325,8.98976,0.19055,-0.00014,0.05652,294.315,-6.31259,1.36214,0.19055
2018.03.19 19:57:36,31.23703,11.0445,-30.6963,0.22717,1.22365,8.77428,-0.42729,0.25446,-0.00633,294.56674,-5.09706,0.6895,1013.34241
2018.03.19 19:57:36,31.61221,12.22591,-30.34,0.54321,0.97943,10.74231,0.25235,-0.17165,0.16624,293.52075,-4.30852,1.17914,0.25235
2018.03.19 19:57:36,31.61201,11.19461,-30.09644,0.18169,0.48384,11.71436,-0.01184,-0.1333,0.00539,292.9386,-5.17597,1.88245,-0.01184
2018.03.19 19:57:36,31.83708,10.95085,-30.09624,-0.33546,0.19174,8.99934,0.20654,0.20226,0.16092,292.99686,-5.33546,1.73646,0.20654
2018.03.19 19:57:36,32.43732,9.75075,-30.0024,0.04521,0.06245,9.87083,0.01585,0.08827,0.13429,292.04205,-5.63462,1.17622,0.01585
2018.03.19 19:57:36,32.86858,9.33819,-29.40235,0.16971,0.92197,8.75034,0.05847,0.11278,0.19182,290.17935,-5.32236,1.18636,1013.34528
2018.03.19 19:57:36,33.13103,7.76348,-29.6463,0.14099,1.6929,9.21721,-0.00758,0.09253,0.1066,288.85849,-5.5724,0.67282,-0.00758
2018.03.19 19:57:37,33.28114,8.13828,-28.74641,0.15056,1.33856,9.43269,-0.0097,0.0137,-0.12137,289.4826,-5.31989,0.48358,-0.0097
2018.03.19 19:57:37,32.96223,8.49457,-28.76511,-0.0314,1.03929,11.13017,0.08403,-0.17911,-0.1235,290.2533,-5.64909,0.98769,0.08403
2018.03.19 19:57:37,32.62444,9.11312,-29.32758,0.16254,-0.50258,11.18764,-0.48589,-0.20573,-0.29608,291.29498,-4.51345,2.09397,1013.34998
2018.03.19 19:57:37,32.51228,10.29453,-29.66518,0.39238,0.07921,10.02884,0.20122,-0.07364,0.0235,291.93988,-4.2167,2.27339,1013.35187
2018.03.19 19:57:37,33.03719,10.50072,-29.42142,0.35167,0.86452,9.15735,0.04887,0.05951,-0.00633,292.28479,-4.27997,2.02834,0.04887
2018.03.19 19:57:37,33.35609,9.6571,-29.14028,0.42828,1.29787,8.75034,0.12238,0.06165,0.08635,291.3009,-5.3484,1.52105,0.12238
2018.03.19 19:57:37,33.8438,8.71964,-28.63407,0.45222,1.24519,9.19566,0.00946,0.00731,-0.00526,290.81134,-5.82974,1.09982,0.00946
2018.03.19 19:57:37,34.08718,8.11939,-28.40919,0.47856,0.93155,10.78781,0.20015,-0.17165,-0.00739,290.54929,-7.36717,1.78458,0.20015
2018.03.19 19:57:37,33.44994,6.99425,-28.76511,0.55997,0.24442,12.47812,-0.17589,0.0414,0.06717,290.03821,-7.49291,2.0112,-0.17589
2018.03.19 19:57:38,33.52509,6.78806,-28.68996,-0.13675,0.9938,8.89879,0.18736,0.10959,0.07356,290.13846,-6.68106,1.4978,1013.35803
2018.03.19 19:57:38,34.04999,6.99425,-27.95868,-0.12717,0.4144,9.21481,-0.10878,0.0137,-0.01698,290.21954,-6.79417,0.87081,1013.35919
2018.03.19 19:57:38,33.7122,6.71329,-27.75249,-0.1559,1.56601,8.17334,0.02225,0.02756,0.0544,289.6792,-6.47846,1.05062,0.02225
2018.03.19 19:57:38,33.13103,6.20708,-27.50874,0.01888,1.5325,9.45663,-0.15352,-0.07259,-0.05214,289.48206,-6.0616,1.27007,1013.36053
2018.03.19 19:57:38,32.47452,5.96333,-27.30217,-0.04816,1.14464,9.92111,0.02971,-0.02039,-0.03082,289.66595,-5.80257,1.2065,0.02971
2018.03.19 19:57:38,32.45583,5.30682,-28.20225,0.42111,0.88606,11.29059,0.19162,-0.07684,0.1279,288.30148,-6.84706,1.70095,0.19162
2018.03.19 19:57:38,31.53725,5.11932,-27.90241,0.6701,-0.86411,12.14293,-0.37509,-0.22066,-0.27478,288.63092,-5.74929,2.29564,1013.3623
2018.03.19 19:57:38,30.82485,5.85079,-27.93999,0.52884,0.42159,8.95624,0.00307,0.0446,-0.12883,289.83362,-4.12757,2.34372,1013.36304
2018.03.19 19:57:38,30.76859,5.56946,-27.32124,0.22238,0.86931,8.47501,0.01479,0.00945,0.04268,289.71356,-4.50095,1.92235,0.01479
2018.03.19 19:57:39,30.22461,4.78172,-27.22759,0.76108,1.1207,8.77907,-0.03954,0.08401,0.03735,288.65485,-4.70189,1.60683,1013.36353
2018.03.19 19:57:39,30.03712,4.70676,-26.47743,0.80418,1.6546,9.18369,-0.01823,0.08401,0.03735,288.49533,-4.04353,1.58575,-0.01823
2018.03.19 19:57:39,30.07469,3.67527,-26.60847,0.82094,0.9962,11.73592,0.13623,-0.15993,0.03096,287.98383,-4.9093,1.96751,1013.36395
2018.03.19 19:57:39,29.11854,2.43816,-26.90849,0.22717,0.38089,11.33847,-0.16737,0.23315,0.11832,286.99896,-5.36627,1.39355,-0.16737
2018.03.19 19:57:39,28.38726,1.59435,-26.36471,-0.21097,0.20132,8.95863,0.09895,0.00838,0.24507,286.17221,-4.80854,1.70725,0.09895
2018.03.19 19:57:39,28.61195,1.38798,-26.92738,-0.41925,-0.00937,9.65535,-0.17163,0.07976,-0.13097,285.88959,-3.88716,1.20163,-0.17163
2018.03.19 19:57:39,28.34969,1.38817,-26.08395,0.02606,1.07042,8.79105,0.0265,0.13301,0.09914,285.22052,-3.75671,0.61909,1013.36639
2018.03.19 19:57:39,28.36857,1.23825,-26.0088,-0.01463,1.26913,9.59309,-0.11411,0.00412,0.00752,284.33612,-3.66554,0.51883,1013.36682
2018.03.19 19:57:39,27.67448,1.23806,-25.95272,0.04521,0.95549,10.39995,0.13091,-0.11732,-0.00526,284.2767,-4.07708,1.00853,0.13091
2018.03.19 19:57:40,27.07462,0.30041,-25.59662,0.34689,0.07204,11.9442,0.10107,-0.16953,-0.10007,283.72101,-5.75411,1.81656,1013.36761
2018.03.19 19:57:40,27.01836,0.88196,-26.40266,0.78024,-0.3709,10.44064,0.00734,-0.00121,-0.0255,284.50525,-4.00972,2.2808,1013.36853
2018.03.19 19:57:40,26.45626,1.31302,-26.59016,0.44026,0.71368,8.48698,0.06059,0.16072,-0.09261,284.20584,-4.07853,1.79413,0.06059
2018.03.19 19:57:40,26.34373,2.23179,-26.0088,0.1362,0.9124,8.57556,-0.05446,0.12024,-0.04893,284.75873,-3.56623,0.84921,-0.05446
2018.03.19 19:57:40,26.62468,2.81315,-25.46501,0.38519,0.77353,9.222,-0.10664,0.13728,0.02243,284.24377,-3.23179,0.01601,1013.36951
2018.03.19 19:57:40,26.71833,2.96326,-24.88384,0.30618,1.39124,9.61226,-0.00865,0.13196,0.14494,283.29465,-2.93456,-0.3381,1013.36951
2018.03.19 19:57:40,26.4185,3.13206,-25.09022,0.10986,1.13026,12.04955,-0.00333,-0.15248,0.10127,282.74487,-3.08739,0.25397,1013.36969
2018.03.19 19:57:40,25.91228,2.77557,-25.23994,-0.13196,-0.43793,10.40952,0.11386,-0.11626,0.06079,281.70956,-3.26741,0.55858,1013.37018
2018.03.19 19:57:40,25.78106,2.4004,-26.06487,-0.1559,0.16541,9.52367,0.18204,-0.13544,0.15559,280.5256,-4.25362,1.24938,0.18204
2018.03.19 19:57:41,25.66853,1.78165,-26.19629,-0.17026,0.41919,8.82217,0.11705,-0.06406,0.03203,280.19147,-4.83448,1.28555,0.11705
2018.03.19 19:57:41,25.85602,1.81923,-26.02749,-0.22533,1.04169,8.95624,-0.03847,0.02649,-0.04893,279.91623,-5.1347,1.09421,-0.03847
2018.03.19 19:57:41,25.10605,1.96934,-26.15871,-0.14153,1.02014,9.47099,-0.07362,0.00305,-0.09048,280.38788,-4.78701,0.86857,-0.07362
2018.03.19 19:57:41,25.44346,2.10056,-26.51501,0.1769,0.70889,11.40073,0.01585,-0.14609,-0.04575,280.90753,-4.91335,1.20135,0.01585
2018.03.19 19:57:41,25.53711,3.00064,-26.83372,0.29662,-0.10274,12.09265,-0.43155,-0.12265,-0.18103,281.0321,-3.88827,1.07145,-0.43155
2018.03.19 19:57:41,24.99352,4.51927,-27.28367,0.58151,0.71608,9.7607,0.2843,-0.13544,0.18222,281.06757,-3.32811,1.26467,0.2843
2018.03.19 19:57:41,24.56188,4.87556,-27.34013,0.27745,0.81184,8.97061,0.12025,0.09253,-0.10966,281.20071,-4.58131,1.45024,1013.37048
2018.03.19 19:57:41,24.86229,4.4445,-27.2089,0.3804,0.81903,9.14299,0.08084,0.2928,-0.13416,282.05426,-5.5309,0.06251,0.08084
2018.03.19 19:57:41,25.46215,5.28793,-27.17152,0.27745,1.41997,9.23158,-0.0992,0.12663,-0.04575,283.12619,-4.94081,-1.01771,-0.0992
2018.03.19 19:57:42,25.21858,5.4945,-26.30901,0.22957,1.30743,10.8333,0.14262,-0.12691,0.12469,282.51941,-5.57424,-0.21988,0.14262
2018.03.19 19:57:42,25.04978,5.70049,-27.26517,-0.14871,0.92197,12.1142,-0.13541,0.05632,0.0544,282.53409,-5.56262,-0.13742,1013.3692
2018.03.19 19:57:42,24.89986,6.50692,-27.47116,-0.51743,0.56523,9.40157,0.01266,-0.0598,0.09488,282.86392,-3.90463,-0.08263,0.01266
2018.03.19 19:57:42,25.06866,6.13194,-27.43359,-0.30913,0.06485,9.32256,-0.02037,-0.09389,0.13962,281.64001,-4.44223,-0.23429,-0.02037
2018.03.19 19:57:42,24.52507,6.03809,-27.82784,-0.00267,1.25955,8.39839,0.06487,-0.01399,0.22803,280.18564,-4.54343,0.3485,1013.36865
2018.03.19 19:57:42,24.44973,5.55058,-28.01514,-0.04816,1.2404,9.56915,-0.08534,-0.00227,-0.0042,280.24844,-4.55164,0.39067,-0.08534
2018.03.19 19:57:42,23.84968,5.90706,-28.18394,-0.11041,1.02492,9.90195,-0.04486,-0.0598,-0.04361,281.32651,-3.85934,0.37697,-0.04486
2018.03.19 19:57:42,23.2872,6.05717,-29.15897,0.19844,0.77832,10.99371,0.08723,-0.16525,0.02563,281.68848,-4.43019,1.38527,0.08723
2018.03.19 19:57:42,22.57462,7.14436,-29.57153,0.44984,-0.11711,10.77823,-0.44647,0.03395,-0.15334,282.45709,-3.17796,1.64084,-0.44647
2018.03.19 19:57:43,22.93091,8.34446,-29.2902,0.50969,0.7041,9.58592,0.08723,0.04247,0.01711,282.74323,-2.32708,1.66138,1013.36865
2018.03.19 19:57:43,22.63088,9.11331,-29.21524,0.28224,0.43117,9.28186,0.04887,0.06058,-0.24388,284.72766,-2.6558,1.50693,1013.36896
2018.03.19 19:57:43,23.28701,9.46922,-29.53396,0.47856,1.0345,8.87723,0.16606,0.08827,-0.06386,285.60815,-3.95924,0.97029,0.16606
2018.03.19 19:57:43,22.68734,9.73167,-29.87156,0.5528,1.04408,9.59071,-0.02675,-0.00014,-0.1235,286.74548,-4.04481,0.9773,1013.36884
2018.03.19 19:57:43,23.38123,9.37576,-29.27151,0.47139,0.82381,10.57233,0.18311,-0.02678,0.14174,287.14584,-4.97605,0.74394,0.18311
2018.03.19 19:57:43,23.06213,9.33819,-29.60892,0.13141,0.63947,12.14053,-0.19614,0.06483,0.16731,286.41254,-5.45651,1.5167,-0.19614
2018.03.19 19:57:43,22.06841,8.75683,-30.39646,-0.01224,0.52214,9.48537,0.02757,0.01477,0.05226,286.50427,-4.5576,1.30975,1013.36963
2018.03.19 19:57:43,21.67473,9.33819,-30.64022,-0.08408,-0.03091,8.66895,-0.03847,-0.01079,-0.099,286.63788,-4.73724,0.95421,1013.37024
2018.03.19 19:57:43,22.34993,9.69429,-30.65891,-0.10802,0.46947,9.60747,-0.05978,-0.12265,0.07037,286.55255,-4.18782,1.28085,-0.05978
2018.03.19 19:57:44,21.97475,9.60045,-30.56507,0.12183,1.45349,8.78865,0.02225,0.00731,0.09061,286.78506,-3.98436,1.51223,1013.37073
2018.03.19 19:57:44,21.95606,9.43203,-31.05278,0.22,1.46545,9.73676,-0.0896,0.04247,-0.11818,288.30011,-3.74423,1.29171,1013.37115
2018.03.19 19:57:44,22.0499,9.6384,-31.33411,0.08353,1.10153,10.02644,0.07231,0.03928,-0.15652,289.39944,-4.04457,1.07026,0.07231
2018.03.19 19:57:44,21.71211,10.83832,-31.25916,0.26549,0.89565,11.29538,0.06805,-0.08963,-0.0255,290.9762,-4.7578,1.42907,0.06805
2018.03.19 19:57:44,21.89999,11.40079,-31.18401,0.47618,0.0481,9.94505,-0.12689,0.09467,-0.00739,291.92395,-3.69789,1.17448,1013.3725
2018.03.19 19:57:44,21.67492,11.68213,-31.65283,0.34689,-0.17697,10.04082,-0.13968,-0.02464,-0.18317,293.02368,-3.07739,1.44948,-0.13968
2018.03.19 19:57:44,21.59977,11.86924,-31.69022,0.30858,0.91959,8.90596,0.12025,0.01051,0.05972,293.44696,-3.05122,1.4835,1013.37299
2018.03.19 19:57:44,21.26198,11.58829,-31.65283,0.5504,1.21167,9.31776,0.0851,0.0723,-0.00313,293.80685,-3.89296,1.19451,1013.37292
2018.03.19 19:57:44,21.74969,11.86962,-31.67152,0.3421,1.47743,9.31537,-0.05019,0.1181,0.02563,294.19989,-3.79101,0.41209,-0.05019
2018.03.19 19:57:45,21.69342,12.16946,-31.20289,0.5504,1.22844,10.85724,0.07231,-0.16313,0.11832,294.28253,-4.23692,1.17615,0.07231
2018.03.19 19:57:45,21.67492,11.70044,-31.5403,0.29662,-0.06444,11.84364,-0.25259,-0.01825,-0.02763,294.42291,-3.82892,1.46651,-0.25259
2018.03.19 19:57:45,21.1874,12.54425,-32.23381,-0.1535,0.12711,9.38242,0.23849,-0.03529,0.13322,293.9444,-4.5344,1.69261,0.23849
2018.03.19 19:57:45,21.07506,11.40041,-32.19643,-0.0338,0.084,9.34889,0.07445,-0.03636,0.05333,293.82959,-5.0465,1.70343,0.07445
2018.03.19 19:57:45,21.24367,10.59456,-32.25269,0.00931,1.06802,8.19728,-0.00119,0.11597,0.13855,293.55487,-4.92662,1.46137,1013.37201
2018.03.19 19:57:45,21.28124,10.50072,-32.23419,0.06438,1.2404,9.20525,-0.15884,0.03928,0.0448,293.83041,-4.24928,1.24931,1013.37146
2018.03.19 19:57:45,21.28067,10.74429,-31.93378,0.05,1.27632,9.96181,0.10428,0.09892,-0.02338,294.79556,-4.1153,0.92492,0.10428
2018.03.19 19:57:45,21.80576,10.8757,-32.32784,-0.13675,1.26913,10.57712,0.15009,0.06911,-0.10007,295.30133,-4.89681,0.58569,1013.37134
2018.03.19 19:57:45,21.48724,11.88831,-32.34673,-0.16069,-0.50258,10.79498,-0.63075,0.04779,-0.47185,298.1691,-2.49974,0.25496,-0.63075
2018.03.19 19:57:46,21.5435,13.68828,-31.57768,0.6701,0.12231,9.68648,0.15221,-0.03636,0.09488,298.03894,-2.1011,0.53649,0.15221
2018.03.19 19:57:46,21.46854,13.59463,-31.7276,0.32773,0.73763,8.65218,0.09468,0.02756,-0.01698,298.52551,-2.75467,0.64544,0.09468
2018.03.19 19:57:46,21.43116,13.16357,-31.67133,0.33012,0.95549,9.11665,0.07338,0.00412,-0.10753,299.52521,-3.65112,0.67579,0.07338
2018.03.19 19:57:46,21.65585,13.85708,-32.19643,0.25591,1.35533,9.31537,-0.0406,0.00626,-0.04893,300.28021,-3.52375,0.79251,-0.0406
2018.03.19 19:57:46,21.59939,12.80708,-32.38411,0.60785,1.29068,10.45262,0.20227,-0.1088,0.25253,299.36551,-4.57391,1.20641,0.20227
2018.03.19 19:57:46,21.09375,11.11927,-32.75871,0.27266,0.97226,12.33446,-0.13754,0.00838,0.24614,297.7442,-5.34411,1.51277,1013.37079
2018.03.19 19:57:46,21.93718,11.02562,-33.22754,-0.13913,0.43356,9.48058,0.17245,0.03714,0.31432,296.94482,-4.46527,1.39936,0.17245
2018.03.19 19:57:46,21.95587,9.86328,-33.284,-0.16786,0.34258,9.05679,0.0787,-0.03636,0.10233,296.2002,-5.04162,1.45537,0.0787
2018.03.19 19:57:46,21.29955,8.70075,-33.41522,0.09071,0.87408,9.03764,0.07764,-0.0076,0.12044,295.5188,-5.10395,1.45893,0.07764
2018.03.19 19:57:47,21.46835,8.21323,-33.58383,0.18648,1.19492,9.32256,-0.04486,-0.05341,-0.04254,295.45029,-5.19698,1.65894,-0.04486
2018.03.19 19:57:47,20.96214,9.03797,-34.03416,0.23196,1.20927,9.94266,-0.10664,-0.05127,-0.1725,296.70593,-4.65013,1.79534,-0.10664
2018.03.19 19:57:47,20.66193,9.54456,-33.99639,0.25591,1.14703,10.3808,0.23424,-0.00653,-0.01485,297.53989,-5.80878,1.84836,0.23424
2018.03.19 19:57:47,20.75596,9.39445,-34.24053,0.79939,-0.21527,11.46536,-0.34846,-0.22278,-0.24602,298.211,-5.21969,2.62037,-0.34846
2018.03.19 19:57:47,20.62473,10.25715,-34.72786,0.51688,0.39285,9.6338,0.07019,-0.08749,-0.10114,300.04166,-3.92405,3.21213,0.07019
2018.03.19 19:57:47,20.19329,10.61344,-35.0275,0.28703,0.52933,9.19327,0.06166,-0.03529,-0.20447,301.07431,-4.45644,3.19811,0.06166
2018.03.19 19:57:47,20.56847,10.96973,-35.34641,0.69405,0.74242,9.04723,0.12665,0.1032,-0.09048,301.78064,-5.35042,2.23765,0.12665
2018.03.19 19:57:47,21.58089,10.42595,-34.74617,0.72278,0.86452,9.24355,-0.03954,0.06483,-0.09261,302.22055,-5.35189,1.92787,-0.03954
2018.03.19 19:57:47,22.12467,11.0817,-34.63402,0.59589,1.69769,10.07912,-0.01184,0.09892,0.17477,301.55948,-5.08397,1.21104,1013.3689
2018.03.19 19:57:48,21.16833,10.61306,-34.44653,0.48335,1.54686,11.04878,0.10321,0.07549,0.28023,300.08487,-5.7868,1.19044,1013.36877
2018.03.19 19:57:48,21.76838,10.10704,-34.63421,0.0117,-0.4906,10.09828,-0.06937,0.11278,-0.05959,300.14722,-4.63884,1.21282,-0.06937
2018.03.19 19:57:48,22.33086,10.29434,-34.8774,-0.11758,-0.23682,9.55719,0.09895,-0.03529,0.16199,298.9679,-4.75692,0.85066,0.09895
2018.03.19 19:57:48,22.53742,10.57568,-34.87759,-0.18224,0.39046,9.15018,0.00414,0.02435,0.04161,298.72873,-4.23194,0.805,0.00414
2018.03.19 19:57:48,22.64996,10.85701,-34.59663,-0.03618,0.88606,9.04004,0.04675,0.04353,0.05013,298.36755,-4.41224,0.60229,0.04675
2018.03.19 19:57:48,22.44358,10.93178,-34.22165,0.23915,1.26913,9.56676,-0.05019,0.01584,-0.02977,298.59341,-4.45986,0.40105,1013.36926
2018.03.19 19:57:48,22.20001,10.95066,-34.07135,0.19604,1.27153,9.8828,-0.05339,-0.02997,-0.15227,299.9057,-4.02898,0.3894,-0.05339
2018.03.19 19:57:48,21.97475,10.98843,-34.48391,0.45222,0.96747,11.0775,0.11812,-0.04169,-0.02657,300.53152,-4.70558,0.82758,0.11812
2018.03.19 19:57:48,22.49966,11.10077,-34.10931,0.18887,0.33061,10.72076,-0.28561,-0.16206,-0.15652,300.99304,-3.8264,1.60326,1013.36902
2018.03.19 19:57:49,22.42489,11.75652,-34.09042,0.3804,0.74719,9.96181,0.16393,-0.06299,0.05547,301.03836,-3.5054,2.45694,1013.36896
2018.03.19 19:57:49,21.50593,11.98196,-33.90255,0.18408,0.084,9.25313,-0.0406,-0.06299,-0.29076,302.08942,-3.61454,2.73875,-0.0406
2018.03.19 19:57:49,21.13075,12.39452,-33.54645,0.48096,1.04408,8.70485,0.21826,0.0968,0.02031,302.25,-4.83816,2.52884,1013.36865
2018.03.19 19:57:49,22.12467,12.22572,-33.30288,0.6725,1.35533,9.57394,-0.15245,0.07869,-0.0777,302.62762,-4.64647,1.98216,-0.15245
2018.03.19 19:57:49,22.63107,12.39471,-33.35896,0.57674,1.59953,9.83971,0.14049,0.01691,0.10553,302.27112,-5.02297,1.50571,0.14049
2018.03.19 19:57:49,22.91241,11.98196,-33.50906,0.30139,0.60115,11.76225,-0.22063,0.09573,-0.03189,302.10391,-5.17073,1.71941,-0.22063
2018.03.19 19:57:49,23.47469,12.58163,-32.77779,0.10507,-0.22725,10.61304,-0.08321,-0.14502,-0.05959,302.50397,-4.22891,1.71341,-0.08321
2018.03.19 19:57:49,23.17486,12.37583,-33.13408,-0.02422,0.27315,9.29861,0.12025,-0.01186,0.21844,300.89813,-4.78055,2.06717,0.12025
2018.03.19 19:57:50,22.36862,11.66363,-33.35876,0.46899,1.02014,8.79584,0.00201,0.03395,0.15134,299.65665,-4.43592,2.38028,0.00201
2018.03.19 19:57:50,23.08083,11.7569,-32.87163,0.24872,1.19012,8.85089,-0.08641,0.08188,-0.04893,299.28146,-4.7273,1.87571,-0.08641
2018.03.19 19:57:50,23.62461,12.50706,-32.42149,0.21281,1.25716,9.82773,-0.11411,0.06378,-0.12032,299.85284,-4.54319,1.77837,-0.11411
2018.03.19 19:57:50,24.18766,12.45079,-31.65264,0.09071,1.02254,10.35207,0.1373,0.0936,-0.09688,300.88452,-5.13773,1.27277,1013.36517
2018.03.19 19:57:50,23.90614,11.86962,-31.67171,0.52884,0.7879,11.84604,-0.02356,-0.16739,0.01285,300.97678,-5.45795,1.62743,-0.02356
2018.03.19 19:57:50,22.9311,12.4506,-31.25916,0.41872,-0.05246,10.56754,-0.21851,-0.06192,-0.08516,301.83636,-3.22277,2.06403,-0.21851
2018.03.19 19:57:50,23.6248,13.83839,-31.07166,0.45462,0.23723,9.71042,0.13942,0.03181,-0.00952,301.63721,-3.46373,1.95494,1013.36475
2018.03.19 19:57:50,23.4745,13.68828,-30.37777,0.27266,0.80466,8.75273,0.0787,0.0414,-0.16505,302.9064,-4.14987,1.25958,0.0787
2018.03.19 19:57:50,23.54965,13.85708,-30.28412,0.47139,0.92676,9.4303,0.04036,0.03395,-0.099,303.47986,-5.07535,0.74895,0.04036
2018.03.19 19:57:50,22.91241,14.10065,-30.37758,0.39957,1.33856,9.4662,0.0116,-0.13863,0.21631,303.30878,-4.70646,1.1475,0.0116
2018.03.19 19:57:51,23.08121,13.44433,-29.90875,0.72757,0.94592,10.60585,0.06166,-0.13863,0.20779,302.27612,-5.27595,1.98011,1013.36035
2018.03.19 19:57:51,22.72472,12.16946,-29.68407,0.40434,0.18216,11.66408,-0.28348,0.1703,-0.00845,301.39877,-5.26067,2.64618,-0.28348
2018.03.19 19:57:51,23.02475,12.75063,-28.78399,0.04521,0.53172,9.65535,0.02971,0.04886,0.04161,301.38745,-3.83974,1.6936,1013.35852
2018.03.19 19:57:51,22.63107,12.54444,-29.30908,0.30379,0.09837,9.19806,-0.0193,-0.04915,-0.03403,301.34665,-3.91873,1.63952,-0.0193
2018.03.19 19:57:51,22.08748,12.93831,-28.78399,0.24872,0.61313,8.95863,0.0329,-0.04276,0.04587,301.04135,-3.92437,1.98498,1013.35754
2018.03.19 19:57:51,21.89999,12.76932,-28.12729,0.33731,1.21646,8.8054,-0.00333,0.01265,-0.01166,301.17477,-3.89872,2.11062,-0.00333
2018.03.19 19:57:51,21.99364,12.37583,-28.31516,0.548,1.27632,9.77745,0.0542,-0.02997,-0.10007,301.91046,-4.2177,2.28328,0.0542
2018.03.19 19:57:51,21.63715,12.15057,-28.409,0.44026,1.4894,11.13736,0.09789,-0.14182,-0.06491,302.52518,-4.59196,2.24954,0.09789
2018.03.19 19:57:51,21.09318,13.08823,-28.4462,0.51688,0.26596,12.9761,-0.23767,-0.3911,-0.15973,303.38235,-3.80674,3.4475,-0.23767
2018.03.19 19:57:52,20.58716,13.57536,-28.39012,0.42828,0.59157,8.61388,0.42279,0.04247,-0.03828,304.22659,-4.57144,3.33347,1013.35852
2018.03.19 19:57:52,21.22459,12.61902,-28.50266,0.45222,0.59157,9.20763,-0.0161,0.02649,-0.19061,304.27335,-6.10134,2.32139,-0.0161
2018.03.19 19:57:52,22.33067,13.95092,-28.4277,0.57912,0.34497,9.04243,-0.2739,0.17989,-0.22258,305.57956,-4.8858,1.26484,-0.2739
2018.03.19 19:57:52,22.31197,14.70089,-27.7153,0.35646,0.94353,8.69049,-0.04274,0.13834,-0.01698,305.67041,-5.04801,0.90163,-0.04274
2018.03.19 19:57:52,21.50593,13.87577,-27.33994,0.39957,1.25476,10.06955,0.0851,0.05312,0.13002,305.22726,-4.8713,1.04844,0.0851
2018.03.19 19:57:52,21.41228,13.83839,-27.99644,0.31097,1.21646,11.71675,0.00627,0.02116,0.24828,303.77805,-5.52532,1.66074,0.00627
2018.03.19 19:57:52,21.20609,14.3631,-27.90279,0.20323,0.33539,10.048,-0.14926,-0.02678,0.25999,302.89423,-3.3081,1.68023,-0.14926
2018.03.19 19:57:52,20.99972,14.13822,-28.4462,0.14099,-0.13147,9.94745,0.04036,0.00626,0.16624,301.90152,-3.49447,1.48289,0.04036
2018.03.19 19:57:52,21.07449,13.3131,-28.85895,0.09309,0.62988,9.1382,0.15541,0.0201,0.09593,301.27545,-3.89052,1.97321,1013.36084
2018.03.19 19:57:53,22.06841,14.06307,-29.10271,0.0524,1.0345,8.98497,0.04355,0.08934,-0.07451,301.68939,-4.65539,1.42479,1013.3609
2018.03.19 19:57:53,22.48077,13.81969,-28.4462,0.21761,1.11351,9.222,-0.04807,-0.01186,-0.09155,302.45111,-4.5177,1.35214,1013.36078
2018.03.19 19:57:53,23.21224,14.08215,-28.80249,0.08353,1.42715,10.17729,0.08829,-0.03636,0.06398,302.67233,-4.87974,1.32251,0.08829
2018.03.19 19:57:53,22.55611,13.2946,-29.17767,0.58151,1.13506,11.16849,0.08617,0.05418,6e-05,301.94153,-6.04232,1.35273,0.08617
2018.03.19 19:57:53,22.16225,15.11307,-29.77753,0.14099,-0.23442,10.29221,-0.44327,-0.08749,-0.35573,304.47049,-3.12983,1.66937,-0.44327
2018.03.19 19:57:53,21.33732,16.21952,-29.79641,0.44984,0.18456,9.60268,0.09149,0.00731,-0.03722,304.8591,-3.05253,1.83826,1013.36127
2018.03.19 19:57:53,21.3747,16.33205,-29.6463,0.42589,0.97226,8.48219,0.12877,0.04353,-0.12457,306.37134,-3.42268,1.37818,0.12877
2018.03.19 19:57:53,21.39339,16.74423,-29.44012,0.4642,0.82381,9.21242,0.02864,-0.06087,-0.17038,307.58157,-4.44728,1.16458,0.02864
2018.03.19 19:57:53,21.63715,16.83807,-30.37777,0.30379,1.30505,9.47818,0.03078,0.01158,-0.0287,308.42972,-4.65836,1.1612,1013.36145
2018.03.19 19:57:54,21.58108,16.91322,-29.44012,0.31577,1.14224,10.47896,0.05527,0.03181,0.09061,308.2908,-5.06919,1.02951,1013.36145
2018.03.19 19:57:54,21.97495,16.48197,-29.34628,0.53123,0.7448,11.90829,-0.21957,0.10638,0.17477,307.01648,-5.12925,0.87491,-0.21957
2018.03.19 19:57:54,22.29347,16.83826,-29.36497,-0.13675,0.11752,9.2244,0.08829,-0.05659,0.18115,306.73459,-4.41391,1.27261,0.08829
2018.03.19 19:57:54,22.70584,16.87546,-29.10271,-0.11041,0.01457,9.97379,-0.03847,-0.05127,0.048,306.25555,-3.83104,1.63415,-0.03847
2018.03.19 19:57:54,23.3057,16.93192,-29.60911,-0.09604,0.74242,8.70006,0.07977,0.05525,0.02138,306.12375,-4.14431,1.49061,1013.36151
2018.03.19 19:57:54,23.15598,16.4444,-29.44012,0.03325,1.10153,8.80061,0.0542,0.04674,0.09914,306.05844,-4.47705,1.34182,0.0542
2018.03.19 19:57:54,23.02475,16.55674,-29.23393,0.0141,1.40799,9.18608,-0.04274,0.12982,6e-05,306.24414,-4.57723,0.9743,-0.04274
2018.03.19 19:57:54,23.39973,16.05053,-28.87745,0.15535,1.13506,10.0863,0.1064,-0.09601,0.04268,306.38132,-4.975,1.12106,1013.36035
2018.03.19 19:57:54,23.36216,15.45086,-28.87745,0.53603,0.83099,10.99132,-0.23341,-0.00441,-0.05107,306.3288,-4.81056,1.6565,-0.23341
2018.03.19 19:57:55,23.38123,16.08829,-29.40254,0.56955,0.08879,10.32573,-0.13754,-0.12372,-0.0351,306.76108,-2.73236,1.88289,-0.13754
2018.03.19 19:57:55,24.03736,16.63208,-29.42142,0.45462,-0.03091,9.65056,0.19269,-0.06725,-0.04787,306.58463,-3.46933,2.31707,1013.36029
2018.03.19 19:57:55,25.34962,16.76331,-29.68407,0.29422,0.9483,8.15659,0.11067,0.11491,-0.04468,307.46805,-3.88984,1.98744,0.11067
2018.03.19 19:57:55,24.78733,16.35056,-29.53415,0.52167,1.46306,9.39677,0.11279,0.01903,-0.0255,307.24051,-4.99842,1.71724,0.11279
2018.03.19 19:57:55,25.0309,16.36944,-29.14028,0.15056,0.99141,9.27946,-0.0193,0.13196,-0.1299,308.03635,-5.31366,0.58826,-0.0193
2018.03.19 19:57:55,26.02482,16.18156,-29.40273,0.38759,1.63783,11.02245,0.10001,-0.13544,0.2813,306.56735,-6.05651,1.22881,1013.36035
2018.03.19 19:57:55,26.66264,15.41309,-29.51527,0.11465,0.36652,12.12138,-0.23235,0.06697,0.21312,305.39331,-5.48517,1.37801,1013.36035
2018.03.19 19:57:55,26.62468,15.00092,-29.02775,0.37083,1.08957,8.83653,0.18417,0.04034,0.4006,303.60498,-5.09042,1.34395,0.18417
2018.03.19 19:57:55,27.18735,14.23225,-29.55284,0.44026,-0.0764,9.72717,-0.16949,-0.1546,-0.05,303.03122,-4.58185,2.16402,-0.16949
2018.03.19 19:57:56,26.9249,14.7192,-29.87156,0.16493,1.08238,9.05919,-0.03207,0.02863,0.05865,302.87802,-4.09701,2.25667,1013.36011
2018.03.19 19:57:56,27.05612,13.96923,-29.64649,0.1338,1.05365,8.98497,0.09789,0.0723,-0.06491,302.77582,-4.68742,2.00273,1013.35974
2018.03.19 19:57:56,27.09351,13.21945,-29.66537,0.19844,1.02731,9.37044,0.13623,0.06058,-0.08516,303.30823,-5.30057,1.51624,0.13623
2018.03.19 19:57:56,27.13108,12.52575,-29.9839,0.56715,1.15421,11.30257,0.15434,-0.04382,-0.00633,303.13892,-6.54976,1.96341,0.15434
2018.03.19 19:57:56,27.05612,13.25703,-30.4903,0.13141,-0.13387,11.64014,-0.39534,-0.03636,-0.4548,304.39972,-5.23697,1.76815,-0.39534
2018.03.19 19:57:56,27.95601,14.73808,-30.97782,0.27028,0.80945,8.89639,0.10001,-0.03104,0.03842,304.97159,-4.55006,2.13189,0.10001
2018.03.19 19:57:56,28.06854,15.15064,-30.82771,0.41393,0.66101,9.56198,-0.08748,-0.05127,-0.19594,305.84039,-4.36106,2.33353,-0.08748
2018.03.19 19:57:56,27.9747,15.80677,-30.88417,0.56715,0.91479,9.11905,-0.09599,0.05844,-0.1725,306.40155,-4.3243,1.52488,-0.09599
2018.03.19 19:57:56,28.1435,16.68816,-31.12774,0.3804,1.27632,9.51408,-0.06297,0.06804,-0.02231,306.51712,-4.09805,1.14087,-0.06297
2018.03.19 19:57:57,28.81851,15.65704,-31.44646,0.5025,1.00098,9.98814,0.15009,-0.10454,0.16092,305.45782,-4.94003,1.3102,0.15009
2018.03.19 19:57:57,28.78113,14.60686,-31.85921,0.36844,0.98183,11.39833,-0.07576,0.10959,0.22484,303.60022,-5.66182,2.02997,1013.36035
2018.03.19 19:57:57,28.78113,14.41917,-32.0652,-0.23251,0.57721,9.83971,0.07231,0.00305,0.21312,302.52002,-4.76644,1.83559,0.07231
2018.03.19 19:57:57,29.30641,13.8567,-32.21531,0.05719,0.0481,9.82773,-0.06937,0.0233,0.02776,301.93381,-4.59178,1.64842,-0.06937
2018.03.19 19:57:57,29.30603,14.28795,-32.53365,0.22478,0.98422,8.61627,0.06592,0.00626,0.05865,301.35034,-4.44664,1.4857,0.06592
2018.03.19 19:57:57,29.5496,13.87558,-33.17127,0.07634,1.22125,9.38719,0.00307,-0.04594,0.02138,300.67694,-4.8865,1.84161,0.00307
2018.03.19 19:57:57,29.45595,13.03196,-33.54626,0.23436,1.49179,9.40396,0.06699,0.03395,0.02031,300.65811,-5.09303,1.91522,0.06699
2018.03.19 19:57:57,29.40006,12.56294,-33.35915,0.24632,1.35054,10.54359,0.20334,-0.05234,0.06398,300.3717,-5.88633,2.04967,1013.36224
2018.03.19 19:57:57,29.77486,12.90092,-34.25884,0.32533,0.57242,10.78542,-0.26431,-0.08643,-0.17784,300.43378,-6.36614,2.29234,-0.26431
2018.03.19 19:57:58,29.79355,14.1571,-34.97143,0.74193,0.66341,9.55,-0.00438,-0.15674,0.06398,300.73248,-4.62047,2.66045,1013.36218
2018.03.19 19:57:58,30.16815,14.8695,-35.08396,0.38759,0.34497,9.01849,-0.05019,0.17456,-0.20447,301.58426,-4.11381,2.17795,-0.05019
2018.03.19 19:57:58,30.14946,15.30075,-34.82151,0.54561,0.84297,8.86047,0.05527,0.05844,-0.01059,301.7066,-4.36109,1.62383,0.05527
2018.03.19 19:57:58,30.35622,14.96334,-34.82132,0.63419,1.19012,8.70245,0.06166,0.03181,-0.00739,301.42584,-4.8809,1.45272,0.06166
2018.03.19 19:57:58,30.7127,15.16953,-35.00881,0.25111,1.64742,8.9323,0.09575,0.06271,0.09593,301.15079,-5.28922,1.60441,0.09575
2018.03.19 19:57:58,30.80597,14.19468,-35.06527,0.44266,1.67615,11.26904,0.07764,0.00945,0.20033,299.98459,-6.29378,2.56001,0.07764
2018.03.19 19:57:58,31.2933,14.007,-35.27145,-0.03618,0.5844,10.20363,-0.14394,0.12875,-0.00633,300.02383,-4.9146,1.81631,-0.14394
2018.03.19 19:57:58,31.63109,14.34422,-35.45876,-0.28279,-0.00218,9.60747,0.00946,-0.01932,0.00752,299.66605,-4.35096,1.36801,1013.36066
2018.03.19 19:57:58,31.70624,13.87558,-35.55241,0.1338,0.05766,9.10469,-0.04167,-0.10667,-0.02763,299.21024,-4.12863,1.70983,-0.04167
2018.03.19 19:57:59,32.08103,13.27572,-36.43379,0.07634,0.7903,9.41592,-0.04807,-0.01292,0.00327,298.83636,-4.3337,1.95465,-0.04807
2018.03.19 19:57:59,31.98719,13.42583,-37.20264,0.22957,1.25716,9.67929,-0.11943,0.0968,0.03735,298.45389,-4.00361,1.5693,1013.35962
2018.03.19 19:57:59,31.93092,13.25722,-36.71513,-0.09125,1.34335,9.82533,-0.04486,-0.0811,0.08421,298.11154,-3.74886,1.48947,-0.04486
2018.03.19 19:57:59,31.48079,12.33826,-36.92131,0.43068,1.41039,10.62021,0.18523,-0.12265,0.22696,296.68512,-5.1535,2.62916,0.18523
2018.03.19 19:57:59,31.04992,12.28218,-37.25872,0.47139,-0.3661,11.54437,-0.54341,-0.07684,-0.30992,297.44431,-3.43158,2.94476,-0.54341
2018.03.19 19:57:59,30.45006,13.20095,-37.57763,0.93587,0.65622,9.69365,0.312,0.03181,0.17264,297.25726,-2.9491,3.04163,0.312
2018.03.19 19:57:59,30.48668,11.81335,-37.93392,0.53603,0.17976,8.67851,0.06592,-0.00014,-0.11711,297.41049,-4.37193,2.67739,1013.35779
2018.03.19 19:57:59,30.33695,11.8885,-37.4464,0.54321,0.6227,8.67851,0.00307,0.0137,0.01071,297.42337,-4.4261,2.29083,0.00307
2018.03.19 19:57:59,30.44968,11.83205,-37.95261,0.71799,1.36969,9.32735,0.01373,0.05099,0.09807,296.5481,-4.48763,2.04291,0.01373
2018.03.19 19:58:00,30.93719,10.65044,-38.29021,0.70363,1.05365,10.66092,0.11279,-0.03636,0.08102,295.96365,-5.16899,2.33984,1013.35773
2018.03.19 19:58:00,30.65567,9.86309,-38.34648,0.33012,1.04887,12.14772,-0.05125,0.03075,-0.00101,295.3942,-5.55669,2.87053,-0.05125
2018.03.19 19:58:00,30.16834,10.03189,-38.74016,0.60785,1.19971,9.95462,0.25447,-0.14076,0.02989,295.5174,-5.60636,2.74367,0.25447
2018.03.19 19:58:00,30.37472,9.82571,-38.42144,0.21761,0.48862,9.70323,-0.05551,-0.00227,-0.20554,295.95303,-5.7416,2.3871,1013.3587
2018.03.19 19:58:00,30.28088,10.25715,-38.19656,-0.07449,0.71608,8.3936,0.00946,0.07443,-0.05959,296.48978,-4.98872,1.68183,0.00946
2018.03.19 19:58:00,30.01842,9.88178,-39.39629,-0.11279,0.91719,8.93469,-0.03528,-0.06087,0.05226,296.20013,-5.04497,1.6248,-0.03528
2018.03.19 19:58:00,29.58717,10.16331,-38.8525,-0.40968,1.37209,9.59071,0.06059,0.10745,0.01604,295.95679,-4.98147,1.33677,0.06059
2018.03.19 19:58:00,30.2248,10.2005,-38.36498,0.37083,1.17577,11.50607,0.08829,-0.1333,0.16411,294.87927,-5.46316,1.82287,1013.35858
2018.03.19 19:58:00,29.3623,10.05077,-38.44013,0.19127,0.13907,10.80936,-0.35593,-0.02571,-0.23535,295.27509,-4.11334,2.27765,-0.35593
2018.03.19 19:58:01,29.49371,11.25069,-39.28394,0.77066,0.56523,8.51332,0.2417,0.18947,-0.1235,296.784,-3.96489,1.59629,1013.35895
2018.03.19 19:58:01,29.60606,12.20684,-38.87119,0.76108,0.71608,9.55959,-0.01291,-0.12477,-0.17784,297.65417,-4.14966,1.68519,-0.01291
2018.03.19 19:58:01,29.54979,12.6194,-38.92727,0.56236,1.04887,8.9299,0.04143,0.03714,-0.16931,298.47549,-4.43311,1.42275,1013.35889
2018.03.19 19:58:01,29.26884,12.31956,-38.45863,1.10585,1.61629,9.60268,0.00414,0.01051,0.03735,298.87863,-4.15897,1.58552,1013.35883
2018.03.19 19:58:01,29.1748,11.66344,-38.30891,0.66292,1.40561,10.04561,0.27365,-0.16846,0.00539,298.6131,-5.74384,2.81764,0.27365
2018.03.19 19:58:01,28.44372,10.83832,-39.5462,0.68686,1.12309,12.9761,-0.01398,-0.24196,0.09488,298.16034,-7.0629,4.58581,-0.01398
2018.03.19 19:58:01,28.23734,10.63194,-39.99634,0.20802,0.63947,10.68246,-0.26111,0.11917,-0.08302,298.32526,-5.37407,3.80992,1013.3595
2018.03.19 19:58:01,29.19388,10.93178,-39.34002,-0.09125,0.27075,9.2196,-0.0097,0.17882,0.05547,297.57477,-5.56078,2.9046,1013.35986
2018.03.19 19:58:01,30.22499,11.66286,-38.55267,0.12901,0.46947,9.45903,-0.04912,0.15005,0.08635,297.0632,-4.71232,1.97271,-0.04912
2018.03.19 19:58:02,30.48725,11.55071,-38.08384,0.19127,0.88127,9.58832,-0.08109,0.01903,0.09274,296.10577,-4.28583,1.27593,-0.08109
2018.03.19 19:58:02,31.04954,11.10077,-37.52136,0.39717,1.28589,9.52127,-0.00758,0.149,0.12469,295.58313,-4.29199,0.80271,-0.00758
2018.03.19 19:58:02,31.08692,9.60064,-36.17153,0.34689,1.35054,10.06476,0.36206,0.00305,0.16199,294.57431,-6.19265,0.7177,1013.3606
2018.03.19 19:58:02,31.03085,8.64429,-36.97758,0.32056,0.95309,10.51726,-0.26431,0.00198,-0.14801,294.25592,-6.83841,1.48648,-0.26431
2018.03.19 19:58:02,30.99346,10.20088,-36.33995,0.30379,0.62749,10.01208,-0.22916,-0.20041,-0.21938,296.25079,-4.06727,2.25512,-0.22916
2018.03.19 19:58:02,30.41229,11.9442,-36.86523,0.28224,0.11992,9.03525,-0.04912,0.06483,-0.30247,297.13058,-4.031,2.16342,-0.04912
2018.03.19 19:58:02,30.76839,12.60071,-36.7342,0.46899,0.65143,8.60909,0.05847,0.16817,0.00539,297.65009,-3.83365,1.4383,0.05847
2018.03.19 19:58:02,30.88093,12.71324,-36.20872,0.39717,1.19012,9.17172,-0.03207,0.12769,-0.01273,297.22253,-4.62101,0.73775,1013.36005
2018.03.19 19:58:02,30.58109,12.75082,-35.3651,1.0891,1.23082,10.9147,0.02971,-0.17058,0.17477,296.61105,-4.41329,1.39906,0.02971
2018.03.19 19:58:03,30.18742,11.7569,-35.57167,0.36125,0.95549,11.11342,-0.08321,0.04247,0.11086,295.55841,-4.70141,2.46931,1013.35919
2018.03.19 19:58:03,30.4121,12.05692,-35.57167,0.33492,0.18935,10.22278,0.12132,0.02223,0.07996,295.35907,-4.56035,3.1341,0.12132
2018.03.19 19:58:03,29.9057,11.8885,-35.7029,-0.23012,-0.22725,9.72957,0.08723,0.06058,-0.00206,295.0415,-5.1479,2.89655,0.08723
2018.03.19 19:58:03,30.35603,12.31956,-34.93404,0.27505,0.50539,9.49014,-0.07469,0.07336,0.0757,294.31796,-4.64729,2.52097,-0.07469
2018.03.19 19:58:03,30.24387,12.37545,-34.67159,0.31577,0.94353,9.05919,0.0361,-0.00334,0.03629,293.95236,-4.79069,2.3408,0.0361
2018.03.19 19:58:03,29.77467,11.64455,-33.97751,0.22,1.2428,9.36086,-0.07788,0.0936,-0.04468,294.1947,-4.74446,2.12016,-0.07788
2018.03.19 19:58:03,29.23069,11.90701,-33.56533,0.32056,1.05844,9.72238,0.06059,-0.01506,0.02989,294.46927,-4.7616,1.8761,1013.35919
2018.03.19 19:58:03,28.74336,11.75671,-33.69637,0.65573,0.90042,11.26425,-0.00865,0.02863,-0.06705,294.06281,-5.52217,2.38347,1013.35919
2018.03.19 19:58:03,28.63102,13.87558,-33.52757,0.34689,-0.77072,10.93385,-0.47842,-0.04169,-0.48889,296.12717,-3.4225,2.08834,1013.35925
2018.03.19 19:58:04,28.03097,15.67535,-32.53384,0.64137,0.24202,8.42952,0.19908,0.04567,-0.07237,297.00418,-3.18706,1.66495,1013.35944
2018.03.19 19:58:04,27.86217,16.21933,-32.89032,0.14099,0.62509,9.25792,0.02438,0.04034,-0.16824,298.47775,-3.69062,1.35801,0.02438
2018.03.19 19:58:04,27.80609,16.63189,-32.32784,0.2583,0.93874,9.12384,0.01906,0.1181,-0.03615,299.00018,-4.08608,0.48877,0.01906
2018.03.19 19:58:04,28.04985,16.66965,-30.88398,0.29662,1.73122,8.62823,-0.13115,0.20332,0.10765,299.09937,-3.60316,-0.32543,-0.13115
2018.03.19 19:58:04,27.88105,16.70704,-30.52788,0.14099,1.02492,10.73514,-0.12476,-0.11732,0.21312,298.46194,-3.18388,-0.03436,-0.12476
2018.03.19 19:58:04,27.95639,16.57581,-30.43423,-0.10323,0.63228,12.10701,0.04248,-0.17378,0.2813,297.01025,-3.57202,0.95585,0.04248
2018.03.19 19:58:04,26.69983,16.55712,-30.95894,0.62941,-0.33498,9.77266,0.05315,-0.17804,-0.2524,298.13531,-3.13779,2.4392,1013.3609
2018.03.19 19:58:04,26.32484,17.15698,-31.3715,0.02127,-0.25119,7.90279,0.16499,0.05525,-0.24707,299.2879,-3.94316,2.26252,1013.36115
2018.03.19 19:58:04,25.79956,17.73834,-31.20289,0.28224,-0.1626,10.49092,-0.09599,-0.20467,0.14281,299.36276,-3.24924,3.10215,-0.09599
2018.03.19 19:58:05,25.44327,18.00079,-31.46515,0.28943,0.59396,9.04243,0.00201,0.02756,0.19501,298.24506,-3.30129,3.22134,0.00201
2018.03.19 19:58:05,25.387,17.38205,-30.69649,0.51208,1.20688,9.36565,-0.03741,0.13728,0.08209,298.12747,-2.86985,2.54907,-0.03741
2018.03.19 19:58:05,25.87471,17.1196,-30.05924,0.66531,1.09676,9.49973,0.16074,0.04567,0.05652,298.49524,-3.73821,1.80383,0.16074
2018.03.19 19:58:05,25.81825,16.782,-30.39665,0.58391,0.55806,11.76942,-0.26004,-0.34529,-0.08835,298.81595,-3.56747,3.01918,1013.3606
2018.03.19 19:58:05,25.31204,18.60046,-29.32758,0.3445,-0.27274,11.20918,-0.3197,-0.14076,-0.22365,301.21448,-0.16074,3.8284,-0.3197
2018.03.19 19:58:05,24.71237,19.7443,-29.21486,0.73953,0.00499,9.15018,0.30348,0.32477,-0.17145,301.7803,-1.66138,2.88611,0.30348
2018.03.19 19:58:05,25.5373,19.63158,-28.59631,0.08353,0.33301,8.66895,0.19589,0.28322,-0.21619,302.99179,-2.68772,1.36154,1013.36084
2018.03.19 19:58:05,26.26839,19.66934,-28.16525,0.29182,0.53889,8.80301,0.0116,0.12982,-0.05214,303.77844,-3.1765,0.44334,1013.36053
2018.03.19 19:58:05,25.93079,20.2877,-27.82726,0.81375,1.04408,10.76147,-0.0406,-0.24942,0.04161,304.02841,-2.61105,1.28707,-0.0406
2018.03.19 19:58:06,26.0807,19.61288,-28.0899,0.73953,1.27872,11.451,0.48032,-0.20467,0.23975,302.81149,-4.99107,1.97291,0.48032
2018.03.19 19:58:06,25.8934,17.88788,-29.00887,0.50729,1.06084,11.14455,0.13197,-0.02571,0.16838,301.97064,-6.0181,2.23458,0.13197
2018.03.19 19:58:06,26.15604,17.45682,-28.20263,0.02367,0.27794,9.83252,0.16393,-0.04169,0.1066,301.58536,-5.90843,2.57918,0.16393
2018.03.19 19:58:06,26.0622,15.67535,-27.77138,-0.04097,-0.00697,9.47339,0.02544,0.07443,0.04054,301.04984,-6.31669,1.96124,1013.362
2018.03.19 19:58:06,25.79975,15.76939,-28.22132,0.27028,1.36729,9.0544,0.02225,-0.01186,0.17796,300.13672,-5.91872,2.29239,0.02225
2018.03.19 19:58:06,25.8934,14.8695,-27.771,0.29662,1.5708,9.04004,-0.03421,0.06271,-0.05214,300.12302,-6.11758,1.87955,-0.03421
2018.03.19 19:58:06,26.17455,15.33833,-28.14636,0.14816,1.23801,9.83252,-0.0406,0.00519,-0.15227,301.51462,-5.93661,1.35592,-0.0406
2018.03.19 19:58:06,26.34354,15.52582,-27.82764,0.31577,1.53011,10.16771,0.19695,-0.07578,0.02138,301.76535,-7.17309,1.45199,0.19695
2018.03.19 19:58:06,26.09997,15.01942,-28.0714,0.22238,0.69452,10.74471,0.04143,0.00305,-0.08195,302.03073,-7.68103,1.60735,1013.36389
2018.03.19 19:58:07,26.32484,16.29467,-28.12748,0.19844,-0.1626,10.21799,-0.29201,-0.02571,-0.17038,303.50998,-5.27234,1.15936,-0.29201
2018.03.19 19:58:07,26.45626,16.42609,-27.05879,0.34689,0.86931,9.31776,0.04248,0.00198,-0.06705,303.34302,-5.40471,0.91223,0.04248
2018.03.19 19:58:07,26.85013,16.80107,-26.79634,0.30379,1.2404,8.724,0.08617,0.00731,-0.08728,303.80832,-5.75874,0.8955,0.08617
2018.03.19 19:58:07,26.9434,16.57562,-26.68381,0.27745,1.4463,8.99695,0.0574,-0.02357,-0.13309,304.8136,-6.24774,0.97384,0.0574
2018.03.19 19:58:07,27.01836,16.48197,-26.55258,0.1386,1.67136,9.37283,0.11172,0.00305,0.01604,305.28348,-6.65219,0.8077,0.11172
2018.03.19 19:58:07,26.83105,16.18195,-26.55258,0.31816,1.80064,11.3696,0.18097,-0.01399,0.17903,304.4744,-7.8934,1.11028,0.18097
2018.03.19 19:58:07,26.70002,14.79454,-26.85242,0.24394,0.74242,11.46057,-0.17056,0.02116,6e-05,304.08975,-7.42184,0.85345,-0.17056
2018.03.19 19:58:07,27.20623,15.13195,-26.42117,-0.10323,0.73523,9.45184,0.02864,-0.00227,0.09593,303.56055,-6.88417,1.23949,1013.367
2018.03.19 19:58:07,27.93751,15.0568,-26.72157,-0.15111,0.76874,9.72717,-0.05339,-0.07045,0.09593,302.87582,-6.62894,1.33443,1013.36755
2018.03.19 19:58:08,27.67487,14.79454,-27.26536,-0.15111,1.50377,8.98497,-0.16949,0.05312,-0.05533,302.86325,-5.80346,0.91847,1013.36768
2018.03.19 19:58:08,27.31857,15.16933,-26.66512,0.05479,1.56361,9.82294,-0.22276,-0.02464,0.00433,302.78342,-4.46568,0.73873,-0.22276
2018.03.19 19:58:08,27.78702,16.25671,-25.97122,0.21761,1.47264,9.49014,-0.02782,0.00305,0.01711,302.74683,-3.96315,0.6126,-0.02782
2018.03.19 19:58:08,28.21827,15.45086,-26.23367,0.38519,1.45828,11.00089,0.22466,-0.07684,0.17264,302.23273,-5.05627,0.96085,1013.36774
2018.03.19 19:58:08,27.48718,14.62555,-26.51501,0.33012,0.32343,10.31375,-0.24727,-0.12372,-0.21725,302.06277,-5.01722,1.9819,-0.24727
2018.03.19 19:58:08,28.06854,15.11307,-27.60277,0.82573,-0.06204,9.61943,-0.01503,-0.04062,-0.28755,303.33286,-4.50116,2.62101,-0.01503
2018.03.19 19:58:08,28.27492,15.84435,-27.71511,0.34689,0.10794,8.7695,-0.10452,0.04674,-0.33124,304.56442,-4.12946,2.20325,-0.10452
2018.03.19 19:58:08,28.08743,16.46328,-27.03991,0.34689,1.34096,8.79584,0.07124,0.08934,-0.03935,305.14526,-4.27282,2.01909,1013.36682
2018.03.19 19:58:08,28.46241,17.00687,-27.7153,0.44745,1.17577,9.17891,-0.02249,0.07123,-0.15759,306.05518,-4.54521,1.76911,-0.02249
2018.03.19 19:58:09,28.91216,17.45682,-27.49023,0.47139,1.56841,9.53085,0.09895,0.08615,0.07463,305.8858,-4.94556,1.34881,0.09895
2018.03.19 19:58:09,29.17461,16.68816,-27.95868,0.44505,1.78389,11.51324,0.27045,-0.07152,0.30792,304.38449,-6.61349,1.75408,0.27045
2018.03.19 19:58:09,29.41837,15.22598,-28.9526,0.35167,-0.22246,12.12616,-0.02249,-0.12798,0.19075,302.85648,-5.49351,1.97482,-0.02249
2018.03.19 19:58:09,29.24995,14.26945,-29.53415,-0.2804,0.36172,8.07039,0.33437,0.12236,0.26105,301.28259,-6.45615,1.75222,1013.36633
2018.03.19 19:58:09,30.29957,13.70697,-29.10271,0.03564,0.53889,9.22919,-0.14073,-0.07578,0.03096,300.73117,-6.29606,1.83852,1013.36646
2018.03.19 19:58:09,30.71251,12.78801,-29.62761,0.15535,1.42236,8.6019,-0.08002,0.01691,0.10233,299.93399,-5.32893,1.39974,1013.36658
2018.03.19 19:58:09,30.5809,13.44433,-29.32758,0.29422,1.47983,9.95462,-0.18761,-0.00653,-0.06172,300.04132,-4.14098,1.36086,-0.18761
2018.03.19 19:58:09,30.69344,14.19449,-29.94652,-0.01463,1.43195,10.17729,0.31093,0.01051,0.07784,300.0517,-5.03639,0.99939,0.31093
2018.03.19 19:58:09,31.81877,13.05065,-30.22785,0.33731,0.94113,11.75986,0.24915,-0.16206,0.12151,299.42984,-6.45745,1.36368,1013.36725
2018.03.19 19:58:10,31.64997,12.95719,-30.3215,0.66771,-0.44511,10.99371,-0.32503,-0.14609,-0.1512,300.11331,-4.3144,2.10659,-0.32503
2018.03.19 19:58:10,31.55594,13.36956,-30.71518,0.69405,0.67776,8.87006,0.13837,0.06911,-0.05533,299.93985,-4.02365,2.4105,0.13837
2018.03.19 19:58:10,31.66828,13.68809,-31.07147,-0.01703,0.68495,8.48459,-0.00865,0.06058,-0.24174,300.86969,-3.98319,2.03931,-0.00865
2018.03.19 19:58:10,32.1373,14.06288,-30.9967,0.33252,1.14224,8.70485,0.05208,0.08295,-0.0191,300.89288,-4.5952,1.08533,1013.36902
2018.03.19 19:58:10,32.64351,14.04438,-30.97782,0.55997,1.56122,9.34889,-0.07043,0.03075,-0.02657,300.90833,-4.22409,0.88318,1013.36951
2018.03.19 19:58:10,33.24375,13.83839,-31.07166,0.36365,1.25476,10.83569,0.24489,-0.17697,0.21098,299.52972,-5.47963,1.14462,0.24489
2018.03.19 19:58:10,33.63743,12.24461,-31.37169,0.24394,0.89325,11.86041,-0.02142,0.13301,0.40913,297.80597,-6.10435,1.52514,-0.02142
2018.03.19 19:58:10,34.08718,10.61306,-31.55899,-0.19659,0.24442,9.11665,-0.01717,0.149,0.14174,296.75223,-4.42771,1.08211,-0.01717
2018.03.19 19:58:10,34.29356,10.5381,-31.29654,-0.21336,-0.3302,9.05919,-0.09813,0.00519,-0.04681,296.60785,-3.76706,0.99837,-0.09813
2018.03.19 19:58:11,34.51843,10.03208,-32.08389,-0.01942,0.70889,9.46143,0.11919,-0.04808,0.21419,295.10696,-4.0432,1.4623,1013.37274
2018.03.19 19:58:11,34.5562,8.75702,-31.82125,0.16493,0.96028,8.58754,0.09361,0.12129,0.15346,293.93542,-4.64878,1.14424,1013.37329
2018.03.19 19:58:11,35.28728,7.95097,-31.84013,0.35406,1.45589,9.15974,-0.04379,0.13196,-0.0191,293.36502,-4.83446,0.51448,-0.04379
2018.03.19 19:58:11,35.28709,7.36961,-32.60918,0.35646,1.10393,10.17729,0.07445,-0.01718,-0.14375,293.62894,-5.55486,0.39922,0.07445
2018.03.19 19:58:11,35.5875,7.31335,-32.2525,0.56476,0.70889,11.81493,0.04994,-0.19083,-0.09048,293.83661,-6.03892,1.54226,1013.37573
2018.03.19 19:58:11,34.93118,8.83179,-33.35876,0.67729,-0.10753,10.85724,-0.15672,-0.19829,-0.18422,295.38785,-4.2584,2.57411,1013.3772
2018.03.19 19:58:11,34.725,9.01928,-33.24623,0.1745,0.26836,9.00412,0.08084,0.05844,-0.31525,296.07288,-4.81189,2.50022,0.08084
2018.03.19 19:58:11,35.10017,9.88178,-33.50925,0.12901,1.3625,8.2715,0.1373,0.11064,-0.08728,297.20349,-5.19318,1.68415,0.1373
2018.03.19 19:58:11,35.21233,9.52568,-33.22792,0.38759,1.2404,9.23158,0.01266,0.05844,-0.04681,297.04819,-5.68167,1.37048,0.01266
2018.03.19 19:58:11,35.53123,8.83198,-33.00285,0.42589,1.87486,9.39917,-0.02463,0.04353,0.08955,296.3772,-5.4616,1.2387,1013.38013
2018.03.19 19:58:12,35.11887,7.65076,-32.79629,0.4642,1.25955,9.90195,0.17245,-0.12372,0.17264,294.50507,-6.55998,1.65144,1013.38116
2018.03.19 19:58:12,34.61246,5.47562,-33.22773,0.43068,-0.33498,11.9035,-0.41664,0.13196,-0.00313,293.03204,-5.56781,2.2521,-0.41664
2018.03.19 19:58:12,35.11848,5.3257,-33.30269,-0.05295,0.26836,9.3082,0.09042,0.21078,0.20459,292.08313,-5.22674,1.65403,0.09042
2018.03.19 19:58:12,35.62469,4.16317,-32.62749,-0.20618,-0.14824,9.43509,-0.09387,-0.03955,0.05013,290.95279,-4.85744,1.58036,-0.09387
2018.03.19 19:58:12,35.45628,3.18813,-32.66487,0.19366,1.12549,8.89639,0.01585,-0.01079,0.24828,288.5676,-4.6997,1.63659,1013.38409
2018.03.19 19:58:12,35.28748,2.17533,-32.49645,0.22717,1.65221,9.18608,-0.08109,0.06804,0.08316,287.49652,-4.52213,1.42184,1013.38452
2018.03.19 19:58:12,35.2499,1.95045,-32.38392,0.15775,1.34096,9.51888,-0.0257,0.05312,-0.12564,287.43826,-4.36392,0.91978,-0.0257
2018.03.19 19:58:12,34.98726,1.74427,-32.08408,0.1769,1.41757,10.22278,0.21826,-0.07896,0.13002,287.04501,-5.58688,1.24319,0.21826
2018.03.19 19:58:12,34.19971,0.33817,-32.34653,0.19127,0.084,11.07272,-0.35379,-0.09921,-0.24602,286.79022,-5.40364,2.52038,-0.35379
2018.03.19 19:58:13,33.05607,0.6567,-33.3025,0.90234,-0.59834,10.64175,-0.20465,-0.13649,-0.1299,287.2865,-4.05691,2.73644,-0.20465
2018.03.19 19:58:13,32.77473,1.65043,-32.98378,0.29662,0.17499,9.03764,-0.07895,0.05525,-0.31631,288.02026,-3.62932,2.16283,-0.07895
2018.03.19 19:58:13,33.22487,2.45686,-31.99024,0.41153,1.17815,8.66895,0.12238,0.16817,-0.06812,288.50479,-3.60781,1.46076,1013.38788
2018.03.19 19:58:13,33.43124,2.71931,-31.35281,0.30618,1.0321,8.83893,-0.06937,0.19374,-0.13948,288.85107,-3.80453,0.23805,-0.06937
2018.03.19 19:58:13,32.06234,2.83184,-30.80902,0.32056,1.72163,9.52367,-0.00333,0.01265,-0.02231,288.7774,-3.86077,0.23487,1013.38788
2018.03.19 19:58:13,32.32498,1.40686,-30.09663,0.09789,1.19252,11.68085,0.21399,-0.12691,0.14281,287.42963,-5.2094,0.53179,1013.38763
2018.03.19 19:58:13,32.15599,0.6382,-30.39646,0.1338,-0.51215,12.2363,-0.25046,-0.07684,-0.06705,286.03217,-5.05897,0.9151,-0.25046
2018.03.19 19:58:13,30.80597,0.15087,-30.17139,-0.08885,0.11273,9.52127,0.1064,0.11064,0.19714,285.23047,-4.92548,0.64597,0.1064
2018.03.19 19:58:13,29.43726,-0.44918,-29.9839,0.06438,0.20132,9.69127,-0.02463,-0.08856,0.11725,284.00565,-4.73394,1.06429,-0.02463
2018.03.19 19:58:14,28.29361,-0.43049,-30.34,0.20084,0.50778,9.0161,0.16499,-0.04808,0.17264,282.36682,-4.7962,1.82482,0.16499
2018.03.19 19:58:14,28.04985,-1.44291,-30.39665,0.22717,1.25955,9.37044,0.0787,-0.08749,0.04054,281.29721,-5.53555,1.95753,1013.38672
2018.03.19 19:58:14,27.35596,-1.85547,-29.92764,0.08353,1.78629,9.18369,-0.02037,0.13089,-0.1022,280.92969,-5.86228,1.74073,-0.02037
2018.03.19 19:58:14,26.94321,-1.21803,-29.68388,0.38519,1.41278,10.86922,-0.04486,-0.13437,-0.12137,281.97342,-5.86227,2.07271,-0.04486
2018.03.19 19:58:14,25.57468,0.11311,-30.1712,0.53123,-0.11711,11.12778,-0.3996,0.05844,-0.27904,283.05832,-4.49648,2.47861,1013.38641
2018.03.19 19:58:14,26.15585,1.46294,-29.64649,1.02684,-0.06683,10.09828,0.03929,-0.10773,-0.0351,283.39639,-3.23787,2.70369,0.03929
2018.03.19 19:58:14,25.81844,2.40078,-29.72145,0.32773,0.03372,9.06158,0.07552,0.06697,-0.22151,283.82117,-3.75731,2.37547,0.07552
2018.03.19 19:58:14,25.91209,2.58808,-29.32758,0.16493,0.7903,8.62584,0.0638,0.13834,-0.13097,284.9032,-3.90063,1.88939,0.0638
2018.03.19 19:58:14,25.08717,3.20702,-28.7838,0.48335,0.7903,9.54761,-0.11411,0.04567,-0.09795,285.27228,-3.76662,0.98861,-0.11411
2018.03.19 19:58:15,24.80583,3.56331,-28.10879,0.22717,1.64502,9.2244,0.03503,0.07016,0.17157,284.65137,-3.40938,1.0294,0.03503
2018.03.19 19:58:15,24.03717,2.75688,-28.46489,0.20563,1.50377,11.0392,0.16818,-0.02251,0.21205,283.7576,-4.39567,1.0437,1013.38385
2018.03.19 19:58:15,23.81248,1.55678,-27.77138,0.04282,0.09837,11.4558,-0.17696,0.06911,0.00966,282.91357,-3.98888,0.63542,-0.17696
2018.03.19 19:58:15,22.3875,1.76296,-27.86522,-0.08408,0.254,8.32896,0.27472,-0.0811,0.18649,282.01102,-4.40422,1.485,0.27472
2018.03.19 19:58:15,20.98122,1.14403,-27.88391,0.23436,-0.55046,10.71359,-0.24834,-0.31227,6e-05,281.49664,-3.56103,2.79506,-0.24834
2018.03.19 19:58:15,19.70577,1.29414,-27.86522,0.25351,0.7448,8.51332,0.10747,0.04674,0.21098,280.3168,-3.29661,2.74762,0.10747
2018.03.19 19:58:15,18.74981,0.80662,-27.67754,0.26549,1.23322,9.49493,0.04568,-0.02571,0.11725,279.73349,-3.6271,3.05189,0.04568
2018.03.19 19:58:15,17.77496,0.35667,-26.83372,0.38998,1.95148,8.62344,0.09042,0.26192,0.03203,279.72861,-3.9479,1.67941,0.09042
2018.03.19 19:58:15,17.94338,0.11292,-26.25237,0.49533,0.9124,11.90829,-0.04593,-0.10347,-0.099,280.11505,-4.96858,1.9185,1013.37756
2018.03.19 19:58:16,16.74366,0.67558,-26.25256,0.65335,0.2061,11.80774,-0.30159,-0.12372,-0.18422,281.21359,-3.06602,2.00102,-0.30159
2018.03.19 19:58:16,16.25614,1.70708,-26.06487,0.92389,-0.17935,10.02644,-0.02995,-0.10561,-0.26944,282.25015,-2.02784,2.41525,1013.37579
2018.03.19 19:58:16,15.71255,2.49443,-25.97122,0.43787,0.10315,8.44627,0.09361,-0.02145,-0.33443,283.95642,-3.01831,2.28242,0.09361
2018.03.19 19:58:16,16.64982,2.70081,-25.55885,-0.04337,0.72565,8.38403,-0.00333,0.13301,-0.19489,285.41913,-3.35824,1.53645,-0.00333
2018.03.19 19:58:16,16.91227,3.37582,-24.77131,0.548,1.07042,9.40636,-0.08109,0.02649,0.06931,285.97455,-2.70118,1.78943,-0.08109
2018.03.19 19:58:16,16.85581,3.56331,-24.80869,0.63419,1.57799,9.68648,0.10321,0.01158,0.08102,285.44205,-3.05019,1.48871,1013.36951
2018.03.19 19:58:16,16.83731,3.01971,-24.20883,0.97656,1.27393,11.71675,0.18629,-0.21638,0.14601,285.06137,-4.43913,2.60645,0.18629
2018.03.19 19:58:16,16.04996,2.77576,-23.87142,0.36365,-0.65581,11.64253,-0.28136,0.18628,0.05547,284.4996,-3.93754,2.54802,1013.36761
2018.03.19 19:58:16,14.81228,1.57528,-23.19641,-0.4839,-0.05965,8.75992,0.12772,0.03502,0.23656,282.90448,-3.26021,2.66236,0.12772
2018.03.19 19:58:17,14.9437,1.87531,-23.1966,0.08592,0.15582,9.21242,0.04887,-0.09175,0.13109,282.13989,-3.34048,2.86333,1013.36554
2018.03.19 19:58:17,14.99977,1.91288,-22.97134,0.23676,0.75677,8.92033,-0.01291,0.1245,0.06291,281.52039,-3.20541,2.11983,-0.01291
2018.03.19 19:58:17,14.45618,2.40059,-22.61543,0.3445,1.20448,9.61465,-0.14073,0.06165,0.00645,281.58905,-2.34817,1.67269,-0.14073
2018.03.19 19:58:17,14.69994,3.09448,-22.5029,-0.01463,1.23561,9.78943,0.06805,0.01477,0.07037,281.92645,-2.23695,1.22955,0.06805
2018.03.19 19:58:17,13.83762,2.77557,-22.29633,0.40674,1.01295,11.89871,0.43237,-0.0598,0.11832,281.67416,-3.88358,1.20956,1013.362
2018.03.19 19:58:17,13.81874,3.52535,-22.07146,0.30139,-0.43315,10.81175,-0.53915,-0.07791,-0.41753,283.35199,-1.20344,1.93496,1013.36145
2018.03.19 19:58:17,13.44357,4.74415,-22.84031,0.6701,-0.10274,9.70323,0.20227,-0.12477,-0.10114,283.48373,-1.55699,2.25985,0.20227
2018.03.19 19:58:17,13.78117,4.51946,-22.27802,0.40434,0.72565,8.64978,0.12451,0.03607,-0.11392,284.73315,-2.51159,1.82675,0.12451
2018.03.19 19:58:17,13.18111,5.28831,-21.978,0.3421,0.4575,9.26988,0.11386,0.0968,-0.0777,285.56274,-3.0646,1.48575,0.11386
2018.03.19 19:58:18,13.12485,6.07586,-21.41514,0.67729,0.78072,9.22679,-0.16844,-0.00546,-0.01273,286.48749,-2.21564,0.65716,-0.16844
2018.03.19 19:58:18,12.99362,6.48823,-22.12772,1.27104,1.62347,10.31375,0.21613,-0.3325,0.35905,285.3078,-3.0297,1.99942,0.21613
2018.03.19 19:58:18,12.37507,5.85079,-22.44644,0.45462,0.9962,10.99132,0.31946,0.07976,0.28662,284.23151,-4.84258,3.02137,0.31946
2018.03.19 19:58:18,11.92493,5.71938,-22.01519,-0.12956,-0.40681,11.02245,-0.18121,0.31624,-0.03296,284.02945,-4.54761,1.78155,-0.18121
2018.03.19 19:58:18,11.6436,6.45065,-21.67759,-0.53658,0.12949,10.02406,0.06592,0.35779,0.15346,283.65762,-4.85879,-0.02009,1013.35309
2018.03.19 19:58:18,11.94344,7.0694,-21.62132,0.09309,0.34976,9.66014,-0.07895,-0.112,0.11404,284.10971,-3.45613,0.71108,1013.35168
2018.03.19 19:58:18,11.306,7.29446,-21.9965,0.00452,0.89565,9.18369,-0.01077,-0.07152,0.08955,283.95316,-3.49266,0.8458,-0.01077
2018.03.19 19:58:18,10.89344,8.00686,-21.8277,0.27028,0.92436,9.54282,-0.07895,-0.10347,-0.06918,285.68921,-2.84987,1.16458,-0.07895
2018.03.19 19:58:18,11.1187,9.05685,-22.22176,0.0524,1.10393,9.38002,0.22784,0.00305,0.07996,286.98138,-3.825,0.68866,0.22784
2018.03.19 19:58:19,11.15608,9.56287,-22.35279,0.56715,0.4982,12.6505,-0.13968,-0.3176,0.08849,287.33777,-4.73566,1.66857,1013.34509
2018.03.19 19:58:19,10.03113,10.95066,-22.89639,0.3421,-0.08119,10.80457,-0.30052,-0.05873,-0.13522,289.1539,-1.67752,2.39627,-0.30052
2018.03.19 19:58:19,10.33115,12.67548,-23.13995,0.77066,0.01697,9.76788,0.0361,0.18521,-0.34615,290.92789,-1.63907,2.4599,0.0361
2018.03.19 19:58:19,10.40611,13.44452,-23.00892,0.16493,0.71846,8.67851,0.12025,0.23848,-0.26199,293.55615,-2.34859,1.15205,0.12025
2018.03.19 19:58:19,10.93082,13.6507,-23.44036,0.19127,0.65622,8.9754,0.08723,0.11278,-0.09474,296.12274,-3.3056,0.54745,0.08723
2018.03.19 19:58:19,10.85606,13.65051,-24.00265,0.36125,0.92197,9.66254,-0.06723,-0.06299,-0.03722,298.9249,-3.17661,0.80537,-0.06723
2018.03.19 19:58:19,10.6123,14.36329,-23.8903,0.42111,0.69212,10.48613,0.24915,-0.01825,0.22696,299.68164,-4.57797,0.88673,0.24915
2018.03.19 19:58:19,10.89306,14.68182,-23.42167,0.05,0.15822,11.87477,0.10107,0.10213,0.38995,298.48352,-5.37853,0.94666,0.10107
2018.03.19 19:58:19,11.73706,15.71331,-23.51532,-0.30194,0.59157,8.78146,-0.05551,0.26192,0.33989,298.5076,-3.00918,0.26171,1013.33563
2018.03.19 19:58:20,12.41226,16.61339,-23.64655,-0.24687,0.03612,9.85646,-0.12796,-0.03955,0.15027,298.31689,-2.48413,-0.02115,1013.33527
2018.03.19 19:58:20,12.24365,16.65096,-24.37763,-0.27081,1.02492,8.45825,0.09149,0.05418,0.14069,298.05136,-2.08618,-0.04401,0.09149
2018.03.19 19:58:20,12.63733,16.12568,-24.52774,-0.12956,1.09436,9.00174,-0.06297,-0.00974,-0.02338,299.77127,-2.41811,-0.39875,1013.33429
2018.03.19 19:58:20,13.10616,17.4942,-24.00284,-0.11279,0.91719,9.75351,-0.09706,0.01691,-0.12457,301.67386,-2.1013,-0.40155,1013.33289
2018.03.19 19:58:20,13.79986,18.76926,-24.34025,-0.06731,0.74002,10.64415,0.09361,-0.10347,-0.05214,304.32312,-2.61258,-0.18972,0.09361
2018.03.19 19:58:20,13.49983,18.95714,-24.28398,0.1769,-0.74678,11.92505,-0.66058,-0.14076,-0.27371,307.39883,-0.56661,0.73843,-0.66058
2018.03.19 19:58:20,13.3873,20.36304,-24.69635,0.72517,-0.16978,9.78703,-0.07895,-0.11732,-0.06279,308.39917,0.54477,1.67866,-0.07895
2018.03.19 19:58:20,13.50002,20.11929,-24.32156,-0.00984,-0.30864,8.70724,0.04568,0.05312,-0.36638,310.39246,-0.72812,1.11273,0.04568
2018.03.19 19:58:20,13.9122,20.83187,-24.47147,0.19127,0.29709,8.50374,0.12344,0.16391,-0.13203,312.67377,-0.58834,0.87593,1013.32886
2018.03.19 19:58:21,14.21223,21.43173,-24.9588,0.21281,0.254,9.27467,0.03716,0.03395,-0.08728,314.01843,-1.42978,0.41054,1013.32764
2018.03.19 19:58:21,14.84966,20.81299,-25.23994,0.31097,1.16618,9.08073,0.12451,0.14047,0.14706,314.84189,-2.06599,0.00071,0.12451
2018.03.19 19:58:21,15.37476,20.43819,-25.48389,0.33731,1.17337,11.88675,0.23317,-0.00121,0.34521,314.61536,-2.76589,0.12647,0.23317
2018.03.19 19:58:21,15.95612,20.00694,-25.67139,-0.33067,-1.15858,11.62578,-0.42517,-0.03104,-0.09367,314.41467,-1.99024,-0.06732,1013.32526
2018.03.19 19:58:21,17.21249,20.64457,-25.54016,-0.48869,-0.3278,9.22919,0.06487,0.03714,0.07356,313.6926,-1.72455,-0.96048,0.06487
2018.03.19 19:58:21,17.11864,19.93198,-25.33379,-0.21814,-0.01656,9.25792,0.06059,-0.11305,0.097,313.83032,-1.72442,-0.98489,0.06059
2018.03.19 19:58:21,17.60578,19.08817,-25.50259,-0.0721,0.45271,9.03525,0.13623,-0.06725,0.07251,313.62042,-2.2533,-0.57977,0.13623
2018.03.19 19:58:21,18.09349,18.95695,-25.42763,-0.16547,0.9124,9.30101,0.0542,-0.01186,-0.06598,314.37598,-2.96616,-0.44503,0.0542
2018.03.19 19:58:21,18.22491,18.78853,-25.72746,-0.18941,0.97464,9.71521,0.01053,0.09573,-0.10114,315.46835,-3.15696,-0.90089,1013.32007
2018.03.19 19:58:22,18.37463,19.18201,-26.49632,0.16014,0.85973,11.1613,0.05101,-0.14928,0.03203,315.9418,-3.53155,-0.03471,0.05101
2018.03.19 19:58:22,18.50567,19.55681,-27.24648,-0.26842,-0.7827,11.49649,-0.47523,-0.18976,-0.35893,317.22736,-1.89694,0.66685,-0.47523
2018.03.19 19:58:22,18.50605,19.81907,-26.47743,0.27745,0.22766,8.53966,0.25021,0.11278,0.14174,316.99594,-1.35052,1.25538,0.25021
2018.03.19 19:58:22,18.76869,19.23809,-26.19648,0.29422,0.51735,8.94907,0.01906,0.14047,-0.08516,317.71051,-1.62375,0.47018,0.01906
2018.03.19 19:58:22,19.91234,19.9131,-26.42136,0.30139,0.5844,8.93948,-0.01717,0.27364,0.01711,317.62958,-1.80879,-0.47673,1013.31311
2018.03.19 19:58:22,19.96841,19.80095,-25.95291,0.46899,0.84775,9.85167,-0.05978,-0.04169,-0.02017,317.6124,-1.67021,-0.27023,1013.31152
2018.03.19 19:58:22,19.72446,19.18182,-26.32771,0.18648,0.80945,10.11743,0.14156,-0.11305,0.048,317.00912,-2.53868,0.07794,0.14156
2018.03.19 19:58:22,20.0058,18.11333,-26.66492,0.16014,1.15181,11.2834,0.19482,0.15752,0.17371,316.00613,-4.4696,0.33437,0.19482
2018.03.19 19:58:22,20.51201,18.09483,-26.57108,-0.06491,-0.67017,11.01526,-0.15884,-0.06938,-0.21938,316.87897,-2.72329,-0.39088,-0.15884
2018.03.19 19:58:23,21.26236,18.41335,-26.45874,-0.77838,-0.17218,7.9435,0.32585,0.06804,0.15773,316.16129,-3.9838,-0.39076,0.32585
2018.03.19 19:58:23,21.48724,17.34428,-26.55258,-0.2756,-0.06923,9.4279,-0.05339,-0.13116,0.2291,315.23724,-3.67708,0.23779,-0.05339
2018.03.19 19:58:23,21.86222,17.08221,-25.97122,-0.11519,1.13745,8.92033,-0.04593,0.0137,0.14388,313.6734,-3.52104,0.3459,1013.30896
2018.03.19 19:58:23,21.84353,17.45701,-25.6525,0.09071,1.14224,9.799,-0.13115,-0.07045,-0.01273,313.53442,-2.53336,0.05678,-0.13115
2018.03.19 19:58:23,21.50593,17.73834,-25.52109,-0.10323,1.1183,10.10068,-0.07788,0.02649,-0.04042,313.78775,-2.08149,-0.1594,1013.30786
2018.03.19 19:58:23,20.68081,17.38205,-25.59624,0.28464,0.47186,12.24348,-0.01077,-0.28244,-0.05107,313.92517,-2.79764,1.36465,-0.01077
2018.03.19 19:58:23,19.94953,18.54439,-25.37136,0.15056,-0.58398,11.32172,-0.33249,0.04886,-0.26732,315.93915,0.34474,1.44087,-0.33249
2018.03.19 19:58:23,19.64989,19.25678,-25.08965,0.25351,-0.03091,9.40396,0.31625,0.20013,0.12257,315.62512,-0.42469,0.54365,0.31625
2018.03.19 19:58:23,20.23106,18.3567,-24.62101,0.22,-0.01176,8.64978,0.06805,0.01903,-0.12671,316.00888,-1.39423,0.63837,1013.30701
2018.03.19 19:58:24,20.73708,18.56289,-24.47109,0.31337,0.33301,8.88681,-0.0715,0.15645,0.01392,315.62943,-1.45865,-0.76717,1013.30627
2018.03.19 19:58:24,20.60604,19.2194,-24.24622,0.39957,0.63707,9.68408,-0.19081,-0.06938,0.0544,315.44705,-0.21514,-0.51894,-0.19081
2018.03.19 19:58:24,20.21217,18.61935,-24.60251,0.36365,0.90521,10.69922,0.23424,-0.15674,0.27277,313.41522,-1.45297,1.00347,1013.30518
2018.03.19 19:58:24,21.07449,17.88807,-24.71504,0.02606,0.03612,11.86041,0.02438,-0.05554,0.02776,313.04968,-1.94258,1.5672,0.02438
2018.03.19 19:58:24,20.38078,17.70077,-24.86496,-0.01942,-0.1602,8.91794,0.17778,0.01265,0.01498,312.97955,-2.02603,1.41945,0.17778
2018.03.19 19:58:24,21.4119,17.34447,-25.39005,0.02127,-0.31583,8.94667,0.09468,-0.02571,-0.01591,312.26047,-3.63788,1.04521,0.09468
2018.03.19 19:58:24,20.39967,17.15698,-26.02749,-0.10323,-0.43553,9.28903,-0.0992,0.02863,-0.06386,312.41824,-3.17711,1.09729,-0.0992
2018.03.19 19:58:24,20.36228,16.8005,-24.99638,-0.26125,0.65143,8.75752,-0.14394,0.17242,0.06612,311.80179,-2.61347,0.09043,-0.14394
2018.03.19 19:58:24,20.83092,17.3069,-24.88365,0.05959,1.05125,9.87083,-0.23235,-0.02783,0.06717,311.60284,-1.1127,0.25764,1013.3009
2018.03.19 19:58:25,21.05598,17.88845,-24.54662,-0.16547,0.84535,10.14377,0.16818,-0.08963,0.13962,311.13724,-1.71704,0.9089,0.16818
2018.03.19 19:58:25,21.39339,17.66357,-24.82796,-0.07689,0.59875,10.5029,0.01266,0.23422,0.17796,310.3573,-2.22881,0.46877,1013.29968
2018.03.19 19:58:25,21.8996,17.6445,-25.14648,0.52406,-0.08598,9.39198,-0.01291,-0.05659,-0.10114,311.36273,-0.76072,0.41941,-0.01291
2018.03.19 19:58:25,21.59977,17.56935,-25.14648,-0.00507,0.0457,9.58832,0.15967,0.05632,-0.22791,311.36267,-2.86227,0.44112,0.15967
2018.03.19 19:58:25,22.12467,17.58842,-24.80888,0.11465,0.14146,9.22919,0.0329,0.17563,-0.24602,312.53058,-2.94663,-0.34314,1013.29822
2018.03.19 19:58:25,22.78118,17.7948,-24.9403,0.22238,0.90042,9.25552,-0.0715,0.23634,0.00539,312.86218,-3.19255,-1.29089,1013.29742
2018.03.19 19:58:25,22.96848,17.71946,-24.58382,0.35646,1.31702,9.95462,-0.03741,-0.12051,0.18222,312.00882,-2.9325,-0.58229,-0.03741
2018.03.19 19:58:25,22.96867,17.28802,-24.80869,0.07155,0.85014,10.34009,0.13623,-0.07896,0.14494,310.82062,-3.7845,0.71112,0.13623
2018.03.19 19:58:25,22.96886,17.56935,-25.48389,-0.37376,0.14386,11.01286,-0.16524,0.11385,0.08421,310.29865,-3.65229,0.66321,-0.16524
2018.03.19 19:58:26,22.61238,17.3069,-24.99638,-0.13913,0.85014,8.30502,0.37059,0.00838,0.2504,309.35709,-3.78247,0.75302,1013.2962
2018.03.19 19:58:26,23.17448,16.48197,-25.27752,-0.0338,0.00021,9.83492,-0.0161,-0.01506,-0.13629,309.26547,-4.89541,0.53972,-0.0161
2018.03.19 19:58:26,23.71845,16.85696,-25.74635,-0.00507,0.30905,9.19327,-0.0257,0.07869,-0.11179,309.90131,-4.77379,-0.12558,-0.0257
2018.03.19 19:58:26,24.01829,17.26913,-24.90253,-0.10083,1.15421,9.38959,-0.0992,-0.08643,-0.00206,309.86105,-4.2906,-0.13786,-0.0992
2018.03.19 19:58:26,23.2687,17.68188,-24.39632,0.19844,1.21407,10.03603,-0.13861,0.01584,0.03522,309.81964,-3.76092,-0.21496,1013.29419
2018.03.19 19:58:26,23.73734,18.26305,-24.50886,0.21042,1.13745,10.77583,0.01799,-0.11093,-0.02763,310.05249,-3.90978,0.8194,1013.29358
2018.03.19 19:58:26,23.8308,18.30044,-25.12779,-0.24687,-0.03091,11.24271,-0.46458,-0.00974,-0.26732,311.0361,-2.54514,1.45014,-0.46458
2018.03.19 19:58:26,23.77491,20.56961,-23.89011,0.25111,-0.20091,9.40636,0.0574,0.04567,-0.08195,312.29639,-0.80965,1.32911,0.0574
2018.03.19 19:58:26,23.49339,21.82579,-24.28379,0.28224,-0.09317,8.99455,-0.12476,0.04567,-0.27904,313.66019,-0.70065,0.75162,-0.12476
2018.03.19 19:58:27,23.02475,22.29443,-23.66524,0.33971,0.47905,9.01131,-0.01184,0.03607,-0.05426,314.12094,-0.41285,0.54127,-0.01184
2018.03.19 19:58:27,23.00606,22.78175,-23.5714,0.42589,0.40244,9.15257,-0.12689,0.10532,-0.04681,314.40555,-0.19326,-0.03715,-0.12689
2018.03.19 19:58:27,23.53115,23.00682,-23.77739,0.49294,0.83818,9.94505,0.07977,0.07976,0.08742,314.15915,-0.51812,-0.06269,0.07977
2018.03.19 19:58:27,23.58742,21.9944,-23.06538,0.10507,1.13506,10.93625,0.28856,-0.06512,0.16731,313.17661,-2.40627,-0.16646,0.28856
2018.03.19 19:58:27,23.49358,21.80691,-22.5214,-0.42404,-0.82339,11.02483,-0.46352,0.0446,-0.12137,313.49881,-1.22798,-0.57315,1013.28925
2018.03.19 19:58:27,23.64349,22.08805,-22.08996,-0.61079,0.03372,8.67133,0.22998,0.08083,0.21098,312.40625,-1.25748,0.01342,1013.28943
2018.03.19 19:58:27,24.48711,21.09451,-21.92154,-0.33067,-0.3709,9.77985,0.06273,-0.0811,0.03735,312.13904,-1.46573,0.50486,0.06273
2018.03.19 19:58:27,24.31831,20.38193,-22.10922,-0.16307,0.65862,8.65697,0.17139,0.05418,0.08209,311.73666,-2.10171,0.21443,0.17139
2018.03.19 19:58:27,24.07475,20.66326,-22.05296,-0.11758,0.86931,9.57634,-0.11836,0.05632,-0.07877,312.10413,-1.87328,-0.43788,-0.11836
2018.03.19 19:58:28,24.03736,20.71934,-21.32149,-0.06013,0.7879,9.18848,0.12025,0.01691,0.05013,312.27689,-2.00295,-0.55552,0.12025
2018.03.19 19:58:28,24.39365,20.28809,-21.86508,0.40195,0.93874,10.953,0.44623,-0.52638,0.1279,311.93863,-3.66297,1.29742,1013.28979
2018.03.19 19:58:28,24.05586,20.26958,-22.33391,0.42828,-0.41159,12.66965,-0.61266,-0.32611,-0.27583,312.55292,-1.02664,2.31917,-0.61266
2018.03.19 19:58:28,22.96848,20.49427,-21.92154,0.81854,0.20132,9.49973,0.28323,-0.00227,0.06184,312.46518,-0.75062,2.3696,0.28323
2018.03.19 19:58:28,23.54965,21.15059,-21.73386,0.44026,-0.19852,9.22919,0.02544,-0.01825,-0.39728,313.84528,-1.15864,2.21493,0.02544
2018.03.19 19:58:28,22.85614,20.96329,-21.78993,0.28703,0.29948,9.00891,0.0265,0.09467,-0.13097,315.07202,-1.69345,1.03436,0.0265
2018.03.19 19:58:28,23.4375,21.3007,-21.19007,0.60785,1.01295,9.60507,-0.01184,-0.01825,0.02457,315.17422,-1.57943,1.27314,-0.01184
2018.03.19 19:58:28,24.11232,20.4567,-20.62778,0.28703,1.09436,10.19165,0.14369,0.05099,-0.01273,314.89026,-2.56218,0.97322,0.14369
2018.03.19 19:58:28,24.24335,19.31343,-20.19672,0.22957,0.9124,11.7838,0.07977,-0.04169,0.15453,313.67609,-3.82157,1.30174,0.07977
2018.03.19 19:58:29,24.05605,18.71338,-20.70255,0.20323,-0.34935,11.34087,-0.00545,-0.25154,-0.07983,313.9032,-3.42937,1.64899,1013.29382
2018.03.19 19:58:29,24.3372,19.0134,-20.32738,-0.3642,-0.80424,9.10947,0.07338,0.05418,0.03203,313.24707,-3.45919,-0.02738,1013.29468
2018.03.19 19:58:29,25.18101,19.10706,-19.78416,-0.14153,-0.17218,9.19566,-0.04807,-0.00974,0.20566,311.96646,-2.5941,-0.30526,-0.04807
2018.03.19 19:58:29,25.53692,18.45093,-19.74621,-0.08168,0.61073,8.73119,0.00839,-0.06192,0.19182,310.57669,-2.41215,-0.06095,0.00839
2018.03.19 19:58:29,25.74329,17.79461,-19.54002,0.0141,1.11351,9.39917,-0.14073,-0.04594,0.09807,309.69025,-1.98144,0.03941,1013.29523
2018.03.19 19:58:29,25.8934,17.53197,-18.97793,0.20323,0.94113,10.47656,-0.06723,-0.04915,-0.07237,309.47165,-1.06502,-0.18301,-0.06723
2018.03.19 19:58:29,25.06828,16.96949,-19.31553,-0.07928,0.91719,11.46297,0.08403,-0.09921,-0.06918,309.85132,-1.64089,-0.21023,0.08403
2018.03.19 19:58:29,24.97482,17.86957,-19.61536,-0.29475,-0.63426,10.70401,-0.27922,-0.09601,-0.35573,311.41565,-0.80498,0.02503,-0.27922
2018.03.19 19:58:29,25.27485,18.54458,-19.25907,0.5887,-0.58876,9.61465,0.15327,-0.1546,-0.01805,311.67548,-0.74165,0.67032,0.15327
2018.03.19 19:58:30,26.04332,18.4885,-19.203,0.04282,-0.18175,9.07835,0.01053,0.07123,-0.2066,312.02502,-1.6907,0.50976,1013.29626
2018.03.19 19:58:30,26.66225,18.22586,-19.12766,0.15295,0.66101,9.23636,0.01266,0.03928,-0.00101,312.11572,-1.68324,0.137,1013.29608
2018.03.19 19:58:30,26.34354,18.26305,-19.52152,0.30858,1.04408,9.21002,-0.04274,0.05951,-0.05746,311.86261,-1.41571,-0.21762,-0.04274
2018.03.19 19:58:30,26.81236,19.18182,-18.92147,0.29422,0.56523,10.27785,0.02757,0.05312,0.03842,311.58759,-1.59866,-0.53595,0.02757
2018.03.19 19:58:30,27.0937,18.39466,-18.49022,-0.09364,0.73044,11.30495,0.12877,0.00626,0.21205,310.09521,-2.37167,-0.32773,0.12877
2018.03.19 19:58:30,27.44999,18.07594,-18.5091,-0.58446,-1.13464,11.42706,-0.41664,0.10959,0.01711,309.26367,0.09122,-1.1721,-0.41664
2018.03.19 19:58:30,27.22473,17.41943,-18.00289,-0.71614,-0.02374,7.89322,0.12984,0.23422,0.25146,308.16406,0.1141,-2.13368,1013.29578
2018.03.19 19:58:30,26.7746,17.49458,-18.11523,-0.11519,-0.41159,9.68648,-0.06084,-0.17697,0.01285,307.90817,0.58224,-1.57864,1013.29535
2018.03.19 19:58:30,26.38092,17.43813,-18.15281,-0.278,0.26117,8.62584,0.11067,-0.06938,0.1066,307.57492,0.29915,-0.61898,0.11067
2018.03.19 19:58:31,26.43719,17.21306,-18.3403,-0.10802,0.28751,10.00729,-0.14073,-0.14821,-0.05319,307.27197,0.62372,-0.03035,-0.14073
2018.03.19 19:58:31,26.02444,17.26933,-18.5463,-0.10323,0.58679,9.97139,0.09682,-0.00334,-0.00206,307.12466,0.48614,0.09932,0.09682
2018.03.19 19:58:31,25.42458,16.74423,-18.00289,-0.00267,0.64903,10.22517,0.27472,-0.08536,-0.00952,306.82681,-0.65818,0.03031,0.27472
2018.03.19 19:58:31,25.31223,16.70685,-18.75286,-0.02422,-0.64143,11.73592,-0.17377,-0.06087,-0.15546,307.21368,-1.52796,0.40534,1013.29504
2018.03.19 19:58:31,24.93725,17.79423,-18.92185,0.65096,-0.49539,9.97856,0.03078,0.0201,0.09274,308.09402,1.41587,1.61336,0.03078
2018.03.19 19:58:31,25.12474,17.70077,-19.29665,0.35406,-0.00697,9.3082,0.19055,0.0659,-0.06172,307.29553,-0.5682,1.12224,0.19055
2018.03.19 19:58:31,25.08717,18.20679,-18.95885,0.12901,0.34258,8.56837,0.17564,0.12556,-0.09474,307.69489,-1.31777,0.64089,0.17564
2018.03.19 19:58:31,25.31204,17.66319,-19.0527,0.33971,0.67537,9.18369,0.04675,0.01051,-0.02763,307.66547,-2.13572,0.48831,1013.29523
2018.03.19 19:58:31,25.44308,18.16959,-19.0527,0.1362,0.86212,9.45663,0.04355,0.03288,-0.05107,308.02618,-2.27677,0.32616,0.04355
2018.03.19 19:58:32,25.19951,18.15071,-18.95924,0.17929,1.17337,10.44783,0.22252,-0.11305,0.07251,307.71408,-3.55018,0.82227,0.22252
2018.03.19 19:58:32,25.06828,18.1509,-18.99643,0.24394,-0.4547,12.63135,-0.33675,0.0872,-0.03189,307.5744,-2.93347,0.70989,-0.33675
2018.03.19 19:58:32,24.63722,18.15071,-17.72137,-0.29715,0.68256,8.29065,0.29921,0.20013,0.16092,307.43536,-2.70492,0.24852,1013.29675
2018.03.19 19:58:32,24.41216,17.75703,-17.40246,-0.51503,-0.05725,9.14539,0.10107,0.04247,0.07251,306.90347,-3.78144,-0.1084,1013.297
2018.03.19 19:58:32,24.59965,17.71965,-18.1715,-0.06252,0.77592,8.67612,0.04782,0.05525,0.14813,305.79803,-3.3485,0.65649,0.04782
2018.03.19 19:58:32,25.14343,17.15679,-18.02158,0.01888,1.18054,8.66655,-0.01823,-0.00014,0.09488,305.27621,-3.46264,0.44236,1013.29767
2018.03.19 19:58:32,24.63722,17.11922,-17.85259,0.10028,1.36969,9.86125,-0.12689,0.00198,-0.03722,305.45926,-2.7008,0.61484,-0.12689
2018.03.19 19:58:32,24.44973,16.95042,-17.44022,0.22717,1.0321,10.297,0.19801,-0.05341,0.05865,305.42563,-3.64349,0.85236,0.19801
2018.03.19 19:58:32,24.29962,16.66946,-17.59014,0.36125,0.10077,11.37918,-0.08641,-0.1088,-0.20021,307.06476,-3.1003,1.50898,1013.29773
2018.03.19 19:58:33,23.64349,18.61954,-17.60864,0.48814,-0.41638,9.85167,-0.08215,-0.04169,-0.19701,308.33524,-2.3605,1.52783,-0.08215
2018.03.19 19:58:33,23.64368,18.58215,-17.51518,0.28464,0.04091,9.28903,0.05634,0.0414,-0.0564,308.11151,-2.93651,1.3478,0.05634
2018.03.19 19:58:33,23.08121,17.62562,-17.29031,0.21281,0.60834,8.4391,0.06699,0.17563,0.07996,308.52197,-2.3561,0.67116,0.06699
2018.03.19 19:58:33,23.47488,17.51308,-16.72764,0.20802,0.94353,8.80301,-0.15352,0.17349,0.00113,308.36536,-1.96759,-0.06852,-0.15352
2018.03.19 19:58:33,23.83118,18.60046,-16.31489,0.34927,1.13266,9.84688,0.05847,-0.06192,0.13429,308.04617,-1.99834,0.10791,1013.29883
2018.03.19 19:58:33,24.07494,17.55066,-16.74633,0.30858,1.08238,10.16531,0.30028,-0.04915,0.19926,306.68771,-3.89871,0.53849,0.30028
2018.03.19 19:58:33,24.52507,16.782,-16.6151,-0.4001,-0.27753,11.39833,-0.49335,0.2289,-0.08302,306.26703,-2.93728,-0.14047,-0.49335
2018.03.19 19:58:33,24.56188,16.93192,-16.4463,-0.42883,-0.17458,8.98497,-0.07683,-0.04276,0.08849,306.16513,-1.72398,0.08729,1013.30042
2018.03.19 19:58:33,25.49953,17.17587,-16.12778,-0.1559,-0.43315,10.06236,-0.03741,-0.13969,0.12897,304.81281,-2.50662,-0.1691,1013.3009
2018.03.19 19:58:34,25.59338,17.21325,-16.76502,-0.09125,0.34737,8.69049,0.15434,0.07976,0.08849,303.99869,-2.74697,0.40473,0.15434
2018.03.19 19:58:34,25.83733,16.65096,-16.53996,-0.37616,0.93155,9.37762,-0.13435,0.02116,-0.02231,303.95853,-2.67841,-0.31434,-0.13435
2018.03.19 19:58:34,26.24969,16.80088,-16.31508,-0.32828,1.16139,9.88998,-0.1631,0.15858,0.04054,303.8866,-2.07233,-0.93238,-0.1631
2018.03.19 19:58:34,26.62449,16.42551,-16.20255,-0.07689,1.07281,10.59627,0.13942,-0.07896,0.15453,303.27505,-2.40105,-0.81897,0.13942
2018.03.19 19:58:34,26.90601,16.38813,-16.65268,0.19844,0.80945,11.08708,0.1373,-0.14928,0.02882,302.66919,-4.10105,-0.02021,0.1373
2018.03.19 19:58:34,27.09351,16.80069,-17.28992,0.548,-0.42836,10.96259,-0.13968,-0.19083,-0.16718,304.50897,-1.61123,0.93449,1013.30292
2018.03.19 19:58:34,27.59991,17.663,-16.80279,0.26549,0.13188,8.89639,0.17671,0.07549,-0.19168,304.89471,-2.28287,0.73792,0.17671
2018.03.19 19:58:34,27.20642,17.96322,-16.48426,0.02367,0.42398,9.01849,-0.02142,0.02649,-0.27371,307.0892,-2.24896,0.34623,-0.02142
2018.03.19 19:58:34,27.31857,18.50719,-16.40911,0.23676,0.68974,9.32495,-0.07576,0.04034,-0.19168,308.27005,-2.1131,-0.20291,-0.07576
2018.03.19 19:58:34,27.4683,19.14463,-16.89663,0.25351,1.0369,9.51888,-0.07469,0.03181,-0.05533,308.57257,-1.79648,-0.40965,1013.30408
2018.03.19 19:58:35,27.80571,19.63158,-16.80279,-0.07449,0.98422,10.31854,0.17351,-0.0502,0.08102,308.00507,-2.69301,-0.00365,1013.30432
2018.03.19 19:58:35,28.23734,18.93806,-16.89663,-0.04576,-0.22246,12.32967,-0.39746,0.02756,0.01178,307.39188,-2.76179,0.20776,-0.39746
2018.03.19 19:58:35,28.55606,18.54458,-16.48407,-0.23012,0.19414,8.37924,0.37805,0.14368,0.22163,306.23877,-3.04815,0.37994,0.37805
2018.03.19 19:58:35,29.11854,17.38205,-16.52145,-0.09364,-0.63904,9.97617,-0.07576,-0.09814,-0.03082,305.92505,-3.15721,0.63108,1013.30554
2018.03.19 19:58:35,29.23069,16.81976,-17.08393,-0.0721,0.57002,8.26671,0.07657,0.13089,0.14601,305.25708,-2.9625,0.49712,1013.30597
2018.03.19 19:58:35,29.26846,16.0696,-17.00897,0.03804,0.90042,9.24115,-0.13435,0.00093,0.03203,304.36914,-2.57776,0.54446,-0.13435
2018.03.19 19:58:35,29.62475,15.73238,-16.23993,-0.02422,1.04648,9.40636,-0.01823,0.11064,6e-05,303.90524,-2.33047,0.08098,1013.30597
2018.03.19 19:58:35,30.09357,15.43217,-16.82129,0.04761,1.45828,10.36403,0.37273,-0.0321,0.17477,303.06506,-3.82072,0.27217,0.37273
2018.03.19 19:58:35,29.98085,14.47563,-17.6651,0.24632,0.13188,10.67049,-0.36018,-0.18123,-0.31099,304.04321,-3.73737,1.10472,-0.36018
2018.03.19 19:58:36,29.32491,15.71312,-17.70248,0.50012,-0.39484,9.9666,0.07764,-0.02783,-0.26518,305.32565,-3.18031,1.51914,0.07764
2018.03.19 19:58:36,29.47483,15.82565,-17.14039,-0.04816,-0.06683,9.26988,0.0787,0.21718,-0.32059,306.8905,-3.37862,0.24832,0.0787
2018.03.19 19:58:36,29.41856,16.29448,-17.10262,0.05,1.5349,8.94427,0.04782,0.12982,0.06079,306.89481,-3.26787,-0.33455,1013.30646
2018.03.19 19:58:36,29.11873,15.50694,-16.69006,0.26549,1.07759,9.16454,-0.02142,0.05099,-0.00952,306.22247,-3.55635,-0.60125,-0.02142
2018.03.19 19:58:36,29.3623,15.35702,-16.48407,0.39238,1.56601,9.61226,0.01906,-0.01079,0.1279,305.16846,-3.59867,-0.61881,0.01906
2018.03.19 19:58:36,29.64363,14.60705,-16.42761,0.16014,1.56841,11.13017,0.22252,-0.16739,0.097,304.39557,-4.53398,0.04468,1013.30591
2018.03.19 19:58:36,29.13723,14.43825,-16.18385,-0.1535,-0.97183,11.98251,-0.30479,-0.161,-0.12564,304.65533,-3.27675,0.189,1013.30591
2018.03.19 19:58:36,29.24957,13.78212,-16.52145,-0.54376,0.09837,8.40079,0.35248,0.07016,0.3239,302.93332,-4.45204,0.06942,0.35248
2018.03.19 19:58:37,28.72486,12.37564,-16.33377,0.04761,0.15105,10.03123,-0.03421,-0.0811,0.18436,301.63782,-4.26206,0.49248,-0.03421
2018.03.19 19:58:37,28.96881,12.41322,-16.95271,-0.13196,0.94353,8.63303,0.02332,0.1767,-0.01698,301.06461,-4.20703,-0.13818,0.02332
2018.03.19 19:58:37,28.91235,11.7569,-16.67156,-0.32109,1.38644,9.05202,-0.03528,0.1032,-0.04575,301.16751,-4.09349,-0.50316,-0.03528
2018.03.19 19:58:37,28.61233,11.45706,-15.65895,-0.02182,1.35533,9.56915,-0.02249,0.0137,0.06931,300.78473,-3.70939,-0.78192,1013.30365
2018.03.19 19:58:37,28.51868,11.36341,-15.77129,-0.10802,1.51094,10.33769,0.18736,-0.11945,0.05972,299.83014,-5.01851,-0.099,1013.3028
2018.03.19 19:58:37,28.125,11.13815,-16.42761,-0.34264,-0.21288,10.95061,-0.57536,-0.07471,-0.40154,301.02405,-2.74268,0.64217,1013.302
2018.03.19 19:58:37,27.11239,12.56313,-16.16516,0.47618,-0.01176,9.07596,0.14262,0.01584,0.04694,300.97885,-2.00357,1.20175,0.14262
2018.03.19 19:58:37,27.50626,12.20684,-16.78391,-0.00027,-0.40442,9.21002,-0.15672,-0.00014,-0.24495,301.56616,-1.65617,1.08053,1013.30127
2018.03.19 19:58:37,28.14369,12.60052,-16.67137,0.26788,0.65143,8.51093,0.0265,0.02756,0.26318,300.63849,-1.17514,0.63311,0.0265
2018.03.19 19:58:37,27.31857,11.94439,-16.76521,0.56236,0.71129,9.91872,-0.06297,0.03395,0.0235,299.58859,-0.9865,0.64339,-0.06297
2018.03.19 19:58:38,26.86863,11.98196,-16.91532,0.14099,0.62988,9.75351,0.12451,0.00093,0.01817,299.56393,-1.84006,0.7711,0.12451
2018.03.19 19:58:38,26.94359,11.34472,-16.6338,0.50969,0.74242,11.40312,0.08829,-0.06192,0.33562,298.3623,-2.10212,0.82231,0.08829
2018.03.19 19:58:38,26.47495,10.89439,-16.40892,0.26549,-0.77072,10.60106,-0.28987,0.06697,-0.07451,297.82767,-0.733,1.07828,1013.2995
2018.03.19 19:58:38,26.28746,10.44445,-16.67156,-0.13675,-0.44032,8.97778,0.3333,0.13408,-0.02657,297.02942,-3.19819,0.17078,0.3333
2018.03.19 19:58:38,26.77498,10.01301,-16.61491,-0.26364,0.13428,9.36565,0.07764,0.0446,-0.17889,297.62216,-3.89871,-0.18288,0.07764
2018.03.19 19:58:38,26.81236,11.00712,-16.33377,-0.35461,0.83578,8.79584,-0.07362,0.03075,-0.03189,298.06519,-3.5995,-0.84769,-0.07362
2018.03.19 19:58:38,26.88713,10.74467,-16.65268,-0.27321,0.87408,9.55719,-0.1631,-0.10454,-0.04575,298.12549,-2.93154,-0.57121,1013.29907
2018.03.19 19:58:38,27.18697,11.43837,-16.89625,-0.2397,0.91,10.13898,-0.02675,-0.1333,0.05013,297.68658,-2.2716,0.0028,1013.29871
2018.03.19 19:58:39,26.49364,11.10077,-16.8211,0.33731,0.70889,12.60262,-0.09599,-0.23024,0.01392,297.13422,-2.65918,0.92394,-0.09599
2018.03.19 19:58:39,25.27466,11.90701,-17.04617,0.15535,-0.02852,10.89554,-0.37509,-0.01506,-0.26093,298.20135,-0.78539,1.09513,1013.29871
2018.03.19 19:58:39,25.7061,12.54463,-18.15262,0.74911,-0.18175,9.30101,0.28111,0.01265,0.0235,298.1666,-0.92349,1.26798,1013.29883
2018.03.19 19:58:39,25.91248,12.65736,-18.22777,0.23915,0.22287,8.724,0.116,0.03607,-0.09795,298.64343,-2.085,0.84725,0.116
2018.03.19 19:58:39,26.00613,12.76951,-17.44022,0.07155,0.74959,8.70245,0.13516,0.11171,-0.00206,298.65643,-3.14296,0.1118,0.13516
2018.03.19 19:58:39,26.24989,11.90701,-17.64679,0.2583,0.93634,9.68169,-0.08427,0.00838,-0.02657,298.58295,-3.07546,0.10532,-0.08427
2018.03.19 19:58:39,25.72479,12.16984,-18.62125,0.43547,0.94113,10.35446,0.1895,-0.01186,0.16411,298.03403,-3.67001,0.16381,0.1895
2018.03.19 19:58:39,25.5558,12.15096,-18.39657,0.05959,0.01936,11.61142,-0.13435,0.09253,0.21844,296.58405,-4.27841,0.50342,1013.29822
2018.03.19 19:58:39,25.91209,11.45706,-18.35918,-0.14871,-0.05725,8.95145,0.0787,0.1394,0.24614,295.8114,-2.67739,0.61891,0.0787
2018.03.19 19:58:40,25.79975,10.53829,-19.01512,-0.32349,-0.24161,8.76231,0.08084,0.0659,0.16731,294.6272,-3.3857,0.25479,1013.29871
2018.03.19 19:58:40,25.53692,10.20069,-19.9337,-0.0338,0.43117,9.59789,-0.04807,0.01797,0.13429,293.68024,-2.75714,0.56142,-0.04807
2018.03.19 19:58:40,25.06828,9.63821,-19.40899,-0.14632,1.33138,9.24115,0.05208,0.05844,0.01071,293.24692,-3.32244,0.125,0.05208
2018.03.19 19:58:40,25.33092,9.8444,-19.25926,-0.37376,1.29068,9.04004,-0.07256,0.1245,-0.12032,293.86523,-3.16839,-1.07995,1013.29791
2018.03.19 19:58:40,24.95594,9.80682,-19.46526,-0.17265,1.0321,9.39677,0.19908,-0.10773,0.02243,294.17487,-4.24162,-0.70248,0.19908
2018.03.19 19:58:40,23.68107,9.71336,-19.27795,-0.01942,0.09358,11.44142,-0.2153,-0.13969,-0.22365,294.65756,-4.52619,0.72602,-0.2153
2018.03.19 19:58:40,23.58704,10.12592,-19.55929,0.16493,-0.77551,11.0416,-0.34633,-0.02251,-0.19382,295.74213,-2.74204,0.80866,-0.34633
2018.03.19 19:58:40,23.75603,10.66952,-19.35291,0.49773,0.47905,8.63063,0.20122,0.15219,0.07037,294.90842,-3.31743,0.25979,1013.29675
2018.03.19 19:58:40,23.19336,9.97562,-19.42768,0.15295,0.84535,8.17094,0.07552,0.10745,-0.13522,295.82376,-4.06211,-0.27166,0.07552
2018.03.19 19:58:41,22.76211,10.63175,-19.35272,0.38519,0.85254,9.42072,-0.10878,0.00838,-0.22365,296.59268,-4.16746,-0.04792,-0.02675
2018.03.19 19:58:41,22.38712,11.34472,-19.42787,0.02606,1.39124,9.33214,-0.08215,0.00412,-0.15013,298.14172,-3.40229,0.00521,-0.08215
2018.03.19 19:58:41,21.8998,11.49464,-18.88409,-0.00984,1.35054,10.94821,0.14902,-0.13544,0.13002,297.99622,-4.15412,0.53592,0.14902
2018.03.19 19:58:41,20.90588,10.98824,-19.27795,-0.00507,0.08879,12.49487,-0.19507,0.10106,0.12576,297.36017,-4.20121,0.64385,1013.29523
2018.03.19 19:58:41,20.81203,11.77578,-19.18411,-0.17984,0.21568,9.17172,0.03397,0.12236,0.15985,297.15488,-2.60608,0.24714,1013.29559
2018.03.19 19:58:41,20.8498,11.17573,-19.07158,-0.3642,-0.29428,9.37283,0.00946,-0.08324,0.04375,296.50461,-3.31353,0.17122,1013.29559
2018.03.19 19:58:41,20.47462,10.5381,-19.09027,-0.17744,0.63467,8.36009,0.01906,0.11491,0.12683,295.82452,-3.0961,0.17434,0.01906
2018.03.19 19:58:41,20.62454,10.57549,-19.35272,-0.14392,0.79747,9.42072,-0.18442,0.10425,-0.01591,295.75751,-2.54603,-0.56887,-0.18442
2018.03.19 19:58:41,20.71857,11.25069,-19.29646,-0.45277,0.84535,8.77667,-0.21425,0.34714,-0.01273,296.00235,-1.7516,-1.5421,1013.29529
2018.03.19 19:58:42,20.81223,12.05692,-19.55891,-0.43362,0.67537,10.06715,0.13091,0.04779,0.08316,295.97711,-2.55352,-1.92625,0.13091
2018.03.19 19:58:42,20.58716,11.53221,-19.70882,0.10507,0.24442,10.9171,-0.13329,-0.10028,0.02989,295.53259,-3.31855,-0.82132,-0.13329
2018.03.19 19:58:42,19.91196,12.24461,-19.55891,0.29422,-0.16978,10.32094,-0.11092,-0.14502,0.13109,295.89789,-1.34446,0.12595,-0.11092
2018.03.19 19:58:42,19.57455,12.82578,-19.9152,0.06438,0.15582,9.25313,0.11812,-0.04701,-0.13948,296.04605,-1.87478,0.44547,1013.29602
2018.03.19 19:58:42,19.74335,13.72585,-20.62778,-0.14153,0.39764,8.8078,-0.0161,0.12129,-0.2524,298.61472,-1.52204,-0.41008,1013.29626
2018.03.19 19:58:42,19.31229,15.07607,-20.85247,0.05479,0.77353,9.2244,0.07124,-0.03955,-0.10327,299.71674,-2.15808,-0.76621,0.07124
2018.03.19 19:58:42,19.87476,15.50713,-20.85228,-0.0338,1.25716,9.46381,0.04248,-0.04594,-0.05,300.5199,-2.41418,-0.60424,0.04248
2018.03.19 19:58:42,20.54977,16.76331,-20.87135,0.07634,0.9124,10.42149,0.19376,-0.1333,0.13429,301.0152,-3.41291,-0.33665,0.19376
2018.03.19 19:58:42,20.68119,15.75069,-21.02127,0.23915,0.67297,12.42784,-0.21637,0.09892,0.20247,299.89163,-3.73542,-0.22744,-0.21637
2018.03.19 19:58:42,20.94345,15.9008,-21.04015,-0.23012,0.27794,8.55641,0.26619,0.14047,0.10233,299.9455,-3.60451,-0.41384,0.26619
2018.03.19 19:58:43,21.78726,15.80696,-21.22765,-0.57967,-0.38048,8.64978,0.09361,-0.05447,0.00966,299.95465,-4.36538,-0.34981,1013.29749
2018.03.19 19:58:43,22.21851,16.16325,-20.90912,-0.17744,0.46228,9.21481,-0.0406,-0.05341,0.05652,299.64209,-4.09743,0.04941,-0.0406
2018.03.19 19:58:43,22.48096,17.41943,-21.67778,-0.07928,0.66579,9.68169,0.00946,-0.04915,0.01817,300.2645,-3.63612,0.54981,0.00946
2018.03.19 19:58:43,23.02494,17.94453,-22.25895,-0.16069,1.50856,9.49493,0.03503,0.04674,0.02989,300.91837,-3.95659,0.18733,1013.29779
2018.03.19 19:58:43,23.58742,16.87584,-21.19007,-0.05055,1.23561,9.79182,0.10747,-0.01399,-0.07983,301.72964,-4.49866,-0.19527,0.10747
2018.03.19 19:58:43,24.1684,16.61301,-21.35887,0.19366,0.83818,10.94104,0.0638,-0.14502,-0.05959,302.58868,-5.41619,0.42355,0.0638
2018.03.19 19:58:43,23.66257,17.75723,-22.09034,0.18169,-0.61272,11.50607,-0.34314,-0.15567,-0.24707,304.02527,-4.25085,0.99242,-0.34314
2018.03.19 19:58:43,23.26851,17.88807,-21.62132,0.33492,0.38567,9.07596,0.16606,0.07869,0.14174,303.8634,-3.50717,1.46787,0.16606
2018.03.19 19:58:43,24.16859,17.43813,-21.67778,0.16254,0.9483,8.84612,0.09575,0.07762,-0.00633,304.13907,-4.11349,0.87691,1013.29736
2018.03.19 19:58:44,24.1497,17.64431,-21.58375,0.36844,0.70171,9.70084,-0.08748,0.01691,-0.13416,305.10394,-4.18178,0.48276,1013.29718
2018.03.19 19:58:44,25.03109,17.88826,-20.6274,0.08113,1.23082,9.48297,-0.07895,0.09467,-0.04254,305.59836,-3.72202,-0.00126,-0.07895
2018.03.19 19:58:44,25.44346,17.86957,-20.51506,0.42589,1.52771,10.07195,0.09256,-0.01079,0.15027,305.12833,-4.05467,0.05485,0.09256
2018.03.19 19:58:44,25.10586,16.87584,-21.18988,0.36604,1.30266,11.59465,0.10001,-0.11732,0.11404,304.54572,-5.2128,0.74327,0.10001
2018.03.19 19:58:44,26.17455,16.78219,-20.83416,0.26549,-0.52412,12.26503,-0.31119,-0.04062,-0.21725,305.13943,-3.72518,0.42361,1013.29669
2018.03.19 19:58:44,27.22492,16.72592,-20.83416,-0.57248,-0.43076,8.70245,0.17032,-0.02464,0.09914,304.75967,-4.29443,0.09912,1013.29657
2018.03.19 19:58:44,27.59972,16.46347,-21.58394,-0.21814,-0.04289,9.76549,-0.17163,-0.08856,0.09914,304.27661,-3.3377,0.53574,-0.17163
2018.03.19 19:58:44,27.14977,16.0881,-21.17176,-0.0697,0.94113,9.04483,-0.11304,0.08827,0.07889,303.66916,-2.4197,0.09774,-0.11304
2018.03.19 19:58:44,27.20604,16.70704,-20.36533,0.00691,0.80226,10.0049,-0.1972,0.11278,-0.01591,303.63699,-1.60921,-0.52376,-0.1972
2018.03.19 19:58:45,27.63729,16.89472,-20.66517,-0.0697,1.19971,9.23875,0.07445,0.15965,0.04375,303.58124,-1.58019,-1.09301,0.07445
2018.03.19 19:58:45,28.125,16.12587,-21.04034,0.14339,1.11111,10.7471,0.2321,-0.14182,0.07037,302.9437,-3.47703,-0.72685,0.2321
2018.03.19 19:58:45,27.56214,16.18195,-20.83378,-0.37137,-0.83058,11.80055,-0.4518,-0.11519,-0.38342,304.11682,-2.47179,-0.09342,-0.4518
2018.03.19 19:58:45,27.22473,17.43813,-20.98389,0.30858,-0.11711,8.47501,0.25661,0.0137,0.12364,304.896,-0.93645,0.27733,0.25661
2018.03.19 19:58:45,27.37484,16.89415,-20.89005,0.20802,-0.05965,9.03285,0.02544,0.08934,-0.20872,305.13925,-2.32469,-0.09123,1013.29462
2018.03.19 19:58:45,28.03116,17.32578,-21.62113,0.26549,0.73763,8.73598,-0.10452,0.06483,-0.13736,305.9014,-1.73457,-0.19289,1013.29468
2018.03.19 19:58:45,27.43092,18.09464,-21.3213,0.05,1.02731,9.39438,-0.12689,0.00519,-0.17357,306.75101,-1.17945,-0.27073,1013.2948
2018.03.19 19:58:45,27.74944,18.33839,-20.98408,0.27745,1.00577,10.31375,0.19482,-0.14182,0.01924,306.79471,-1.87196,0.19827,0.19482
2018.03.19 19:58:45,27.8059,18.31951,-21.04015,0.28943,0.23723,11.63297,0.08617,-0.12584,0.09807,306.39597,-2.98827,1.37782,0.08617
2018.03.19 19:58:46,28.03097,18.65711,-21.26522,0.24155,-0.81383,10.76865,-0.22702,-0.25793,0.03522,305.72888,-1.85318,2.45766,1013.29578
2018.03.19 19:58:46,27.84348,17.75703,-22.1653,-0.34503,-0.01656,8.04884,0.34396,0.01584,0.21205,304.43164,-3.17213,2.1424,1013.29614
2018.03.19 19:58:46,28.66859,17.83199,-21.69609,-0.07928,0.04091,9.32735,-0.02675,0.09148,0.05119,304.04834,-3.07479,1.62818,-0.02675
2018.03.19 19:58:46,29.43726,18.15071,-21.78993,-0.06252,0.71129,9.0161,-0.0193,0.12129,0.07677,303.5441,-2.98751,0.51332,-0.0193
2018.03.19 19:58:46,29.64344,17.36298,-21.75255,0.06438,1.05844,9.01849,-0.06616,0.10425,0.09274,303.01132,-2.92386,0.05965,-0.06616
2018.03.19 19:58:46,30.44987,17.56935,-21.3026,0.00452,0.96268,9.6362,0.02438,-0.05127,0.06079,302.53949,-2.90725,-0.14429,0.02438
2018.03.19 19:58:46,30.61867,17.53216,-21.17119,0.03804,0.39764,11.20918,0.20866,-0.15886,0.11192,301.99991,-3.95305,0.66097,1013.2959
2018.03.19 19:58:46,30.13096,18.46943,-21.86508,0.30139,-0.94551,11.32411,-0.67976,-0.11412,-0.3877,303.82306,-1.09803,2.19848,1013.29608
2018.03.19 19:58:46,30.24311,19.2194,-21.8277,0.82813,0.52454,9.3058,0.3056,0.02116,0.18542,303.62631,-0.70481,2.31648,0.3056
2018.03.19 19:58:47,31.53687,19.50054,-21.54636,0.36844,0.2085,9.41832,0.08403,0.14687,-0.23962,304.39328,-1.80346,1.54306,1013.29626
2018.03.19 19:58:47,32.15637,19.31343,-20.89024,0.4666,0.32343,9.01849,0.04782,0.10106,-0.18103,305.15869,-2.61101,0.08597,0.04782
2018.03.19 19:58:47,32.09991,20.10078,-20.57152,0.39238,0.68016,9.69844,-0.05978,-0.01932,-0.04254,305.42462,-2.4484,0.13177,1013.29578
2018.03.19 19:58:47,33.13122,20.51315,-20.94631,-0.17505,0.88367,9.78703,0.12877,-0.00441,0.12151,304.63403,-2.96942,0.31581,1013.29547
2018.03.19 19:58:47,33.89969,20.11929,-21.28391,0.18648,0.6179,11.9059,-0.07576,-0.0076,0.28343,302.86401,-3.70375,0.83889,-0.07576
2018.03.19 19:58:47,34.96857,19.42558,-21.34018,0.52646,-0.13866,10.35924,-0.27922,0.04567,0.12576,302.1051,-2.06419,0.66477,-0.27922
2018.03.19 19:58:47,35.99968,19.01302,-21.13419,-0.32588,-0.54327,9.38719,-0.03102,0.07549,0.06505,300.77246,-1.76593,-0.11646,1013.29553
2018.03.19 19:58:47,36.84349,18.95657,-20.98389,-0.16547,0.02415,9.84688,0.03397,-0.01825,0.06824,300.35339,-1.34758,0.28747,0.03397
2018.03.19 19:58:47,36.97491,18.8818,-20.68405,-0.08885,0.94592,9.06398,0.01585,0.03502,-0.04575,300.06824,-1.8022,0.11047,0.01585
2018.03.19 19:58:48,37.40616,19.29436,-20.55264,-0.10083,0.93394,9.2196,-0.04807,0.1458,-0.10646,300.56317,-1.74077,-0.43069,-0.04807
2018.03.19 19:58:48,38.15575,20.26958,-20.90912,-0.31392,0.60834,9.41353,0.09256,0.03821,-0.05746,301.09494,-2.11904,-1.20113,0.09256
2018.03.19 19:58:48,38.84964,19.96937,-21.26522,-0.15111,0.9124,10.16052,0.24489,-0.08536,0.10339,300.5918,-3.214,-0.93079,1013.29639
2018.03.19 19:58:48,38.96236,20.26939,-21.67759,-0.16307,-0.39005,10.55318,-0.53062,-0.09601,-0.15652,300.8606,-2.26511,-0.00433,1013.297
2018.03.19 19:58:48,39.29958,21.84448,-22.01519,0.08832,0.02415,9.49973,0.0574,-0.02997,-0.00206,301.44888,-0.52049,-0.01527,0.0574
2018.03.19 19:58:48,39.14967,22.29443,-22.38998,0.18169,-0.11711,9.59789,0.03503,-0.12904,-0.18636,302.48337,-1.13793,0.56128,0.03503
2018.03.19 19:58:48,39.31866,22.70699,-23.34633,0.30858,0.71368,8.67133,0.18523,-0.0076,-0.02124,302.63913,-1.77682,0.77227,0.18523
2018.03.19 19:58:48,39.26258,22.66941,-23.49644,0.27028,0.98901,9.25552,-0.00333,-0.00334,-0.13948,303.17529,-2.35737,0.67808,1013.29865
2018.03.19 19:58:48,39.16855,22.89429,-23.15865,0.25351,1.15181,9.87083,0.14688,0.0446,-0.01591,303.7243,-2.70226,0.57656,1013.29889
2018.03.19 19:58:49,39.16836,22.72587,-23.30875,0.00212,1.00098,11.18285,0.20227,-0.01718,0.06824,303.43631,-3.65671,0.57158,1013.29907
2018.03.19 19:58:49,39.61849,21.43192,-24.50886,0.2583,-0.79228,12.99286,-0.37936,0.0137,-0.00952,302.65002,-2.3638,0.26606,-0.37936
2018.03.19 19:58:49,39.61849,21.00048,-24.15257,-0.53418,0.19893,8.2739,0.36845,0.14154,0.26851,301.15143,-3.35638,-0.06707,0.36845
2018.03.19 19:58:49,39.95571,19.50054,-25.24014,-0.01463,0.0864,9.44705,0.0787,-0.10454,0.11511,300.49094,-3.84204,0.18758,1013.29987
2018.03.19 19:58:49,40.91225,18.58215,-25.6525,-0.05055,0.78311,8.66655,0.04887,0.02649,0.01711,299.72714,-4.05478,0.46434,1013.30017
2018.03.19 19:58:49,40.53726,18.20717,-25.59605,-0.20618,1.06563,8.76471,-0.12796,0.02542,-0.02657,299.50891,-3.62199,0.19213,-0.12796
2018.03.19 19:58:49,40.63072,18.3197,-25.01488,0.02846,1.0369,9.87561,-0.145,0.01265,0.01071,299.4704,-2.91785,0.02386,1013.30084
2018.03.19 19:58:49,40.51838,17.79442,-25.35267,0.15295,1.08238,10.39276,0.15434,0.03502,0.2014,298.47571,-3.29238,0.16371,0.15434
2018.03.19 19:58:49,40.70587,17.06314,-26.53408,-0.14153,-0.39484,11.32651,-0.5679,-0.0289,-0.15013,298.32846,-2.04593,0.94077,-0.5679
2018.03.19 19:58:49,40.94982,17.56935,-26.51501,0.6701,0.22047,9.56198,0.10533,0.08083,0.08421,298.01212,-0.58221,0.8556,0.10533
2018.03.19 19:58:50,41.13712,16.85696,-26.3464,0.15535,0.06006,9.41832,0.11067,0.03607,-0.25774,298.55707,-1.31427,0.52484,1013.30261
2018.03.19 19:58:50,40.85598,17.34447,-27.34032,0.11705,0.59875,8.69289,0.22998,0.10532,-0.13841,299.86014,-2.11378,0.24902,0.22998
2018.03.19 19:58:50,40.55595,16.21952,-27.7153,0.22957,0.7065,9.05679,0.09149,-0.01399,-0.05426,299.78531,-3.30043,0.10952,0.09149
2018.03.19 19:58:50,41.13731,16.4259,-27.65865,0.299,1.42955,9.25552,0.07552,0.03607,0.05652,299.19849,-3.59263,0.31645,0.07552
2018.03.19 19:58:50,41.60595,16.16344,-27.86503,0.10986,1.00577,11.51085,-0.00119,-0.07045,0.01392,298.93182,-3.79101,0.51729,1013.30341
2018.03.19 19:58:50,41.13712,15.63816,-27.71511,-0.04576,-0.80185,13.39989,-0.34633,-0.09068,-0.10646,298.4682,-2.18905,0.44258,1013.30402
2018.03.19 19:58:50,41.06236,14.888,-27.9213,-0.61079,-0.35892,8.50134,0.2598,0.00412,0.12364,297.2359,-2.83837,-0.22587,0.2598
2018.03.19 19:58:50,41.41865,13.03158,-28.22151,-0.09604,-0.05965,9.47339,0.10428,-0.12372,0.19501,296.31403,-3.25377,0.15059,0.10428
2018.03.19 19:58:50,41.45603,11.49464,-28.40881,-0.05055,0.52933,8.49655,0.02757,0.02435,0.1492,294.57709,-3.44363,0.41687,0.02757
2018.03.19 19:58:51,41.28704,10.38837,-29.32758,0.06198,1.35294,9.2244,-0.08534,0.01158,0.09167,293.36447,-3.14269,0.5534,-0.08534
2018.03.19 19:58:51,41.45584,9.88197,-29.08382,-0.03618,1.47025,9.71761,-0.11517,0.15433,-0.03189,292.72571,-2.80915,-0.05536,1013.30676
2018.03.19 19:58:51,41.60576,10.03208,-29.19674,0.22478,1.159,10.85005,0.21931,-0.1088,0.05333,292.49146,-3.78649,0.01241,0.21931
2018.03.19 19:58:51,40.8371,9.07555,-29.77772,-0.22054,-0.11472,10.44064,-0.2249,-0.05659,-0.21619,292.40518,-4.63829,0.82411,-0.2249
2018.03.19 19:58:51,40.06824,10.0132,-30.77164,0.84248,-0.41638,10.93146,-0.03954,-0.11305,-0.04361,293.11987,-2.72601,1.7256,-0.03954
2018.03.19 19:58:51,39.63699,10.44464,-30.92175,0.14816,0.33061,8.78625,0.13623,0.15538,-0.22044,293.39185,-3.21922,1.14671,0.13623
2018.03.19 19:58:51,40.29331,11.68175,-30.94025,0.21761,0.96268,8.35291,0.11493,0.15326,-0.16931,294.86053,-3.51456,0.52058,0.11493
2018.03.19 19:58:51,39.88132,12.2818,-30.58414,0.31097,0.8286,8.98018,-0.04167,0.00198,-0.15759,295.51776,-3.75216,-0.02277,-0.04167
2018.03.19 19:58:51,39.28089,12.61959,-31.27785,0.40674,1.73601,9.90195,-0.00333,-0.11519,0.06184,295.16629,-3.65194,0.56485,-0.00333
2018.03.19 19:58:52,39.26239,12.05692,-31.65283,0.25591,1.45349,10.61304,0.22252,0.05418,0.15559,294.16907,-4.90268,0.83355,0.22252
2018.03.19 19:58:52,38.64365,11.02562,-31.72779,-0.08408,0.76874,11.9442,0.04143,0.25446,0.30792,292.79657,-5.54382,0.20005,1013.31287
2018.03.19 19:58:52,38.94329,10.66933,-31.7091,-0.19659,0.14146,9.79182,0.16499,0.01691,0.03842,292.44739,-4.42845,0.46424,0.16499
2018.03.19 19:58:52,38.36212,10.57568,-31.99024,-0.51263,-0.41638,8.894,-0.05978,-0.04062,-0.17357,292.62128,-4.78196,-0.2307,-0.05978
2018.03.19 19:58:52,37.61234,10.70671,-31.93417,-0.43842,-0.30864,9.1358,-0.08427,-0.01292,-0.14694,293.15616,-4.35689,-0.27358,1013.31476
2018.03.19 19:58:52,37.25624,10.98824,-31.87771,-0.02661,0.80226,9.59071,-0.08002,-0.00974,0.13002,292.17252,-3.71922,-0.0367,-0.08002
2018.03.19 19:58:52,36.95602,10.98843,-32.02763,-0.04576,1.30266,8.84372,-0.05551,0.07016,0.03308,291.36816,-3.70846,-0.39155,-0.05551
2018.03.19 19:58:52,36.73077,10.61306,-31.95286,-0.25166,1.38884,10.0049,-0.10239,0.03714,-0.05959,291.22534,-3.32255,-0.79039,-0.10239
2018.03.19 19:58:52,35.68077,10.59456,-31.99062,0.10268,1.32181,11.47255,0.04143,-0.02783,0.13962,290.96539,-3.70366,-0.5359,0.04143
2018.03.19 19:58:53,34.5747,10.40707,-31.76537,-0.2804,0.23962,10.17729,-0.02782,0.08083,0.06612,290.39923,-4.21066,0.38821,1013.31714
2018.03.19 19:58:53,33.50582,10.05077,-32.21512,0.58391,-0.51694,10.55318,0.01266,0.04779,-0.11818,290.83478,-4.02022,0.77788,0.01266
2018.03.19 19:58:53,33.18729,10.78186,-31.84032,0.24872,-0.0764,9.61465,0.03078,0.16284,-0.29288,291.83356,-4.07788,-0.06557,0.03078
2018.03.19 19:58:53,33.56209,11.49464,-31.03428,0.32056,0.36652,9.05919,0.01479,-0.14821,-0.08302,292.7641,-3.33612,0.1265,0.01479
2018.03.19 19:58:53,32.26833,12.31956,-30.71556,0.20563,0.85254,8.71443,0.0574,0.02969,-0.04147,292.90338,-3.7935,-0.03884,0.0574
2018.03.19 19:58:53,31.72455,12.41341,-30.71537,0.0117,1.47983,9.15497,0.01266,0.05739,0.01498,293.05426,-3.88932,-0.19254,0.01266
2018.03.19 19:58:53,32.04346,11.08189,-30.65872,0.29182,1.5708,10.71359,0.18097,-0.06831,0.15985,292.27301,-5.0458,-0.01072,0.18097
2018.03.19 19:58:53,30.9185,9.73186,-29.72126,0.40674,1.42715,11.48213,-0.02463,0.07869,0.20566,291.11414,-5.76062,-0.5027,-0.02463
2018.03.19 19:58:53,30.71213,9.69429,-29.94671,0.14339,-0.54088,11.42706,-0.29094,-0.02678,0.04161,290.73785,-4.48037,-0.41939,1013.32043
2018.03.19 19:58:54,29.99992,9.58176,-29.57153,-0.55093,0.15582,8.72879,0.17351,0.04674,0.16731,289.63559,-4.50228,-0.04511,0.17351
2018.03.19 19:58:54,30.00011,8.75683,-29.14009,-0.26842,0.02893,9.24594,0.04782,-0.09921,0.16411,288.72803,-4.84018,0.03518,0.04782
2018.03.19 19:58:54,29.8687,8.15678,-29.3087,-0.23012,1.12309,8.46782,0.03503,0.09787,0.12469,287.95422,-4.76417,0.16619,0.03503
2018.03.19 19:58:54,29.96254,8.21304,-29.3087,-0.21814,1.43433,9.51888,-0.1631,-0.02145,0.00539,287.92242,-4.35609,0.05302,1013.32043
2018.03.19 19:58:54,29.36249,8.75702,-29.17767,0.0117,1.21646,10.00969,-0.24088,-0.0076,-0.18954,289.02719,-2.75661,-0.31388,-0.24088
2018.03.19 19:58:54,29.45614,10.01301,-29.27151,0.02606,0.93634,10.30658,0.0329,-0.18976,-0.1544,290.26373,-3.20821,0.19265,0.0329
2018.03.19 19:58:54,29.1748,10.72559,-29.14028,0.30379,0.11752,11.62099,-0.1972,-0.23024,-0.15546,291.2605,-2.65278,1.89077,1013.3208
2018.03.19 19:58:54,28.03116,11.43837,-29.34666,0.52406,-0.05246,10.10545,-0.02888,-0.02039,-0.04147,291.49435,-2.24263,2.21323,1013.32098
2018.03.19 19:58:54,28.36857,12.33826,-30.02148,0.39238,0.11273,9.02568,0.11279,0.1458,-0.13203,291.94879,-3.00664,1.35693,0.11279
2018.03.19 19:58:55,28.93105,12.39452,-29.9654,0.50012,1.25238,8.54443,0.16606,0.07123,0.05972,292.13702,-4.02663,0.92934,0.16606
2018.03.19 19:58:55,28.53737,12.48837,-29.75903,0.44505,1.2021,9.07835,-0.05765,0.09467,-0.10753,293.09204,-4.10622,0.61279,-0.05765
2018.03.19 19:58:55,29.28715,13.65089,-29.23374,0.33012,1.66417,9.55959,0.06059,0.08188,0.01071,293.52707,-4.15004,0.55405,1013.32111
2018.03.19 19:58:55,30.0745,13.89446,-29.92744,0.07634,1.44391,11.09427,0.12772,-0.02039,0.1279,293.71341,-4.9551,0.62487,1013.32123
2018.03.19 19:58:55,29.56829,13.44452,-29.59023,0.1745,-0.76115,12.72472,-0.3506,-0.20787,-0.11179,293.23877,-3.63088,0.89841,-0.3506
2018.03.19 19:58:55,29.56829,14.60724,-29.21524,-0.43842,0.03851,8.34332,0.17564,0.16284,0.21631,292.64346,-3.75591,0.72242,1013.32208
2018.03.19 19:58:55,30.05581,14.34441,-30.07774,0.02846,0.06725,9.72717,-0.06084,-0.12477,0.15773,291.66595,-3.89373,0.80273,1013.32251
2018.03.19 19:58:55,30.37472,14.17599,-29.49657,0.04521,0.67297,9.31776,0.02757,0.02756,0.10979,291.36145,-3.45867,0.92688,0.02757
2018.03.19 19:58:55,30.67493,14.77585,-29.44031,0.0524,1.67615,9.00652,-0.01184,0.11171,0.01817,291.10925,-3.65125,0.23578,-0.01184
2018.03.19 19:58:56,31.2746,15.20691,-29.14028,0.18408,1.42955,10.14856,-0.05765,0.10745,-0.08516,292.17407,-3.64222,-0.32189,-0.05765
2018.03.19 19:58:56,31.74324,15.18803,-29.14009,-0.02661,1.3625,10.1749,0.24063,-0.05873,0.06398,292.62344,-5.15286,-0.21306,0.24063
2018.03.19 19:58:56,31.38733,15.60078,-29.66518,-0.22054,-0.63426,11.74548,-0.57217,-0.21213,-0.31845,293.8002,-3.72019,1.35713,1013.32446
2018.03.19 19:58:56,30.99365,17.51347,-29.94671,0.64137,-0.11951,10.11743,0.20441,-0.06725,0.09488,293.64398,-3.21804,1.94926,1013.32526
2018.03.19 19:58:56,31.18095,17.98191,-30.22785,0.10747,0.23483,8.78865,0.1373,0.10425,-0.1299,294.07306,-3.99395,1.35677,0.1373
2018.03.19 19:58:56,31.18095,17.77573,-30.19009,0.4642,1.42955,8.81499,0.09361,0.07976,0.14069,294.23834,-4.34184,0.80343,0.09361
2018.03.19 19:58:56,31.68716,17.92564,-29.81529,0.49294,1.22604,9.47099,-0.12901,-0.0502,-0.04681,295.01709,-4.17411,0.92804,-0.12901
2018.03.19 19:58:56,31.83708,17.83218,-30.13401,0.5504,1.29787,10.12939,0.09789,-0.06192,0.11618,295.35037,-4.30634,1.10068,0.09789
2018.03.19 19:58:56,31.72474,17.41962,-29.459,0.0117,1.20927,11.17567,0.15541,0.04034,0.20992,294.74417,-5.02766,1.22207,1013.32642
2018.03.19 19:58:57,32.62482,17.41943,-29.49657,0.08353,-0.12669,11.75267,-0.31438,-0.01292,0.05333,293.95764,-3.69443,1.01273,-0.31438
2018.03.19 19:58:57,32.6622,16.36963,-29.02775,-0.30913,-0.0764,9.21242,0.2417,-0.05873,0.14601,292.41232,-5.067,0.63903,0.2417
2018.03.19 19:58:57,33.28075,15.16953,-29.15897,0.29662,0.6203,8.83174,0.13304,0.00519,0.10339,292.40756,-5.13259,1.12494,0.13304
2018.03.19 19:58:57,33.07457,14.92558,-28.84026,0.24632,0.80226,8.88681,-0.15033,-0.03743,-0.15973,292.23865,-5.55729,0.88919,-0.15033
2018.03.19 19:58:57,32.96223,15.37552,-28.48396,0.02127,1.1183,9.64577,-0.19293,-0.00974,-0.12032,293.62103,-4.43817,1.02314,-0.19293
2018.03.19 19:58:57,33.71239,15.30075,-28.27759,0.14577,1.35771,10.14616,0.15327,-0.04915,0.07463,293.93628,-4.69416,1.07698,0.15327
2018.03.19 19:58:57,33.37498,14.51321,-28.23982,0.37323,1.43912,11.8221,0.15009,-0.13116,0.08102,293.67041,-5.50002,1.40772,0.15009
2018.03.19 19:58:57,34.06887,15.24429,-27.80857,0.24155,-0.31822,10.68965,-0.3506,0.03821,-0.31631,295.14267,-3.69136,1.52487,1013.32599
2018.03.19 19:58:57,34.76257,16.81957,-27.54631,0.28703,0.48862,8.8054,0.15541,0.05844,-0.08623,295.58118,-3.99169,1.00234,1013.32623
2018.03.19 19:58:58,35.11848,17.62562,-27.95887,-0.12477,0.49341,9.37762,-0.10345,0.05099,-0.29288,297.40323,-3.56863,0.4761,1013.32617
2018.03.19 19:58:58,35.88696,19.05041,-26.42117,0.30139,1.04408,8.90836,0.10321,0.17563,-0.06279,297.8309,-3.89486,-0.3205,0.10321
2018.03.19 19:58:58,37.42428,19.66934,-25.44632,0.1769,1.33377,9.35129,0.00307,0.06058,-0.07983,298.58582,-4.36554,-1.03673,0.00307
2018.03.19 19:58:58,37.10575,19.53831,-25.25864,0.30618,1.23801,10.41191,0.14369,-0.09175,0.16624,297.98779,-5.31992,-0.71929,0.14369
2018.03.19 19:58:58,37.8933,18.71319,-25.50259,-0.00984,1.05125,11.58508,-0.16631,0.12875,0.06291,297.03494,-5.59477,-0.64626,-0.16631
2018.03.19 19:58:58,39.74972,20.06321,-25.22125,-0.39771,-0.15302,9.62901,-0.19293,-0.05873,-0.07877,297.41608,-4.41495,-0.47472,1013.32703
2018.03.19 19:58:58,40.4808,20.62569,-25.59605,-0.53418,0.23006,7.9411,0.12772,-0.08856,0.18542,296.40689,-5.49881,0.38932,0.12772
2018.03.19 19:58:58,41.56818,19.85703,-25.69027,0.01888,0.17738,10.28502,-0.145,-0.09496,-0.02124,296.0658,-4.69634,1.81878,1013.32733
2018.03.19 19:58:58,42.61818,19.70692,-25.84019,-0.02901,1.46545,8.32896,-0.0097,0.15433,0.01178,296.09311,-4.69551,0.782,-0.0097
2018.03.19 19:58:59,42.99335,20.56961,-24.80888,0.1338,1.43672,10.39755,-0.23767,-0.00546,-0.05852,296.34818,-3.95859,0.51051,-0.23767
2018.03.19 19:58:59,43.93101,21.07582,-23.68393,-0.04337,1.53011,9.73196,0.02864,-0.09814,0.03522,296.49384,-3.42832,0.14536,0.02864
2018.03.19 19:58:59,44.2873,20.51296,-23.94638,0.20323,1.06084,11.3289,0.12344,-0.19722,0.03522,296.29736,-4.47035,1.33797,0.12344
2018.03.19 19:58:59,44.23103,19.66915,-24.20902,-0.01942,0.27554,9.81816,-0.16631,0.02756,-0.21193,297.06418,-3.83028,1.41799,1013.32788
2018.03.19 19:58:59,44.51218,20.17555,-23.5527,0.75391,0.22047,10.61542,0.09575,0.00945,-0.09367,297.8905,-3.57382,1.19466,1013.32806
2018.03.19 19:58:59,44.62471,20.86945,-23.64655,0.31577,0.68256,8.69528,0.12344,-0.01718,-0.10966,298.82074,-3.7444,1.46226,1013.32831
2018.03.19 19:58:59,44.2873,20.53185,-23.3654,0.22,0.86212,8.75992,0.0361,0.05739,-0.06918,298.94928,-4.89394,1.04087,0.0361
2018.03.19 19:58:59,43.6306,19.87553,-22.87769,0.40913,1.0369,9.75591,-0.11197,-0.06725,-0.09581,299.25076,-4.37764,1.17628,1013.32831
2018.03.19 19:58:59,43.18104,19.9316,-22.44663,0.32056,0.9962,9.85646,0.13197,0.09041,0.05226,299.16776,-4.89643,0.96379,1013.32849
2018.03.19 19:58:59,42.61856,18.15052,-22.01519,0.01648,1.31223,11.17805,-0.14287,0.24699,0.09914,298.10507,-5.82967,0.81236,-0.14287
2018.03.19 19:59:00,42.82494,18.15071,-21.134,0.05479,0.54608,10.11743,0.26086,-0.23875,0.14813,298.13037,-5.04423,1.20931,0.26086
2018.03.19 19:59:00,42.28096,17.55085,-21.9965,-0.05774,-0.17458,9.5117,0.09575,-0.05447,0.10339,297.18622,-5.67431,1.25381,0.09575
2018.03.19 19:59:00,41.13712,16.12587,-22.44625,0.25351,0.41679,9.6769,-0.02675,-0.11839,0.097,296.30243,-5.4128,1.57136,-0.02675
2018.03.19 19:59:00,40.55576,14.92596,-23.08407,0.08592,1.10872,8.9299,-0.01077,0.06378,0.00539,295.96442,-4.82269,1.41203,-0.01077
2018.03.19 19:59:00,39.89944,14.26983,-22.80235,0.37083,0.93634,9.48537,-0.13008,0.12129,-0.05214,295.92749,-4.48286,0.83476,1013.32959
2018.03.19 19:59:00,39.31847,14.81323,-21.86508,0.26549,1.6546,10.0504,0.06805,-0.02678,0.00859,295.92419,-4.7383,0.93468,0.06805
2018.03.19 19:59:00,38.66234,15.13195,-22.65282,0.62462,1.40321,11.53481,0.19589,-0.23557,0.04268,295.34784,-6.06909,2.01409,0.19589
2018.03.19 19:59:00,37.46223,15.75069,-22.95284,0.12422,-0.07162,10.5843,-0.4731,0.17349,-0.31099,296.7066,-4.49704,2.04457,-0.4731
2018.03.19 19:59:00,36.48739,16.85696,-22.35279,0.48335,0.00021,9.32495,0.08936,0.0723,-0.14587,298.03458,-3.12291,1.14532,1013.3313
2018.03.19 19:59:01,36.46832,18.09464,-22.61524,0.02367,0.52214,8.94188,0.04036,0.03821,-0.10753,299.10648,-3.42988,0.60956,1013.33167
2018.03.19 19:59:01,35.9621,17.6445,-23.08388,0.33012,1.27153,8.69289,0.07977,0.02863,0.08102,298.69666,-4.08477,0.44168,0.07977
2018.03.19 19:59:01,35.38113,17.70077,-23.55251,0.4642,1.35294,9.45424,-0.05978,-0.07045,-0.05852,298.95712,-4.06375,0.7195,-0.05978
2018.03.19 19:59:01,35.00595,18.30082,-23.81535,0.24632,1.38884,10.48853,0.1586,0.04247,-0.0255,299.51999,-4.4325,0.72189,0.1586
2018.03.19 19:59:01,34.53732,18.33858,-24.77169,0.27985,1.40082,11.00328,0.16606,0.06165,0.20992,298.99728,-5.69419,0.52808,0.16606
2018.03.19 19:59:01,33.88119,18.22586,-25.22144,0.03564,-0.27513,11.01286,-0.28029,-0.00653,0.00752,298.6738,-4.81417,0.56757,1013.33191
2018.03.19 19:59:01,34.18102,18.13183,-25.39005,-0.39293,-0.08598,8.35051,0.25554,0.09573,0.16518,297.87427,-5.38433,0.05488,0.25554
2018.03.19 19:59:01,35.47497,18.03837,-26.3649,-0.01703,0.12471,9.65775,-0.09706,0.00519,0.03947,297.66876,-4.82085,0.57773,-0.09706
2018.03.19 19:59:01,35.53104,17.79461,-26.45893,0.09071,1.10632,8.47021,-0.04274,0.04353,0.09807,297.11594,-4.57608,0.33029,1013.33197
2018.03.19 19:59:02,35.68096,18.45093,-26.25256,0.02846,1.3649,9.65535,-0.16524,-0.05234,0.00327,297.15048,-3.98822,0.60245,1013.33197
2018.03.19 19:59:02,35.04333,18.65692,-26.64623,-0.05774,1.33377,9.99773,0.00414,-0.02357,-0.06598,297.8002,-3.56083,0.45846,1013.33179
2018.03.19 19:59:02,35.58731,19.27547,-26.72119,0.21521,1.61151,10.19644,0.30348,0.04567,0.05119,298.19867,-4.70822,0.57422,0.30348
2018.03.19 19:59:02,35.66227,19.23847,-27.30236,-0.51982,-0.3302,10.94104,-0.42303,-0.06938,-0.25667,299.49097,-3.58294,0.41595,-0.42303
2018.03.19 19:59:02,35.08091,20.56942,-27.88372,0.48096,0.27075,9.22919,0.22571,0.11597,0.13641,299.17184,-2.71617,0.95154,0.22571
2018.03.19 19:59:02,35.69965,19.78188,-28.33366,0.08353,0.28511,8.55881,0.14049,0.04567,-0.08195,299.35135,-3.51261,0.70477,1013.33118
2018.03.19 19:59:02,36.48701,20.19444,-28.67146,0.42828,1.46545,8.20207,0.11493,0.15645,0.03522,299.37796,-4.35159,-0.12594,0.11493
2018.03.19 19:59:02,36.33728,20.21313,-28.33385,0.33731,0.96268,9.53804,-0.23767,-0.02997,-0.24814,300.84476,-3.46329,5e-05,-0.23767
2018.03.19 19:59:02,36.74984,21.43192,-28.37124,0.37083,1.1207,10.01688,0.0361,0.01584,-0.07024,301.29572,-3.58696,0.236,0.0361
2018.03.19 19:59:03,36.50608,21.95702,-28.63388,0.18648,1.4894,11.21877,0.17139,-0.14928,0.07037,301.23669,-4.88495,0.46466,0.17139
2018.03.19 19:59:03,36.35597,21.93832,-28.97148,0.05719,-0.55765,12.7343,-0.36551,-0.09496,-0.1086,301.3714,-2.96451,0.6862,-0.36551
2018.03.19 19:59:03,37.12444,22.5193,-28.72753,-0.78796,0.09358,7.95546,0.26726,0.06804,0.13002,301.26746,-2.95298,0.64739,0.26726
2018.03.19 19:59:03,37.7058,21.01936,-29.66518,-0.06731,-0.14824,10.30896,0.05847,-0.10986,0.1769,300.03159,-3.95044,0.64615,0.05847
2018.03.19 19:59:03,38.11836,20.70065,-29.96502,-0.20857,0.57961,8.64738,0.02757,0.14047,0.06824,299.29797,-4.01046,0.32156,0.02757
2018.03.19 19:59:03,38.71822,20.68214,-29.68388,-0.05534,1.26913,9.21721,-0.02888,0.04247,0.12044,299.0177,-3.84041,0.16247,-0.02888
2018.03.19 19:59:03,39.03675,19.7258,-28.91502,0.09309,1.51573,9.55959,-0.06616,0.03607,0.048,298.81485,-3.39253,-0.03914,1013.3291
2018.03.19 19:59:03,39.20555,19.57569,-28.55873,0.08353,1.31702,10.27306,0.24489,-0.11519,0.13429,298.46143,-4.32034,0.32881,0.24489
2018.03.19 19:59:03,39.16836,18.86292,-28.7653,0.12662,-0.22246,11.06314,-0.05765,-0.25687,-0.1022,298.53226,-4.77075,1.16314,-0.05765
2018.03.19 19:59:04,38.3812,20.23163,-29.34647,0.52884,-0.46666,10.8333,-0.23341,-0.08963,-0.07024,300.08008,-2.1148,1.64361,-0.23341
2018.03.19 19:59:04,38.92479,20.6255,-29.14009,0.59109,-0.08598,9.41832,0.11493,0.09787,-0.2066,300.15005,-2.81564,1.58168,0.11493
2018.03.19 19:59:04,38.53073,21.18835,-28.55873,0.24394,0.98422,8.6019,0.05634,0.06378,-0.04787,301.13113,-2.70536,0.97949,0.05634
2018.03.19 19:59:04,38.4182,22.21947,-28.35255,0.43068,0.9483,9.52846,0.04462,-0.0076,-0.05319,301.3887,-3.16942,0.796,1013.32831
2018.03.19 19:59:04,38.71841,21.78841,-28.2589,0.52646,1.36729,9.58353,0.04675,-0.00546,0.0022,301.70987,-3.4961,0.74782,0.04675
2018.03.19 19:59:04,39.22462,21.13209,-28.31497,0.38519,1.02492,10.73753,0.16286,-0.05447,0.10233,301.07468,-4.70225,0.92016,0.16286
2018.03.19 19:59:04,39.82468,20.47577,-27.69604,-0.02422,-0.27034,11.86758,-0.27922,-0.01399,0.06824,299.95691,-4.49061,0.58863,-0.27922
2018.03.19 19:59:04,40.70587,20.25051,-26.77746,-0.47911,0.11034,9.15018,0.116,0.07549,0.17583,299.26718,-3.86146,0.3591,0.116
2018.03.19 19:59:04,40.91244,19.93179,-26.42117,-0.31152,-0.49539,9.77505,-0.11836,-0.04915,0.06717,298.83032,-3.41639,0.39535,-0.11836
2018.03.19 19:59:05,40.27462,20.02563,-26.58997,0.10507,0.23483,9.26509,-0.03635,0.03714,0.19075,297.61584,-2.58696,0.44704,1013.3269
2018.03.19 19:59:05,40.89336,19.66934,-26.27144,0.1362,0.77832,9.33214,-0.09067,0.02116,0.05547,296.63077,-2.56388,0.16802,-0.09067
2018.03.19 19:59:05,41.24966,19.70692,-25.9901,0.12901,1.38405,9.77745,-0.17696,0.08295,-0.02124,296.63297,-1.87918,-0.31689,1013.32568
2018.03.19 19:59:05,41.36219,19.65065,-25.63381,-0.0697,1.39603,10.05518,0.10428,-0.09175,-0.01805,297.16406,-1.78203,-0.31357,1013.32495
2018.03.19 19:59:05,41.69979,19.74449,-25.53997,0.26549,1.28349,11.66647,0.27579,-0.12477,0.15985,296.56998,-3.73897,0.65175,0.27579
2018.03.19 19:59:05,40.85579,20.11929,-25.72765,0.01648,-1.1107,9.91872,-0.10878,-0.08003,-0.37491,298.7489,-2.97344,1.28609,-0.10878
2018.03.19 19:59:05,40.16228,21.37547,-26.40247,0.1386,-0.23921,9.20045,0.16925,-0.04915,-0.11711,299.26407,-3.52166,1.51679,1013.32306
2018.03.19 19:59:05,40.59315,23.32535,-25.67139,0.14816,0.58917,8.90836,-0.06511,0.02969,-0.09474,300.50522,-3.02474,1.22708,1013.3222
2018.03.19 19:59:05,40.6868,23.51303,-25.1461,0.57912,0.91719,9.35847,-0.07895,-0.0076,-0.00313,300.30005,-2.9586,0.69985,-0.07895
2018.03.19 19:59:06,40.93075,23.83175,-24.58363,0.5504,0.83099,9.94745,-0.12901,0.02969,-0.08516,300.74509,-2.43185,0.64599,-0.12901
2018.03.19 19:59:06,41.26854,24.33796,-24.2836,0.22717,1.14703,9.91872,0.16925,0.04779,0.04907,300.71933,-3.18692,0.64533,0.16925
2018.03.19 19:59:06,41.23096,24.03831,-24.6212,0.28943,0.57721,10.8333,0.17671,0.15112,0.22163,299.99753,-4.53489,0.25186,1013.32031
2018.03.19 19:59:06,42.50603,23.86932,-24.09649,-0.06252,-0.6989,11.47974,-0.23341,-0.02145,-0.04468,299.32208,-2.93395,-0.24819,-0.23341
2018.03.19 19:59:06,42.99335,23.64464,-22.76497,-0.79515,-0.00458,8.01292,0.13516,0.07762,0.1524,298.62256,-3.23796,-0.45654,0.13516
2018.03.19 19:59:06,42.88082,23.0072,-23.25268,-0.04097,-0.47624,9.88998,-0.06404,-0.11305,0.02776,298.28836,-3.07398,-0.26508,-0.06404
2018.03.19 19:59:06,43.83717,23.77586,-23.40279,-0.12477,0.084,9.19327,-0.07576,0.05099,-0.05319,298.70435,-2.25068,-0.09375,-0.07576
2018.03.19 19:59:06,44.58694,23.94447,-23.08426,-0.17744,0.86212,9.31297,-0.03207,-0.01718,0.07889,298.11307,-2.32833,-0.25157,-0.03207
2018.03.19 19:59:06,44.62471,23.66314,-22.91508,-0.0314,1.34096,9.74872,-0.06616,-0.01399,-0.00633,298.16772,-2.18286,-0.16935,1013.31903
2018.03.19 19:59:07,45.6562,23.4005,-22.61486,-0.10802,1.31941,9.77745,0.10854,0.01477,-0.08302,298.74893,-2.70641,-0.32584,0.10854
2018.03.19 19:59:07,46.25587,23.51303,-22.8775,0.27028,0.97704,11.23792,0.0851,-0.08217,0.04694,298.65201,-3.85394,0.41995,0.0851
2018.03.19 19:59:07,47.04361,22.98794,-23.60878,0.55518,-0.76595,11.95139,-0.34207,-0.20894,-0.15759,299.43597,-2.09118,1.85115,1013.31879
2018.03.19 19:59:07,47.11857,23.49415,-23.96545,0.58391,-0.01416,8.62105,0.19162,0.13196,-0.00739,299.23151,-2.49795,1.78033,1013.31891
2018.03.19 19:59:07,47.49355,23.13805,-24.19033,0.34927,0.74002,8.66415,0.00734,-0.00334,-0.09474,300.02576,-2.60098,1.7974,0.00734
2018.03.19 19:59:07,48.03753,21.60072,-24.32175,0.43068,1.05605,9.11905,-0.03847,0.04674,-0.10007,299.97446,-2.98075,1.38563,-0.03847
2018.03.19 19:59:07,48.41251,21.50707,-23.74039,0.34689,1.00816,9.44226,-0.04167,0.10745,-0.08835,300.28302,-2.7206,0.76033,-0.04167
2018.03.19 19:59:07,48.71235,20.86983,-22.37167,0.21042,1.36011,10.29939,0.23636,0.07655,0.14388,299.59503,-3.74634,0.61244,1013.31836
2018.03.19 19:59:07,48.86246,17.94453,-22.37148,-0.11998,0.93155,11.90111,-0.08855,0.12556,0.09593,298.3627,-4.57594,0.15831,1013.31854
2018.03.19 19:59:08,48.84338,17.21344,-22.46494,-0.35941,0.01218,8.53487,0.12132,0.23102,0.21419,297.43967,-3.29637,-0.06244,0.12132
2018.03.19 19:59:08,49.42474,15.52582,-21.60263,-0.16307,0.09119,9.42311,0.0265,-0.08643,0.12683,295.53204,-4.44545,-0.30083,0.0265
2018.03.19 19:59:08,48.65608,13.53817,-22.69001,-0.25885,0.48145,8.76231,-0.09599,-0.02251,-0.04681,295.34348,-3.99101,0.11067,1013.31927
2018.03.19 19:59:08,49.08733,13.18188,-22.25914,-0.21814,1.07042,9.44466,-0.10664,-0.0289,0.01392,294.63232,-3.7002,-0.36008,1013.31915
2018.03.19 19:59:08,48.69366,12.48779,-21.90304,0.05959,1.21646,10.16771,-0.04807,0.04247,-0.00633,294.3541,-3.15399,-0.33747,-0.04807
2018.03.19 19:59:08,47.62478,11.7569,-21.67759,0.29182,1.00098,10.5029,0.2907,-0.18443,0.12576,293.14288,-4.86148,0.27651,0.2907
2018.03.19 19:59:08,46.40636,11.02581,-23.06499,0.44745,-0.26076,11.77182,-0.09706,-0.22385,-0.14268,293.25,-5.12933,1.27792,-0.09706
2018.03.19 19:59:08,44.79389,11.96327,-23.92769,0.70123,-0.35175,10.42149,-0.06084,-0.10135,-0.16185,294.77887,-3.37838,2.35035,-0.06084
2018.03.19 19:59:08,43.89362,13.23814,-24.20883,0.299,0.45511,8.69528,0.02757,0.08188,-0.18422,295.31,-3.82779,2.09768,0.02757
2018.03.19 19:59:09,43.10608,14.06326,-24.48997,0.32295,0.99858,8.68091,0.01692,0.0968,0.05013,295.32532,-3.7415,1.64175,0.01692
2018.03.19 19:59:09,42.58118,13.76324,-24.17164,0.67729,1.00337,9.32256,-0.07362,0.01265,-0.03189,295.09729,-3.64491,1.62294,-0.07362
2018.03.19 19:59:09,42.82494,13.65089,-24.11518,0.38519,1.75276,9.4686,0.00734,0.08615,0.06612,294.66156,-3.4562,1.21066,1013.31818
2018.03.19 19:59:09,41.85009,13.21945,-24.45259,0.53363,1.2428,11.03201,0.12984,-0.00974,0.23335,293.22464,-4.25666,1.99007,1013.31787
2018.03.19 19:59:09,41.38069,12.43191,-24.69635,0.56715,-0.67496,12.41826,-0.15033,-0.06831,-0.10539,292.12708,-4.42019,2.01842,-0.15033
2018.03.19 19:59:09,41.38069,12.46948,-25.29678,-0.38335,0.24202,8.38403,0.22571,-0.01186,0.07144,291.60052,-5.56549,1.81892,0.22571
2018.03.19 19:59:09,41.68091,11.7569,-26.04656,0.0117,0.31624,9.71521,-0.0992,-0.07578,-0.03722,291.57764,-5.10027,1.97357,-0.0992
2018.03.19 19:59:09,41.47453,12.18796,-25.76504,-0.14632,1.02492,8.70245,0.00095,0.1458,0.00752,291.52539,-4.74211,1.18187,0.00095
2018.03.19 19:59:09,41.75606,12.60033,-24.77112,-0.10802,1.46785,9.57155,-0.1205,0.05312,0.04907,291.13776,-4.33176,0.70586,-0.1205
2018.03.19 19:59:10,41.62464,12.97531,-24.63989,0.05959,1.49658,9.68648,0.12451,0.04779,0.08635,290.52332,-4.47797,0.33409,0.12451
2018.03.19 19:59:10,40.87448,12.75043,-24.94011,0.19844,1.4846,11.0416,0.28004,-0.07578,0.18649,289.72913,-5.86581,0.64681,0.28004
2018.03.19 19:59:10,40.94963,12.41283,-25.4837,-0.00507,-0.82579,11.54437,-0.3261,-0.10773,-0.31206,291.1062,-4.56659,1.3126,1013.315
2018.03.19 19:59:10,41.11843,13.31291,-25.91476,0.35886,0.24681,8.55402,0.15221,0.14368,-0.05426,290.9057,-4.89478,1.03909,1013.315
2018.03.19 19:59:10,41.30611,14.11934,-26.38378,0.00452,0.60594,8.86526,-0.17589,0.00519,-0.16185,291.96582,-4.13452,0.6536,-0.17589
2018.03.19 19:59:10,41.6996,15.13214,-26.83372,0.38998,1.05605,9.31537,-0.04274,0.01158,0.06717,291.80438,-3.8825,0.5271,-0.04274
2018.03.19 19:59:10,42.01851,15.31944,-26.79596,0.31097,1.26913,9.83731,-0.03314,0.02863,-0.04681,292.1189,-3.70202,0.4933,-0.03314
2018.03.19 19:59:10,42.3748,14.77566,-26.81503,0.43068,1.80544,10.25629,0.1799,-0.03423,0.16092,291.34799,-4.28605,-0.201,0.1799
2018.03.19 19:59:10,42.44976,14.45713,-25.50259,0.1721,1.38405,11.17805,0.08403,-0.04808,0.06398,291.08066,-4.90194,0.04271,1013.31464
2018.03.19 19:59:11,42.07478,14.8695,-25.50259,0.07874,-0.52892,11.5755,-0.12263,-0.13649,-0.00206,290.95093,-3.60248,1.03253,-0.12263
2018.03.19 19:59:11,42.69352,12.97569,-26.60885,-0.38335,0.0481,8.64499,0.11919,0.04247,0.15985,289.1745,-4.71485,0.78202,0.11919
2018.03.19 19:59:11,43.21861,11.26938,-26.62735,-0.03857,0.51256,9.2244,-0.02995,-0.03104,0.13855,288.62842,-4.45851,0.92239,-0.02995
2018.03.19 19:59:11,42.84363,10.25696,-26.85242,0.14099,1.21407,8.84612,-0.02888,-0.00334,0.10979,287.69147,-4.24381,0.94794,1013.31525
2018.03.19 19:59:11,42.99355,9.58214,-26.49632,0.05719,1.43195,9.66971,-0.07895,-0.02251,-0.02763,287.44904,-3.85157,1.15747,-0.07895
2018.03.19 19:59:11,42.95597,9.86328,-26.90887,0.16971,1.51094,10.03842,0.14581,-0.04701,-0.11711,287.97885,-4.35053,1.11204,0.14581
2018.03.19 19:59:11,42.93728,9.91955,-27.43378,0.34689,1.14943,11.04639,0.22145,-0.16739,-0.28862,289.16656,-5.3841,1.62951,0.22145
2018.03.19 19:59:11,41.66222,11.43837,-27.30274,0.10986,-0.4906,10.48375,-0.341,-0.07152,-0.31099,291.32175,-3.66344,2.03499,1013.31659
2018.03.19 19:59:11,41.39977,12.67567,-28.10879,0.59589,0.38089,9.11186,0.07552,0.10852,0.02243,290.90936,-3.39475,1.82754,1013.31714
2018.03.19 19:59:12,41.8684,12.45079,-28.67126,0.46899,0.86452,9.14299,0.0638,0.09787,-0.05,291.30524,-3.39938,1.1964,0.0638
2018.03.19 19:59:12,41.96205,13.46321,-29.08382,0.52884,1.0345,9.0137,0.1096,0.15005,-0.10539,291.53979,-4.0205,0.51407,0.1096
2018.03.19 19:59:12,42.09347,14.02588,-28.55892,0.1745,1.2021,9.36086,0.00627,0.06378,-0.1544,292.65985,-4.23602,-0.02909,0.00627
2018.03.19 19:59:12,41.38088,13.6694,-28.12767,0.15535,1.15181,10.7495,0.17671,-0.12798,0.07677,292.39023,-5.29892,0.27349,0.17671
2018.03.19 19:59:12,41.43715,12.67567,-28.9526,0.32773,0.65862,11.82928,-0.20998,0.10425,0.08635,291.47229,-5.42595,0.51524,-0.20998
2018.03.19 19:59:12,42.28115,12.33826,-29.57134,-0.39771,0.10555,8.87723,-0.01717,0.08188,0.05652,291.28442,-4.85079,0.40605,1013.3194
2018.03.19 19:59:12,42.28115,11.75728,-30.04017,-0.21097,0.14386,9.16693,0.09468,-0.12691,0.15027,290.10654,-5.76746,0.73674,0.09468
2018.03.19 19:59:12,41.81213,10.81963,-30.94025,-0.15829,0.73523,8.9754,0.05208,-0.00121,0.1002,288.90289,-5.99552,1.23458,1013.31989
2018.03.19 19:59:12,41.81194,9.71336,-31.22139,-0.01942,1.24519,9.2603,-0.06084,-0.00121,0.05972,288.51367,-5.90169,1.17239,-0.06084
2018.03.19 19:59:12,41.6996,9.33819,-31.12774,0.14099,1.6929,9.61943,-0.09387,0.05951,0.0267,288.18506,-5.34688,1.08503,-0.09387
2018.03.19 19:59:13,40.87467,8.68206,-30.8466,0.44505,1.63306,10.47417,0.14902,-0.02251,0.09167,287.69983,-5.9783,1.05344,0.14902
2018.03.19 19:59:13,39.80598,8.53214,-31.74667,0.55757,0.80226,11.69521,-0.05978,-0.18336,-0.14801,287.86963,-6.51773,2.10142,-0.05978
2018.03.19 19:59:13,39.28108,9.50718,-32.68394,0.87122,0.4599,9.95222,0.01585,-0.0502,0.01178,289.2467,-4.7366,2.82092,0.01585
2018.03.19 19:59:13,38.99975,10.55698,-33.67786,0.30618,0.60115,8.43192,-0.01398,0.06378,-0.24495,289.70218,-4.86773,2.82876,1013.32068
2018.03.19 19:59:13,39.7871,12.18815,-33.84647,0.15056,0.92915,8.82695,-0.03314,0.00412,-0.1086,291.22269,-4.2909,2.57101,1013.32007
2018.03.19 19:59:13,38.98087,12.60052,-33.45261,0.42351,1.43672,8.88921,-0.01717,0.05099,0.0022,291.20819,-4.33452,2.22606,1013.31976
2018.03.19 19:59:13,38.28716,12.39433,-33.02135,0.48335,1.76712,9.44466,-0.02037,0.08083,0.08102,290.99161,-4.1022,1.72245,1013.31921
2018.03.19 19:59:13,38.1937,12.03823,-32.51514,0.20323,1.35054,10.5843,0.1618,0.08083,0.1705,290.07651,-5.16734,1.32046,0.1618
2018.03.19 19:59:13,37.87479,11.15685,-32.15885,0.60785,-0.38048,13.07187,-0.28136,-0.00974,0.12683,288.49347,-5.18865,1.01265,-0.28136
2018.03.19 19:59:14,38.26847,11.41949,-32.19643,-0.55093,0.40483,8.00096,0.3791,0.14047,0.23656,288.20547,-4.72338,0.95194,0.3791
2018.03.19 19:59:14,38.86852,10.65063,-32.10258,0.02367,0.28511,10.36403,0.0542,-0.1759,0.18115,287.21866,-5.37174,1.43445,0.0542
2018.03.19 19:59:14,38.75618,9.15051,-32.83405,0.12901,1.25238,8.32657,0.17032,0.10638,0.07677,286.51001,-5.82272,1.93652,1013.31964
2018.03.19 19:59:14,39.22482,7.81937,-33.04024,0.20802,1.44151,9.24115,0.02118,0.01265,-0.02017,286.45392,-6.43034,1.84813,1013.31964
