Time,X-cord,Y-cord,Mag_x,Mag_y,Mag_z,Acc_x,Acc_y,Acc_z,Gyro_x,Gyro_y,Gyro_z,Orn_x,Orn_y,Orn_z,Pressure,
2021.01.19 08:59:32,29.0,24.0,35.76,13.139999,-28.32,0.5123748,1.0199611,9.897932,-0.050910123,0.0067262375,-0.04509224,-0.10254911333322525,-0.051719680428504944,-1.169448733329773,1024.5901,
2021.01.19 08:59:32,29.0,24.0,36.239998,13.679999,-27.96,0.2849187,0.8930645,9.337671,-0.036860216,-0.06352326,-0.060363874,-0.09530691057443619,-0.03050335869193077,-1.1594833135604858,1024.5901,
2021.01.19 08:59:32,29.0,24.0,36.899998,14.219999,-27.42,0.3902668,0.7996878,9.466963,-0.12054876,-0.09406653,-0.06463993,-0.0842001885175705,-0.041200749576091766,-1.1645492315292358,1024.5874,
2021.01.19 08:59:32,29.0,24.0,37.32,14.219999,-28.14,0.37829542,0.7948992,9.735122,-0.13093348,-0.09467739,-0.063418195,-0.08141081035137177,-0.03883928433060646,-1.1683017015457153,1024.5874,
2021.01.19 08:59:32,29.0,24.0,37.44,14.16,-28.019999,0.3328042,0.7302538,9.838076,-0.10466626,-0.009767124,-0.054255217,-0.0740492194890976,-0.03381528705358505,-1.1734864711761475,1024.5859,
2021.01.19 08:59:32,29.0,24.0,37.38,14.099999,-28.619999,0.46927786,0.723071,9.653716,-0.058240507,-0.018319238,-0.03898359,-0.07467333972454071,-0.04857287183403969,-1.1777156591415405,1024.5928,
2021.01.19 08:59:32,29.0,24.0,37.68,14.58,-27.96,0.3902668,0.6440599,9.457385,-0.052742716,0.029939117,-0.026155416,-0.06793863326311111,-0.04124242439866066,-1.1722691059112549,1024.5928,
2021.01.19 08:59:32,29.0,24.0,37.44,14.88,-27.0,0.3519584,1.0008069,9.574705,-0.04846666,0.01283489,-0.0053859986,-0.10407815873622894,-0.036742646247148514,-1.1441209316253662,1024.5918,
2021.01.19 08:59:32,29.0,24.0,37.14,15.299999,-26.64,0.35674694,1.0055954,9.955395,0.028502362,-0.007323663,-0.0011099422,-0.10060451924800873,-0.03581921011209488,-1.1342374086380005,1024.5918,
2021.01.19 08:59:32,29.0,24.0,37.079998,15.599999,-26.16,0.29689008,0.71828246,9.495694,0.074317254,0.012224025,-0.0114946505,-0.0754624456167221,-0.0312555767595768,-1.1393312215805054,1024.5908,
2021.01.19 08:59:32,29.0,24.0,36.6,15.54,-27.06,0.16759923,0.71828246,9.603436,0.03155669,0.03360431,-0.021268496,-0.07464399188756943,-0.017450233921408653,-1.1304309368133545,1024.5928,
2021.01.19 08:59:32,29.0,24.0,37.079998,15.78,-26.939999,0.22985038,1.0462981,9.407105,0.01323073,0.04643248,-0.0017208074,-0.1107361912727356,-0.02442883886396885,-1.1136155128479004,1024.5928,
2021.01.19 08:59:32,29.0,24.0,37.14,15.78,-27.24,0.09577099,0.93616146,9.907509,-0.019145127,0.05009767,0.009885632,-0.09420601278543472,-0.009666205383837223,-1.1170850992202759,1024.596,
2021.01.19 08:59:32,29.0,24.0,37.5,15.9,-27.06,0.15562786,0.93616146,9.684841,0.0010134254,0.032993443,0.017216016,-0.09635079652070999,-0.016067838296294212,-1.1197509765625,1024.596,
2021.01.19 08:59:33,29.0,24.0,37.62,15.719999,-27.0,0.17238778,0.94095,9.483723,0.011398134,0.022608735,0.047759276,-0.09887747466564178,-0.01817522570490837,-1.124333381652832,1024.5857,
2021.01.19 08:59:33,29.0,24.0,37.079998,15.059999,-27.3,0.08619389,0.92658436,9.641745,-8.191703E-4,0.010391429,0.04653755,-0.09580329060554504,-0.008939418010413647,-1.1308002471923828,1024.5852,
2021.01.19 08:59:33,29.0,24.0,37.079998,14.639999,-27.119999,0.06943397,0.87151605,9.574705,-0.005095227,-0.007323663,0.035541974,-0.09077024459838867,-0.007251686416566372,-1.1426112651824951,1024.5852,
2021.01.19 08:59:33,29.0,24.0,37.02,14.4,-27.48,0.15323359,0.7972935,9.715967,0.008954674,-0.029925678,0.017216016,-0.0818665400147438,-0.01577000878751278,-1.1546465158462524,1024.5806,
2021.01.19 08:59:33,29.0,24.0,36.899998,13.799999,-27.599998,0.339987,0.8739103,9.687236,0.023004575,-0.083070956,0.028822454,-0.08991395682096481,-0.03508199006319046,-1.168466567993164,1024.5806,
2021.01.19 08:59:33,29.0,24.0,36.84,13.92,-27.539999,0.31365,0.8547561,9.694419,0.024226304,-0.05802548,0.020270342,-0.08789674937725067,-0.03234238550066948,-1.1655460596084595,1024.5891,
2021.01.19 08:59:33,29.0,24.0,36.54,14.099999,-27.779999,0.39505535,0.9720756,9.603436,-0.009371283,0.0055045066,-0.024933686,-0.10079338401556015,-0.04111369326710701,-1.1539812088012695,1024.592,
2021.01.19 08:59:33,29.0,24.0,35.88,13.98,-27.9,0.2370332,0.8379962,9.550762,-0.005095227,-0.02320616,-0.048146565,-0.08749036490917206,-0.024813154712319374,-1.1517397165298462,1024.592,
2021.01.19 08:59:33,29.0,24.0,35.64,14.16,-27.779999,0.27294734,0.8571504,9.624985,0.01567419,-0.021984428,-0.026766283,-0.08878491073846817,-0.02835061214864254,-1.1458674669265747,1024.6016,
2021.01.19 08:59:33,29.0,24.0,35.88,14.28,-28.199999,0.15802214,0.86912173,9.696813,-2.0830505E-4,-0.008545394,-0.048146565,-0.0893789678812027,-0.016294853761792183,-1.140256643295288,1024.6016,
2021.01.19 08:59:33,29.0,24.0,36.0,14.4,-28.14,0.16041641,0.9217958,9.763853,-0.010593014,-0.026871352,-0.030431475,-0.09411738812923431,-0.01642814464867115,-1.136165976524353,1024.5996,
2021.01.19 08:59:33,29.0,24.0,36.0,14.04,-28.32,0.30886146,0.9624985,9.581888,0.029113226,-0.028093083,-0.0053859986,-0.10006232559680939,-0.032222725450992584,-1.1461560726165771,1024.596,
2021.01.19 08:59:33,29.0,24.0,36.0,14.28,-28.26,0.22027329,0.95531565,9.680053,0.01567419,-0.010988856,-0.010272921,-0.09834525734186172,-0.022751454263925552,-1.1384601593017578,1024.596,
2021.01.19 08:59:33,29.0,24.0,35.82,14.16,-28.08,0.31125572,0.9624985,9.646533,0.0034568866,-0.0042693373,0.004387845,-0.09939609467983246,-0.03225488215684891,-1.1424652338027954,1024.5884,
2021.01.19 08:59:33,29.0,24.0,36.0,14.099999,-28.38,0.20590763,0.9194015,9.677659,-0.0026517662,-0.0018258762,0.0037769799,-0.09469690173864365,-0.021273383870720863,-1.1438754796981812,1024.5884,
2021.01.19 08:59:33,29.0,24.0,36.12,14.34,-28.14,0.2370332,0.9720756,9.6896305,0.01323073,6.1758474E-4,0.014161689,-0.09995698183774948,-0.024457687512040138,-1.1382957696914673,1024.5894,
2021.01.19 08:59:34,29.0,24.0,36.3,14.34,-28.199999,0.25858167,0.94573855,9.6896305,0.0138415955,0.0061153723,0.019659474,-0.09726057201623917,-0.026680100709199905,-1.1423898935317993,1024.5891,
2021.01.19 08:59:34,29.0,24.0,36.48,14.16,-28.199999,0.33519846,0.9624985,9.450203,0.027891496,-0.0042693373,0.03309851,-0.10143615305423737,-0.03545511141419411,-1.148951768875122,1024.5891,
2021.01.19 08:59:34,29.0,24.0,36.48,14.4,-27.96,0.31125572,0.94095,9.680053,-0.017312532,0.015889216,0.027600724,-0.09685086458921432,-0.03214326500892639,-1.145505666732788,1024.5896,
2021.01.19 08:59:34,29.0,24.0,36.48,14.28,-28.08,0.32562137,1.0319325,9.62259,-0.0044843615,-0.0024367413,0.017216016,-0.10677166283130646,-0.03382635861635208,-1.1429743766784668,1024.5896,
2021.01.19 08:59:34,29.0,24.0,36.3,14.16,-28.26,0.29210153,0.8978531,9.641745,0.0010134254,-0.001215011,0.009274767,-0.09281130880117416,-0.030286241322755814,-1.1501286029815674,1024.5894,
2021.01.19 08:59:34,29.0,24.0,36.059998,14.4,-28.26,0.3615355,0.9816527,9.665688,-0.0044843615,-0.012210585,1.1178834E-4,-0.10114327818155289,-0.03738658130168915,-1.140105962753296,1024.5808,
2021.01.19 08:59:34,29.0,24.0,35.7,14.28,-28.38,0.25858167,1.0271438,9.653716,-0.0038734965,-0.012210585,-0.0053859986,-0.10596227645874023,-0.026779308915138245,-1.132128357887268,1024.5808,
2021.01.19 08:59:34,29.0,24.0,35.64,14.219999,-28.38,0.31843856,0.967287,9.553157,0.022393709,-0.023817025,0.0013335189,-0.10085359215736389,-0.03332099691033363,-1.1382192373275757,1024.585,
2021.01.19 08:59:34,29.0,24.0,35.82,14.34,-28.26,0.39505535,0.9888355,9.725544,0.007122078,-0.018930104,0.0025552493,-0.10124292969703674,-0.0405980683863163,-1.140053629875183,1024.585,
2021.01.19 08:59:34,29.0,24.0,35.82,14.04,-28.32,0.35914123,1.0534809,9.574705,0.007732943,-0.012210585,-0.012105516,-0.10951028764247894,-0.037491802126169205,-1.1408182382583618,1024.5969,
2021.01.19 08:59:34,29.0,24.0,36.059998,13.799999,-28.26,0.3304099,0.9385557,9.651321,0.005900347,-0.007934528,-0.018825036,-0.09688511490821838,-0.03422131389379501,-1.1548080444335938,1024.5928,
2021.01.19 08:59:34,29.0,24.0,36.42,14.04,-28.08,0.2657645,0.967287,9.7135725,-0.008760419,-0.0030476067,-0.023101091,-0.09921687096357346,-0.02735329605638981,-1.1496387720108032,1024.5928,
2021.01.19 08:59:34,29.0,24.0,36.239998,13.799999,-28.14,0.35914123,0.967287,9.668081,-0.0026517662,-0.009767124,-0.012716382,-0.09964941442012787,-0.03713003173470497,-1.1562660932540894,1024.5945,
2021.01.19 08:59:34,29.0,24.0,36.12,14.099999,-28.08,0.26337022,0.9529214,9.718362,-0.019755993,0.0042827763,-0.003553403,-0.09770561009645462,-0.027093637734651566,-1.1460232734680176,1024.5945,
2021.01.19 08:59:34,29.0,24.0,36.36,14.4,-27.9,0.31125572,0.9624985,9.5794935,-0.015479936,-0.001215011,-4.990769E-4,-0.10008634626865387,-0.032480448484420776,-1.1427048444747925,1024.5825,
2021.01.19 08:59:34,29.0,24.0,36.3,14.4,-28.14,0.28252444,0.92658436,9.792584,-0.022199454,0.0042827763,0.0031661147,-0.09430114179849625,-0.028842853382229805,-1.1436320543289185,1024.5825,
2021.01.19 08:59:34,29.0,24.0,36.54,14.46,-28.08,0.3304099,0.9289786,9.70639,-0.015479936,0.009169698,0.0031661147,-0.09536240994930267,-0.03402731195092201,-1.1460635662078857,1024.5825,
2021.01.19 08:59:35,29.0,24.0,36.36,14.46,-28.32,0.3998439,1.0008069,9.663293,0.0034568866,0.0061153723,-0.0047751334,-0.1031123548746109,-0.04135401174426079,-1.1420575380325317,1024.5857,
2021.01.19 08:59:35,29.0,24.0,35.82,14.4,-28.14,0.2777359,0.8978531,9.730332,-0.0026517662,0.011002294,-0.021268496,-0.09197582304477692,-0.02853556163609028,-1.1399067640304565,1024.5857,
2021.01.19 08:59:35,29.0,24.0,35.52,14.46,-28.38,0.25139886,0.8475733,9.567522,0.008954674,0.012224025,-0.018825036,-0.08832760155200958,-0.02627023309469223,-1.1363054513931274,1024.5913,
2021.01.19 08:59:35,29.0,24.0,35.04,14.58,-28.5,0.28252444,0.8930645,9.603436,-0.0014300356,0.0055045066,-0.010272921,-0.0926877111196518,-0.02941061370074749,-1.1268059015274048,1024.5894,
2021.01.19 08:59:35,29.0,24.0,35.219997,14.82,-28.56,0.28970724,0.92658436,9.73991,-0.017312532,-0.0054910677,-0.0017208074,-0.09480562061071396,-0.02973557636141777,-1.1221269369125366,1024.5894,
2021.01.19 08:59:35,29.0,24.0,35.34,14.46,-28.56,0.28731298,0.89545876,9.60583,-0.009371283,6.7195174E-6,-0.0047751334,-0.09291040152311325,-0.029901357367634773,-1.1326940059661865,1024.5884,
2021.01.19 08:59:35,29.0,24.0,35.34,14.58,-28.26,0.2753416,0.8930645,9.720756,-0.015479936,0.009169698,0.007442171,-0.09157821536064148,-0.02831755019724369,-1.130720615386963,1024.5884,
2021.01.19 08:59:35,29.0,24.0,35.46,14.82,-28.019999,0.34716985,0.9385557,9.72315,-0.011814745,0.0134457555,0.004387845,-0.09616891294717789,-0.03569032624363899,-1.1270990371704102,1024.5889,
2021.01.19 08:59:35,29.0,24.0,35.28,14.58,-28.14,0.24900457,0.8739103,9.648928,0.009565539,0.017110948,1.1178834E-4,-0.09029437601566315,-0.02580072358250618,-1.130120038986206,1024.5818,
2021.01.19 08:59:35,29.0,24.0,35.219997,14.759999,-28.5,0.2681588,0.8834874,9.665688,0.004067752,0.016500082,1.1178834E-4,-0.09111635386943817,-0.02773626148700714,-1.1250017881393433,1024.5818,
2021.01.19 08:59:35,29.0,24.0,34.98,14.7,-28.74,0.28252444,0.93616146,9.63935,0.015063326,0.009169698,0.0019443841,-0.09677381068468094,-0.029301103204488754,-1.1205426454544067,1024.5789,
2021.01.19 08:59:35,29.0,24.0,34.739998,14.58,-28.859999,0.22266756,0.9433443,9.687236,0.008343808,0.0048936415,-0.0041642683,-0.09704858809709549,-0.022981619462370872,-1.1177661418914795,1024.5789,
2021.01.19 08:59:35,29.0,24.0,35.34,14.759999,-28.74,0.2753416,0.9529214,9.641745,0.01567419,-0.0018258762,0.0013335189,-0.09847307205200195,-0.028549479320645332,-1.1218466758728027,1024.5845,
2021.01.19 08:59:35,29.0,24.0,35.399998,15.0,-28.68,0.25379312,0.91461295,9.641745,0.006511213,-0.006712798,-0.0011099422,-0.09454414248466492,-0.026316246017813683,-1.1187152862548828,1024.581,
2021.01.19 08:59:35,29.0,24.0,35.579998,15.0,-28.859999,0.2561874,0.9696813,9.574705,0.005900347,-0.014654046,0.007442171,-0.10089532285928726,-0.02675030753016472,-1.1167902946472168,1024.581,
2021.01.19 08:59:35,29.0,24.0,35.88,15.12,-28.619999,0.22506183,0.98404694,9.715967,-0.0020409008,-0.017708372,0.006220441,-0.10091033577919006,-0.023159978911280632,-1.1164946556091309,1024.5837,
2021.01.19 08:59:35,29.0,24.0,35.579998,15.12,-28.5,0.23942748,0.9337672,9.627379,0.0022351558,-0.007934528,0.0056095757,-0.09665866941213608,-0.024864310398697853,-1.116566777229309,1024.5837,
2021.01.19 08:59:36,29.0,24.0,35.82,14.88,-28.38,0.3304099,1.0175668,9.541185,0.006511213,-0.014043181,0.014772555,-0.10618514567613602,-0.034616027027368546,-1.1229203939437866,1024.5823,
2021.01.19 08:59:36,29.0,24.0,35.52,14.639999,-28.26,0.22266756,0.93616146,9.708784,-0.008760419,-0.006712798,0.0056095757,-0.09610187262296677,-0.022930629551410675,-1.1266734600067139,1024.5876,
2021.01.19 08:59:36,29.0,24.0,35.34,14.759999,-28.5,0.2777359,0.9696813,9.711179,0.0034568866,-0.0054910677,0.006220441,-0.09948177635669708,-0.028591813519597054,-1.1217318773269653,1024.5876,
2021.01.19 08:59:36,29.0,24.0,35.28,14.7,-28.619999,0.3423813,1.0151725,9.57231,0.014452461,-0.013432316,0.007442171,-0.1055910661816597,-0.03575264289975166,-1.1213724613189697,1024.5964,
2021.01.19 08:59:36,29.0,24.0,34.739998,14.88,-28.68,0.2466103,0.9074302,9.742304,-0.0044843615,-0.006101933,7.226536E-4,-0.09284574538469315,-0.02530794031918049,-1.1147308349609375,1024.5964,
2021.01.19 08:59:36,29.0,24.0,34.92,14.82,-28.56,0.34716985,0.9696813,9.58907,0.008954674,-0.009767124,0.007442171,-0.10071546584367752,-0.03618893772363663,-1.1178406476974487,1024.5894,
2021.01.19 08:59:36,29.0,24.0,34.86,14.16,-28.38,0.21787901,0.93616146,9.5794935,-0.0069278227,-0.006101933,0.00499871,-0.09739121049642563,-0.022740395739674568,-1.1293275356292725,1024.5876,
2021.01.19 08:59:36,29.0,24.0,34.68,14.04,-28.38,0.3304099,1.0032011,9.675264,-0.008760419,-0.014654046,0.009885632,-0.10325823724269867,-0.03413669764995575,-1.1309430599212646,1024.5876,
2021.01.19 08:59:36,29.0,24.0,35.1,13.86,-28.38,0.339987,0.9696813,9.656111,-0.0020409008,-0.007934528,0.00499871,-0.10002441704273224,-0.03519498184323311,-1.1418508291244507,1024.5896,
2021.01.19 08:59:36,29.0,24.0,35.04,13.74,-28.74,0.36632404,0.9864412,9.624985,-0.0014300356,-0.01037799,1.1178834E-4,-0.10205759108066559,-0.038041338324546814,-1.1431118249893188,1024.5896,
2021.01.19 08:59:36,29.0,24.0,35.1,14.04,-28.98,0.3040729,0.9313729,9.687236,-0.008760419,-0.012210585,0.0013335189,-0.09580282866954803,-0.031378719955682755,-1.1377159357070923,1024.5947,
2021.01.19 08:59:36,29.0,24.0,35.28,13.799999,-28.98,0.34477556,0.98404694,9.680053,-0.0038734965,-0.014654046,0.004387845,-0.10124540328979492,-0.035602062940597534,-1.143380045890808,1024.5906,
2021.01.19 08:59:36,29.0,24.0,35.16,13.92,-29.22,0.30167863,0.9529214,9.584282,-0.0026517662,-0.003658472,7.226536E-4,-0.09905100613832474,-0.03146600350737572,-1.1386960744857788,1024.5906,
2021.01.19 08:59:36,29.0,24.0,35.46,14.16,-28.74,0.3423813,0.9337672,9.842864,0.0010134254,-0.013432316,0.0031661147,-0.09452752768993378,-0.03477070480585098,-1.141241192817688,1024.5964,
2021.01.19 08:59:36,29.0,24.0,35.52,14.46,-28.68,0.3328042,0.9505271,9.620196,0.01078727,-0.00915626,-0.003553403,-0.09842721372842789,-0.0345805324614048,-1.1328836679458618,1024.5964,
2021.01.19 08:59:36,29.0,24.0,35.579998,14.759999,-29.22,0.3423813,0.9720756,9.668081,0.005289482,-0.00915626,-0.007829459,-0.10014569759368896,-0.035398781299591064,-1.125152587890625,1024.5991,
2021.01.19 08:59:37,29.0,24.0,35.219997,14.34,-28.68,0.34956414,0.967287,9.699207,0.005289482,-0.003658472,-0.010272921,-0.09933573007583618,-0.03602489456534386,-1.1323904991149902,1024.5996,
2021.01.19 08:59:37,29.0,24.0,34.68,14.28,-28.8,0.3615355,0.9529214,9.632168,0.012619865,-0.003658472,-0.007829459,-0.09854132682085037,-0.03751656413078308,-1.1287269592285156,1024.5996,
2021.01.19 08:59:37,29.0,24.0,34.62,13.92,-28.68,0.3519584,1.0295382,9.526819,0.011398134,-0.001215011,-0.018214168,-0.10757676512002945,-0.03692716360092163,-1.1309393644332886,1024.605,
2021.01.19 08:59:37,29.0,24.0,34.38,13.86,-28.26,0.27055305,0.9696813,9.629773,0.005900347,0.003671911,-0.017603304,-0.10031857341527939,-0.02808808721601963,-1.1314936876296997,1024.605,
2021.01.19 08:59:37,29.0,24.0,34.8,14.5199995,-28.439999,0.32801566,0.9960183,9.613013,0.008954674,-0.0018258762,-0.0066077295,-0.10318343341350555,-0.034108810126781464,-1.1212698221206665,1024.603,
2021.01.19 08:59:37,29.0,24.0,34.92,14.88,-28.8,0.31125572,0.96489275,9.632168,0.008343808,0.0030610457,-0.002942538,-0.09978918731212616,-0.03230295330286026,-1.1150989532470703,1024.5984,
2021.01.19 08:59:37,29.0,24.0,34.5,14.759999,-28.92,0.37111259,1.0175668,9.62259,0.004067752,0.0024501805,0.0019443841,-0.10527846217155457,-0.03854770213365555,-1.1120861768722534,1024.5984,
2021.01.19 08:59:37,29.0,24.0,34.32,15.059999,-28.859999,0.30886146,0.9792584,9.754275,-0.0038734965,0.008558833,-0.0047751334,-0.10000769048929214,-0.03165363892912865,-1.1037880182266235,1024.5901,
2021.01.19 08:59:37,29.0,24.0,34.38,14.88,-28.8,0.36871833,1.0055954,9.60583,0.015063326,0.0024501805,7.226536E-4,-0.10422981530427933,-0.038366008549928665,-1.1088073253631592,1024.5901,
2021.01.19 08:59:37,29.0,24.0,34.559998,14.46,-28.619999,0.3328042,0.99362403,9.586677,0.0028460212,0.007337102,-0.008440325,-0.10321584343910217,-0.03470135107636452,-1.119826078414917,1024.5986,
2021.01.19 08:59:37,29.0,24.0,34.86,14.7,-28.619999,0.3040729,1.0008069,9.644139,-0.0063169575,0.0061153723,-0.010272921,-0.10335247218608856,-0.031518854200839996,-1.116431713104248,1024.6047,
2021.01.19 08:59:37,29.0,24.0,34.98,14.46,-28.619999,0.38308397,1.0319325,9.569917,0.007122078,-0.006101933,7.226536E-4,-0.10733052343130112,-0.04000866040587425,-1.124089002609253,1024.6047,
2021.01.19 08:59:37,29.0,24.0,34.8,14.28,-28.859999,0.29689008,0.9816527,9.598648,-0.0032626311,6.7195174E-6,-0.0066077295,-0.10186717659235,-0.030920548364520073,-1.12542724609375,1024.6006,
2021.01.19 08:59:37,29.0,24.0,34.559998,14.34,-29.039999,0.2370332,0.967287,9.672871,-0.0063169575,0.0024501805,-0.002942538,-0.0996389389038086,-0.02450004778802395,-1.1198885440826416,1024.6006,
2021.01.19 08:59:37,29.0,24.0,34.8,14.639999,-28.92,0.29689008,1.0008069,9.598648,0.0010134254,-0.0024367413,0.0056095757,-0.10384070873260498,-0.030920548364520073,-1.1159965991973877,1024.6016,
2021.01.19 08:59:37,29.0,24.0,34.98,14.88,-28.92,0.29928434,0.9912298,9.744699,-0.014258205,6.1758474E-4,0.0031661147,-0.10132378339767456,-0.030702877789735794,-1.1140156984329224,1024.5986,
2021.01.19 08:59:37,29.0,24.0,35.28,14.88,-28.92,0.34477556,1.0271438,9.620196,-0.0038734965,-0.0018258762,0.0025552493,-0.10629883408546448,-0.03582339361310005,-1.1164098978042603,1024.5986,
2021.01.19 08:59:38,29.0,24.0,35.64,15.179999,-28.68,0.30646718,0.9864412,9.61062,-0.0038734965,-0.0024367413,-0.0023316727,-0.102230966091156,-0.031877584755420685,-1.1150133609771729,1024.5945,
2021.01.19 08:59:38,29.0,24.0,35.16,14.88,-28.859999,0.32083282,1.0032011,9.598648,-0.0014300356,-0.0042693373,-0.003553403,-0.10407906025648117,-0.033412352204322815,-1.115562915802002,1024.5945,
2021.01.19 08:59:38,29.0,24.0,35.16,14.4,-28.68,0.3304099,1.0032011,9.680053,-0.0075386884,-0.0054910677,-0.0066077295,-0.10320758074522018,-0.03411982208490372,-1.1274197101593018,1024.5918,
2021.01.19 08:59:38,29.0,24.0,35.04,14.7,-28.74,0.32562137,1.0223553,9.627379,-0.0014300356,-0.007323663,-0.008440325,-0.10573597997426987,-0.033809542655944824,-1.1176811456680298,1024.593,
2021.01.19 08:59:38,29.0,24.0,34.98,14.639999,-28.56,0.31125572,0.9792584,9.627379,-0.0032626311,-0.0054910677,-0.010883786,-0.10131479054689407,-0.03231900557875633,-1.1207181215286255,1024.593,
2021.01.19 08:59:38,29.0,24.0,35.399998,14.759999,-28.74,0.30646718,0.96489275,9.60583,-8.191703E-4,-0.0048802025,-0.008440325,-0.10006227344274521,-0.031893469393253326,-1.1228358745574951,1024.5891,
2021.01.19 08:59:38,29.0,24.0,35.04,14.759999,-28.98,0.2753416,0.9696813,9.61062,-0.010593014,0.0012284501,-0.012716382,-0.10051558911800385,-0.02864188887178898,-1.116926670074463,1024.5891,
2021.01.19 08:59:38,29.0,24.0,34.86,14.639999,-29.039999,0.2944958,0.92658436,9.543579,-0.014869071,0.0042827763,-0.012716382,-0.09674069285392761,-0.030848214402794838,-1.1206291913986206,1024.5818,
2021.01.19 08:59:38,29.0,24.0,34.86,14.639999,-29.039999,0.3423813,1.010384,9.613013,-0.0020409008,-0.006712798,-0.0041642683,-0.10465548932552338,-0.03560139238834381,-1.1177703142166138,1024.5798,
2021.01.19 08:59:38,29.0,24.0,34.92,14.58,-28.68,0.28013015,0.91461295,9.648928,4.025602E-4,0.0024501805,-0.008440325,-0.09446714073419571,-0.02902410365641117,-1.1239699125289917,1024.5798,
2021.01.19 08:59:38,29.0,24.0,35.219997,14.88,-28.8,0.27294734,0.94573855,9.665688,4.025602E-4,0.0012284501,-0.0053859986,-0.09749585390090942,-0.028231291100382805,-1.1181937456130981,1024.5847,
2021.01.19 08:59:38,29.0,24.0,35.1,14.639999,-28.5,0.28013015,0.967287,9.617802,0.0022351558,-0.0018258762,7.226536E-4,-0.1001933142542839,-0.02911798097193241,-1.1215860843658447,1024.5847,
2021.01.19 08:59:38,29.0,24.0,34.98,14.28,-28.38,0.33519846,0.9577099,9.675264,0.005900347,-0.006101933,0.006220441,-0.09860522300004959,-0.03463103994727135,-1.131639838218689,1024.5891,
2021.01.19 08:59:38,29.0,24.0,34.8,14.16,-28.74,0.31843856,0.9601042,9.720756,0.0010134254,-0.0024367413,0.006831306,-0.09839673340320587,-0.03274691104888916,-1.1311618089675903,1024.5876,
2021.01.19 08:59:38,29.0,24.0,35.04,14.16,-28.56,0.2681588,0.9337672,9.608225,0.0034568866,6.7195174E-6,0.0037769799,-0.0968424379825592,-0.02790205366909504,-1.1332048177719116,1024.5876,
2021.01.19 08:59:38,29.0,24.0,35.16,14.34,-28.74,0.31365,0.9696813,9.603436,0.0034568866,-0.0042693373,0.0037769799,-0.10057799518108368,-0.03264857828617096,-1.129639744758606,1024.596,
2021.01.19 08:59:38,29.0,24.0,35.7,14.46,-28.98,0.36392978,0.9601042,9.692024,-0.0069278227,-0.0030476067,1.1178834E-4,-0.09867004305124283,-0.0375317744910717,-1.1351796388626099,1024.596,
2021.01.19 08:59:39,29.0,24.0,35.7,14.759999,-29.039999,0.29689008,0.9433443,9.553157,0.004067752,-0.0024367413,-0.002942538,-0.09838058054447174,-0.03106769360601902,-1.1261688470840454,1024.5876,
2021.01.19 08:59:39,29.0,24.0,35.34,14.5199995,-28.98,0.32562137,0.9696813,9.682447,-0.013647341,-0.0042693373,-0.0011099422,-0.0997595265507698,-0.033617399632930756,-1.1279230117797852,1024.5891,
2021.01.19 08:59:39,29.0,24.0,35.399998,14.4,-28.619999,0.2657645,0.9505271,9.703996,-0.0014300356,-0.0024367413,1.1178834E-4,-0.09760428965091705,-0.02738027647137642,-1.1308703422546387,1024.5891,
2021.01.19 08:59:39,29.0,24.0,35.16,14.46,-28.32,0.32083282,0.9577099,9.574705,0.019950248,-0.0024367413,0.0013335189,-0.09963785111904144,-0.033495839685201645,-1.1286031007766724,1024.5894,
2021.01.19 08:59:39,29.0,24.0,35.28,14.4,-27.96,0.31843856,0.9888355,9.711179,0.007732943,0.0048936415,1.1178834E-4,-0.10142058879137039,-0.032779183238744736,-1.1306453943252563,1024.5894,
2021.01.19 08:59:39,29.0,24.0,35.46,14.639999,-27.96,0.2753416,0.9984126,9.711179,0.008954674,-0.0018258762,7.226536E-4,-0.10240982472896576,-0.028345461934804916,-1.1249945163726807,1024.5847,
2021.01.19 08:59:39,29.0,24.0,35.7,14.94,-28.8,0.33519846,0.9816527,9.61062,0.01323073,-0.003658472,0.00499871,-0.10172805190086365,-0.03486379235982895,-1.1221274137496948,1024.5833,
2021.01.19 08:59:39,29.0,24.0,35.579998,14.94,-29.099998,0.2370332,0.9816527,9.699207,0.005900347,-6.041457E-4,7.226536E-4,-0.10083620995283127,-0.024433545768260956,-1.1167881488800049,1024.5833,
2021.01.19 08:59:39,29.0,24.0,35.399998,14.82,-29.34,0.32083282,1.0008069,9.624985,0.016285056,-0.00915626,0.008053036,-0.10355067998170853,-0.033320993185043335,-1.1188589334487915,1024.5918,
2021.01.19 08:59:39,29.0,24.0,35.46,14.7,-29.519999,0.2681588,0.9960183,9.584282,0.014452461,-0.0042693373,0.009274767,-0.10351014137268066,-0.027971722185611725,-1.1197558641433716,1024.5918,
2021.01.19 08:59:39,29.0,24.0,35.28,14.759999,-28.98,0.30886146,1.0415095,9.720756,0.0010134254,-0.0054910677,0.008663901,-0.10668224096298218,-0.03176271542906761,-1.1171531677246094,1024.595,
2021.01.19 08:59:39,29.0,24.0,35.219997,15.0,-29.279999,0.32801566,0.9912298,9.5483675,0.007122078,-0.0018258762,0.008663901,-0.10338035970926285,-0.03433955833315849,-1.1135175228118896,1024.5979,
2021.01.19 08:59:39,29.0,24.0,35.46,15.12,-28.92,0.33759275,1.0439038,9.668081,-0.0020409008,-0.0048802025,0.008663901,-0.10749255120754242,-0.03490409627556801,-1.112056016921997,1024.5979,
2021.01.19 08:59:39,29.0,24.0,35.219997,15.12,-28.68,0.35435268,1.0247496,9.557945,0.004067752,-6.041457E-4,0.004387845,-0.10673365741968155,-0.03705717623233795,-1.1111507415771484,1024.5969,
2021.01.19 08:59:39,29.0,24.0,35.1,14.7,-28.32,0.26097596,1.0247496,9.677659,-0.005095227,0.0012284501,1.1178834E-4,-0.10545700788497925,-0.026960313320159912,-1.1167150735855103,1024.5969,
2021.01.19 08:59:39,29.0,24.0,35.399998,14.46,-27.66,0.339987,1.0008069,9.6585045,0.006511213,-0.0048802025,0.0031661147,-0.10318730771541595,-0.03518626466393471,-1.1310499906539917,1024.5972,
2021.01.19 08:59:40,29.0,24.0,35.219997,14.58,-28.08,0.3040729,1.0151725,9.613013,0.007122078,-0.0054910677,0.00499871,-0.10516180098056793,-0.03162083774805069,-1.1231564283370972,1024.5972,
2021.01.19 08:59:40,29.0,24.0,35.16,14.639999,-28.26,0.30167863,1.0055954,9.61062,0.0022351558,-0.0018258762,0.0019443841,-0.10420345515012741,-0.031379830092191696,-1.1212531328201294,1024.5972,
2021.01.19 08:59:40,29.0,24.0,35.219997,14.4,-28.859999,0.32083282,1.0127783,9.536397,-0.0014300356,-0.0048802025,0.011718228,-0.10574537515640259,-0.03363029658794403,-1.1260404586791992,1024.5928,
2021.01.19 08:59:40,29.0,24.0,34.92,14.58,-29.039999,0.28013015,1.0247496,9.818921,-0.015479936,-0.0024367413,0.012329093,-0.10394634306430817,-0.028521889820694923,-1.1174335479736328,1024.5928,
2021.01.19 08:59:40,29.0,24.0,34.86,14.16,-28.56,0.34716985,0.9888355,9.627379,0.005289482,-0.0042693373,0.011718228,-0.10228583216667175,-0.03604505956172943,-1.1310993432998657,1024.5869,
2021.01.19 08:59:40,29.0,24.0,34.86,14.04,-28.74,0.32562137,1.0319325,9.61062,-0.009982149,6.7195174E-6,0.007442171,-0.10690349340438843,-0.0338684543967247,-1.1299158334732056,1024.5859,
2021.01.19 08:59:40,29.0,24.0,35.1,14.639999,-28.439999,0.28970724,1.036721,9.699207,-0.0020409008,-0.003658472,0.0056095757,-0.10643578320741653,-0.02986028976738453,-1.1183631420135498,1024.5859,
2021.01.19 08:59:40,29.0,24.0,35.219997,14.82,-28.68,0.31125572,0.9792584,9.775824,0.008343808,-0.0024367413,0.0056095757,-0.09978817403316498,-0.03182858228683472,-1.1197891235351562,1024.5767,
2021.01.19 08:59:40,29.0,24.0,35.28,15.059999,-28.92,0.3998439,1.0798179,9.488511,0.022393709,-0.013432316,0.008053036,-0.11321553587913513,-0.042114876210689545,-1.1109528541564941,1024.5767,
2021.01.19 08:59:40,29.0,24.0,35.64,15.059999,-28.98,0.26337022,0.98404694,9.761458,-0.0057060923,0.003671911,-0.007829459,-0.10043367743492126,-0.02697407640516758,-1.1162419319152832,1024.583,
2021.01.19 08:59:40,29.0,24.0,35.219997,14.82,-29.279999,0.37350687,1.0032011,9.514848,0.017506786,-0.006712798,-4.990769E-4,-0.10496696829795837,-0.03923501446843147,-1.118473768234253,1024.5903,
2021.01.19 08:59:40,29.0,24.0,35.16,14.58,-28.92,0.31365,1.0391153,9.601042,0.009565539,-0.001215011,-0.003553403,-0.10775274783372879,-0.0326567180454731,-1.119691252708435,1024.5903,
2021.01.19 08:59:40,29.0,24.0,35.219997,14.46,-28.92,0.29689008,1.0271438,9.603436,-2.0830505E-4,6.7195174E-6,-0.0053859986,-0.1065003052353859,-0.030905138701200485,-1.1230822801589966,1024.5852,
2021.01.19 08:59:40,29.0,24.0,34.92,14.58,-28.98,0.35674694,1.0582695,9.603436,4.025602E-4,-0.0048802025,-0.0017208074,-0.10967908054590225,-0.03713076934218407,-1.1175529956817627,1024.5852,
2021.01.19 08:59:40,29.0,24.0,35.1,14.58,-28.8,0.31125572,1.036721,9.60583,-0.0026517662,-6.041457E-4,-0.003553403,-0.10745412111282349,-0.03239145874977112,-1.1193516254425049,1024.5828,
2021.01.19 08:59:40,29.0,24.0,35.34,14.82,-29.16,0.3615355,1.0486923,9.5483675,0.0034568866,-0.0042693373,-0.0047751334,-0.10931333899497986,-0.037845514714717865,-1.1169581413269043,1024.5779,
2021.01.19 08:59:40,29.0,24.0,35.399998,14.94,-29.279999,0.31843856,1.0223553,9.627379,-0.0032626311,-0.0018258762,-0.008440325,-0.10573859512805939,-0.03306429460644722,-1.1149410009384155,1024.5779,
2021.01.19 08:59:41,29.0,24.0,35.52,14.82,-29.22,0.35435268,1.0439038,9.581888,-0.0020409008,-6.041457E-4,-0.003553403,-0.1084439754486084,-0.03696466237306595,-1.1189534664154053,1024.5796,
2021.01.19 08:59:41,29.0,24.0,35.399998,14.94,-29.039999,0.30167863,1.0175668,9.617802,-0.0026517662,0.0030610457,-0.002942538,-0.10535679012537003,-0.031356412917375565,-1.114974856376648,1024.5796,
2021.01.19 08:59:41,29.0,24.0,35.219997,14.58,-29.039999,0.29689008,1.0462981,9.627379,-0.005095227,0.0030610457,-0.003553403,-0.10820352286100388,-0.030828328803181648,-1.11912202835083,1024.5884,
2021.01.19 08:59:41,29.0,24.0,35.219997,14.82,-28.74,0.4166038,1.0678465,9.5794935,-0.0020409008,0.0030610457,0.0025552493,-0.1109098494052887,-0.043461740016937256,-1.1177462339401245,1024.5842,
2021.01.19 08:59:41,29.0,24.0,35.1,14.7,-28.38,0.24182175,1.0032011,9.665688,-0.013647341,0.003671911,-0.0011099422,-0.10338752716779709,-0.025013359263539314,-1.1170412302017212,1024.5842,
2021.01.19 08:59:41,29.0,24.0,35.219997,14.7,-28.56,0.35914123,1.0510867,9.534002,0.0022351558,-0.0048802025,0.00499871,-0.10972549021244049,-0.03765171021223068,-1.1192057132720947,1024.5842,
2021.01.19 08:59:41,29.0,24.0,35.16,14.7,-28.32,0.29928434,0.9792584,9.759064,-0.025864646,6.1758474E-4,1.1178834E-4,-0.09996204823255539,-0.03065771423280239,-1.1219593286514282,1024.5842,
2021.01.19 08:59:41,29.0,24.0,35.16,14.639999,-28.619999,0.35674694,1.0247496,9.58907,0.0034568866,-0.0030476067,0.0056095757,-0.10638932883739471,-0.03718634694814682,-1.1214913129806519,1024.5872,
2021.01.19 08:59:41,29.0,24.0,34.86,14.7,-28.8,0.3232271,1.0032011,9.641745,-0.0044843615,6.1758474E-4,1.1178834E-4,-0.10361683368682861,-0.033511169254779816,-1.1166934967041016,1024.5808,
2021.01.19 08:59:41,29.0,24.0,34.8,14.759999,-28.68,0.3040729,1.0415095,9.646533,0.0022351558,0.003671911,-4.990769E-4,-0.10749765485525131,-0.031511034816503525,-1.1118768453598022,1024.5808,
2021.01.19 08:59:41,29.0,24.0,35.04,14.82,-28.859999,0.19393626,0.9792584,9.584282,-0.0038734965,0.02444133,0.0037769799,-0.10179934650659561,-0.02023206278681755,-1.1117604970932007,1024.5942,
2021.01.19 08:59:41,29.0,24.0,34.92,14.58,-28.32,0.3232271,1.0558752,9.696813,-0.0075386884,0.023219598,0.007442171,-0.1084018349647522,-0.03332099691033363,-1.1181730031967163,1024.5942,
2021.01.19 08:59:41,29.0,24.0,35.16,14.5199995,-28.199999,0.31365,1.0271438,9.660899,4.025602E-4,0.023219598,-0.0066077295,-0.10586640983819962,-0.03245452418923378,-1.123517632484436,1024.5957,
2021.01.19 08:59:41,29.0,24.0,35.52,14.34,-28.14,0.36392978,1.0702409,9.70639,0.017506786,0.018332675,-0.012716382,-0.10974137485027313,-0.037476275116205215,-1.1312220096588135,1024.5957,
2021.01.19 08:59:41,29.0,24.0,35.1,14.16,-27.599998,0.34716985,1.0343267,9.653716,0.005900347,0.018943543,-0.022490226,-0.10666722804307938,-0.035946812480688095,-1.1330441236495972,1024.5957,
2021.01.19 08:59:41,29.0,24.0,35.219997,14.34,-28.199999,0.11971374,0.88588166,8.74868,0.005900347,0.021387003,-0.024933686,-0.10090553760528564,-0.013682780787348747,-1.1239674091339111,1024.592,
