Time,X-cord,Y-cord,Mag_x,Mag_y,Mag_z,Acc_x,Acc_y,Acc_z,Gyro_x,Gyro_y,Gyro_z,Orn_x,Orn_y,Orn_z,Pressure,
2021.01.19 08:52:46,6.0,24.0,35.219997,-0.48,-27.18,-0.18196489,1.0726352,9.301758,0.087145425,0.06842363,0.0666961,-0.11478646099567413,0.01955992542207241,-1.4926862716674805,1024.4927,
2021.01.19 08:52:46,6.0,24.0,35.16,-0.65999997,-27.119999,-0.20351335,0.9313729,9.534002,-0.011814745,-0.037866924,0.089298114,-0.0973585769534111,0.021342815831303596,-1.5115233659744263,1024.4927,
2021.01.19 08:52:46,6.0,24.0,35.28,-1.0799999,-27.18,0.090982445,1.0008069,9.675264,-0.019145127,-0.060468942,0.11312186,-0.10306864976882935,-0.009403335861861706,-1.5233303308486938,1024.5032,
2021.01.19 08:52:46,6.0,24.0,35.28,-1.5,-27.24,0.12689656,0.9074302,9.761458,-0.033195026,-0.04641904,0.08013513,-0.09268633276224136,-0.012999022379517555,-1.5431605577468872,1024.5076,
2021.01.19 08:52:46,6.0,24.0,35.219997,-1.4399999,-27.359999,-0.009577099,0.96489275,9.641745,0.0028460212,-0.041532114,0.08013513,-0.0997423529624939,9.932949906215072E-4,-1.5340137481689453,1024.5076,
2021.01.19 08:52:46,6.0,24.0,35.04,-1.4399999,-27.3,0.21309046,1.0079896,9.500483,-0.027697241,-0.017097507,0.025157264,-0.10567696392536163,-0.02242567576467991,-1.532545804977417,1024.508,
2021.01.19 08:52:46,6.0,24.0,34.739998,-1.62,-26.88,-0.0047885496,0.9194015,9.960183,-2.0830505E-4,-0.033590868,0.014772555,-0.0920468345284462,4.8076920211315155E-4,-1.5460622310638428,1024.508,
2021.01.19 08:52:46,6.0,24.0,34.62,-0.9,-26.88,0.0,1.0127783,9.816526,0.046217453,-0.009767124,0.018437747,-0.10280700773000717,1.0E-6,-1.5170255899429321,1024.5046,
2021.01.19 08:52:46,6.0,24.0,34.14,-1.3199999,-27.0,0.14126222,0.9241901,9.787795,0.055380434,-0.019540967,0.004387845,-0.09413383156061172,-0.014431484043598175,-1.5367155075073242,1024.5027,
2021.01.19 08:52:46,6.0,24.0,34.14,-1.62,-27.42,0.15562786,0.9864412,9.464568,0.038276207,-0.009767124,-0.020046765,-0.10383575409650803,-0.016441727057099342,-1.5369163751602173,1024.5027,
2021.01.19 08:52:47,6.0,24.0,34.14,-1.68,-27.72,0.071828246,0.91700727,10.010463,0.007122078,-0.007934528,-0.032874934,-0.0913475900888443,-0.007175194099545479,-1.546535611152649,1024.5049,
2021.01.19 08:52:47,6.0,24.0,33.78,-2.1,-27.66,0.1699935,0.9888355,9.7135725,0.059045624,-0.040310387,-0.010883786,-0.10143445432186127,-0.01749882847070694,-1.5517851114273071,1024.5049,
2021.01.19 08:52:47,6.0,24.0,34.079998,-2.1599998,-27.599998,0.1699935,1.1277034,9.61062,0.020561114,-0.00915626,-0.007829459,-0.11678708344697952,-0.01768624596297741,-1.5418720245361328,1024.5073,
2021.01.19 08:52:47,6.0,24.0,33.899998,-1.9799999,-26.76,0.11492519,1.1516461,9.646533,0.02361544,-0.0042693373,-0.0047751334,-0.11881373077630997,-0.011913062073290348,-1.5369703769683838,1024.5112,
2021.01.19 08:52:47,6.0,24.0,33.96,-1.86,-26.46,0.08858817,1.0917894,9.7135725,0.01078727,-0.0024367413,-0.0023316727,-0.1119239553809166,-0.009119786322116852,-1.5394541025161743,1024.5112,
2021.01.19 08:52:47,6.0,24.0,34.2,-2.04,-26.699999,0.083799616,1.0798179,9.660899,0.021171978,-0.0048802025,0.012939959,-0.1113058403134346,-0.008673883974552155,-1.5445088148117065,1024.5154,
2021.01.19 08:52:47,6.0,24.0,33.719997,-1.5,-26.4,0.11013664,1.0965779,9.672871,0.020561114,-0.003658472,0.01782688,-0.11287713050842285,-0.011385646648705006,-1.5284991264343262,1024.5154,
2021.01.19 08:52:47,6.0,24.0,33.66,-1.92,-26.88,0.18914771,1.132492,9.615408,0.03766534,-0.017708372,0.02576813,-0.11721629649400711,-0.01966877654194832,-1.5369112491607666,1024.51,
2021.01.19 08:52:47,6.0,24.0,33.42,-1.92,-27.0,0.25858167,1.175589,9.522031,0.035832744,-0.01282145,0.01782688,-0.12279348820447922,-0.027149474248290062,-1.5330523252487183,1024.5115,
2021.01.19 08:52:47,6.0,24.0,33.12,-2.04,-26.82,0.20351335,1.158829,9.574705,0.010176404,-0.008545394,0.0031661147,-0.12041749805212021,-0.021252112463116646,-1.537814974784851,1024.5115,
2021.01.19 08:52:47,6.0,24.0,33.48,-2.3999999,-26.939999,0.22745611,1.1636176,9.522031,0.008343808,-0.02320616,-0.0066077295,-0.12156543135643005,-0.023882810026407242,-1.5477383136749268,1024.5168,
2021.01.19 08:52:47,6.0,24.0,33.48,-2.52,-26.939999,0.14126222,1.1372806,9.569917,-0.0069278227,-0.014043181,-0.018825036,-0.11827162653207779,-0.014759998768568039,-1.5525611639022827,1024.5168,
2021.01.19 08:52:47,6.0,24.0,33.66,-2.52,-27.539999,0.2370332,1.1875603,9.641745,0.0138415955,-0.029925678,-0.017603304,-0.12251472473144531,-0.024579105898737907,-1.5485899448394775,1024.5139,
2021.01.19 08:52:47,6.0,24.0,34.14,-2.1599998,-27.72,0.21787901,1.1684061,9.627379,-0.0020409008,-0.018319238,-0.027377147,-0.1207415908575058,-0.022627323865890503,-1.5391408205032349,1024.5085,
2021.01.19 08:52:47,6.0,24.0,34.02,-2.1,-27.779999,0.15802214,1.1875603,9.682447,0.019950248,-0.015875777,-0.026155416,-0.12202522903680801,-0.016319025307893753,-1.5351547002792358,1024.5085,
2021.01.19 08:52:47,6.0,24.0,33.96,-1.92,-27.539999,0.21787901,1.185166,9.536397,0.02361544,-0.020762699,-0.026155416,-0.12361228466033936,-0.022843126207590103,-1.5305134057998657,1024.5059,
2021.01.19 08:52:47,6.0,24.0,33.42,-2.34,-27.0,0.15562786,1.158829,9.593859,0.018117653,-0.009767124,-0.030431475,-0.12019062042236328,-0.01622018963098526,-1.5457288026809692,1024.5059,
2021.01.19 08:52:48,6.0,24.0,33.18,-2.6399999,-26.88,0.19393626,1.1684061,9.5794935,0.012619865,-0.01037799,-0.02432282,-0.1213454008102417,-0.020242173224687576,-1.5544495582580566,1024.5071,
2021.01.19 08:52:48,6.0,24.0,33.48,-2.28,-27.0,0.14365649,1.1660118,9.6896305,0.010176404,-0.013432316,-0.018214168,-0.11974714696407318,-0.01482471078634262,-1.5441725254058838,1024.502,
2021.01.19 08:52:48,6.0,24.0,33.54,-2.22,-27.24,0.22985038,1.1971374,9.565128,0.014452461,-0.012210585,-0.012105516,-0.1244734600186348,-0.024025412276387215,-1.539270043373108,1024.502,
2021.01.19 08:52:48,6.0,24.0,34.38,-1.8,-27.599998,0.19393626,1.2402344,9.574705,-0.0057060923,-0.006712798,-0.010272921,-0.1287890076637268,-0.020252292975783348,-1.5230391025543213,1024.5073,
2021.01.19 08:52:48,6.0,24.0,34.38,-1.92,-27.24,0.23942748,1.23784,9.656111,-0.0044843615,-0.0048802025,-0.007829459,-0.12745828926563263,-0.024790355935692787,-1.5294796228408813,1024.5073,
2021.01.19 08:52:48,6.0,24.0,34.44,-2.22,-27.3,0.15562786,1.1923488,9.557945,-0.0075386884,0.007947967,-0.0059968643,-0.12409206479787827,-0.01628112606704235,-1.5390909910202026,1024.5154,
2021.01.19 08:52:48,6.0,24.0,34.26,-2.04,-27.06,0.20590763,1.2162915,9.727939,-0.014869071,0.0067262375,1.1178834E-4,-0.12435770034790039,-0.021163465455174446,-1.5351608991622925,1024.5171,
2021.01.19 08:52:48,6.0,24.0,33.96,-2.04,-26.82,0.1699935,1.132492,9.608225,-8.191703E-4,-0.009767124,0.0056095757,-0.11730742454528809,-0.01769065298140049,-1.5405348539352417,1024.5171,
2021.01.19 08:52:48,6.0,24.0,34.2,-1.92,-27.359999,0.18435916,1.1779832,9.624985,-0.0032626311,0.0055045066,7.226536E-4,-0.1217603012919426,-0.01915188692510128,-1.532299280166626,1024.5208,
2021.01.19 08:52:48,6.0,24.0,33.96,-1.86,-26.939999,0.2083019,1.1731946,9.565128,-8.191703E-4,-6.041457E-4,0.00499871,-0.1220151036977768,-0.02177377976477146,-1.5319607257843018,1024.5208,
2021.01.19 08:52:48,6.0,24.0,33.899998,-2.04,-27.0,0.24900457,1.1731946,9.617802,-0.0044843615,-0.006712798,0.0037769799,-0.12134166061878204,-0.02588418498635292,-1.5379668474197388,1024.519,
2021.01.19 08:52:48,6.0,24.0,33.719997,-2.34,-27.06,0.2083019,1.1564348,9.545974,-0.0038734965,-0.003658472,0.0013335189,-0.12052784115076065,-0.02181745506823063,-1.5462738275527954,1024.5093,
2021.01.19 08:52:48,6.0,24.0,33.84,-2.04,-26.939999,0.24182175,1.2234744,9.668081,-0.013647341,-0.0048802025,0.0013335189,-0.1258397400379181,-0.02500716969370842,-1.5345817804336548,1024.5093,
2021.01.19 08:52:48,6.0,24.0,33.719997,-2.1599998,-27.359999,0.22745611,1.1612233,9.641745,0.007122078,-0.0024367413,-0.0041642683,-0.11982672661542892,-0.023586388677358627,-1.5408210754394531,1024.5073,
2021.01.19 08:52:48,6.0,24.0,33.96,-2.28,-27.539999,0.2657645,1.185166,9.522031,0.005289482,-0.006101933,-0.002942538,-0.12378115206956863,-0.02790324203670025,-1.541440725326538,1024.5073,
2021.01.19 08:52:48,6.0,24.0,33.719997,-2.1,-27.72,0.21787901,1.1708003,9.718362,-0.0020409008,-0.0030476067,-0.0114946505,-0.11986535787582397,-0.022415559738874435,-1.5376455783843994,1024.4998,
2021.01.19 08:52:49,6.0,24.0,33.48,-2.6399999,-27.9,0.22506183,1.1372806,9.481328,0.006511213,-0.003658472,-0.007829459,-0.11934584379196167,-0.02373291738331318,-1.553070306777954,1024.5032,
2021.01.19 08:52:49,6.0,24.0,33.36,-2.7,-27.48,0.16759923,1.1971374,9.75667,-0.020366857,0.008558833,-0.013938112,-0.1220712959766388,-0.017176223918795586,-1.5531784296035767,1024.5032,
2021.01.19 08:52:49,6.0,24.0,33.239998,-2.3999999,-27.3,0.22027329,1.1300977,9.581888,-2.0830505E-4,6.1758474E-4,-0.0041642683,-0.11736796051263809,-0.02298445627093315,-1.5494459867477417,1024.4995,
2021.01.19 08:52:49,6.0,24.0,33.42,-2.22,-27.42,0.1699935,1.1540405,9.586677,-0.019755993,0.008558833,-0.0072185947,-0.11978448182344437,-0.017730409279465675,-1.5412708520889282,1024.4995,
2021.01.19 08:52:49,6.0,24.0,33.6,-1.8,-27.599998,0.13886794,1.1420691,9.624985,-0.02281032,0.008558833,-0.003553403,-0.11809232085943222,-0.014426860958337784,-1.5294350385665894,1024.5032,
2021.01.19 08:52:49,6.0,24.0,33.899998,-1.92,-27.96,0.25139886,1.158829,9.613013,-0.01242561,0.0030610457,0.008663901,-0.11992844194173813,-0.026145970448851585,-1.5323460102081299,1024.5093,
2021.01.19 08:52:49,6.0,24.0,34.14,-2.1599998,-27.599998,0.15562786,1.1779832,9.636956,-0.008760419,0.0024501805,0.004387845,-0.1216169148683548,-0.016147665679454803,-1.5379290580749512,1024.5093,
2021.01.19 08:52:49,6.0,24.0,34.14,-2.34,-27.119999,0.20590763,1.1684061,9.591465,0.0022351558,-0.001215011,0.014161689,-0.12119237333536148,-0.021464500576257706,-1.5458400249481201,1024.5161,
2021.01.19 08:52:49,6.0,24.0,34.079998,-2.28,-26.939999,0.2083019,1.1971374,9.7135725,0.0016242907,-0.003658472,0.0135508245,-0.12259751558303833,-0.021441129967570305,-1.5436307191848755,1024.5161,
2021.01.19 08:52:49,6.0,24.0,34.02,-2.1599998,-26.699999,0.18675344,1.1205206,9.5794935,0.009565539,-0.001215011,0.011107363,-0.11641969531774521,-0.019492657855153084,-1.5453660488128662,1024.5173,
2021.01.19 08:52:49,6.0,24.0,33.96,-2.1599998,-27.42,0.23463893,1.1827718,9.63935,0.004678617,0.0018393153,0.0013335189,-0.12205635011196136,-0.02433697320520878,-1.5392345190048218,1024.52,
2021.01.19 08:52:49,6.0,24.0,34.02,-2.1599998,-27.539999,0.25139886,1.1612233,9.562734,0.006511213,-0.0018258762,0.0013335189,-0.12079916149377823,-0.02628338150680065,-1.540125846862793,1024.52,
2021.01.19 08:52:49,6.0,24.0,34.14,-2.46,-27.599998,0.22745611,1.1444633,9.541185,-2.0830505E-4,-0.006712798,-0.008440325,-0.11934585124254227,-0.02383488416671753,-1.5493606328964233,1024.513,
2021.01.19 08:52:49,6.0,24.0,34.26,-2.22,-27.779999,0.1987248,1.175589,9.620196,-0.008760419,-0.003658472,-0.012716382,-0.12157154828310013,-0.0206541046500206,-1.5398296117782593,1024.513,
2021.01.19 08:52:49,6.0,24.0,34.079998,-2.1599998,-27.48,0.19633053,1.1468576,9.58907,-0.0014300356,-0.006101933,-0.009662056,-0.11901037395000458,-0.020471546798944473,-1.540938138961792,1024.5137,
2021.01.19 08:52:49,6.0,24.0,33.78,-1.92,-27.48,0.20590763,1.1636176,9.613013,-0.009371283,-0.0018258762,-0.008440325,-0.12043268233537674,-0.021416401490569115,-1.5327556133270264,1024.5076,
2021.01.19 08:52:49,6.0,24.0,33.66,-1.8,-27.24,0.17957062,1.1923488,9.648928,-0.010593014,0.0024501805,-0.007829459,-0.12292882055044174,-0.018608273938298225,-1.5276055335998535,1024.5076,
2021.01.19 08:52:50,6.0,24.0,33.719997,-2.1599998,-26.699999,0.19633053,1.1636176,9.555551,-0.0020409008,-0.0018258762,-0.0053859986,-0.12115205079317093,-0.020543338730931282,-1.541667103767395,1024.5107,
2021.01.19 08:52:50,6.0,24.0,33.96,-2.22,-26.88,0.19154198,1.1708003,9.759064,-0.010593014,-0.0018258762,-0.0041642683,-0.11937712877988815,-0.01962456665933132,-1.5442065000534058,1024.5107,
2021.01.19 08:52:50,6.0,24.0,34.2,-2.58,-26.939999,0.19154198,1.1875603,9.586677,0.0016242907,0.0030610457,-0.0041642683,-0.12322390824556351,-0.01997736282646656,-1.5516175031661987,1024.5076,
2021.01.19 08:52:50,6.0,24.0,34.079998,-2.52,-27.0,0.22506183,1.1995317,9.584282,0.008343808,0.0012284501,-0.0066077295,-0.12447476387023926,-0.023478073999285698,-1.5491485595703125,1024.5076,
2021.01.19 08:52:50,6.0,24.0,33.54,-2.1,-27.66,0.1987248,1.1636176,9.615408,0.0016242907,6.7195174E-6,-0.010272921,-0.12040486186742783,-0.020664388313889503,-1.5369833707809448,1024.5076,
2021.01.19 08:52:50,6.0,24.0,33.42,-2.1,-27.3,0.18435916,1.1564348,9.620196,0.005900347,0.0055045066,-0.0114946505,-0.11961326003074646,-0.019161418080329895,-1.538522481918335,1024.5083,
2021.01.19 08:52:50,6.0,24.0,33.42,-1.74,-27.24,0.2657645,1.1157321,9.581888,0.0034568866,-0.006712798,-0.007829459,-0.11587558686733246,-0.02772902138531208,-1.5323892831802368,1024.5083,
2021.01.19 08:52:50,6.0,24.0,33.96,-1.74,-27.24,0.17238778,1.1181264,9.636956,-0.016090801,0.0055045066,-0.023101091,-0.11549006402492523,-0.017886290326714516,-1.5319080352783203,1024.509,
2021.01.19 08:52:50,6.0,24.0,34.32,-1.74,-27.0,0.23463893,1.0798179,9.63935,-0.0075386884,-0.0048802025,-0.015159843,-0.11152400821447372,-0.02433697320520878,-1.5370091199874878,1024.5098,
2021.01.19 08:52:50,6.0,24.0,34.14,-1.62,-27.06,0.21069619,1.1277034,9.541185,-0.019755993,-0.0042693373,-0.016992439,-0.11761899292469025,-0.0220792219042778,-1.5282810926437378,1024.5098,
2021.01.19 08:52:50,6.0,24.0,34.14,-1.86,-27.119999,0.19154198,1.1013664,9.7135725,-0.024642916,-0.0030476067,-0.017603304,-0.11288034170866013,-0.019716450944542885,-1.5382059812545776,1024.5115,
2021.01.19 08:52:50,6.0,24.0,33.78,-1.8,-27.24,0.18675344,1.1205206,9.5794935,-0.009982149,-0.003658472,-0.017603304,-0.11641969531774521,-0.019492657855153084,-1.5329413414001465,1024.5115,
2021.01.19 08:52:50,6.0,24.0,33.78,-1.86,-27.3,0.19154198,1.0822122,9.708784,-0.016701667,-0.001215011,-0.0133272465,-0.11098766326904297,-0.01972617208957672,-1.5387251377105713,1024.5088,
2021.01.19 08:52:50,6.0,24.0,34.14,-1.68,-27.42,0.17238778,1.0702409,9.593859,-0.0032626311,6.7195174E-6,-0.009051191,-0.111077681183815,-0.0179666206240654,-1.5332317352294922,1024.5073,
2021.01.19 08:52:50,6.0,24.0,34.02,-1.5,-27.359999,0.15562786,1.1229149,9.672871,-0.008149553,0.0048936415,-0.0047751334,-0.11555696278810501,-0.016087720170617104,-1.5243613719940186,1024.5073,
2021.01.19 08:52:50,6.0,24.0,33.78,-1.4399999,-27.42,0.2083019,1.1109436,9.665688,0.0022351558,-0.0042693373,0.0031661147,-0.11440835148096085,-0.02154731936752796,-1.523808240890503,1024.5034,
2021.01.19 08:52:50,6.0,24.0,33.42,-1.3199999,-27.72,0.18675344,1.0678465,9.636956,0.0010134254,-6.041457E-4,0.004387845,-0.11033669859170914,-0.01937645673751831,-1.5216916799545288,1024.5034,
2021.01.19 08:52:51,6.0,24.0,33.36,-1.4399999,-27.66,0.21787901,1.0870007,9.627379,4.025602E-4,6.7195174E-6,0.004387845,-0.11240254342556,-0.022627323865890503,-1.5241477489471436,1024.5056,
2021.01.19 08:52:51,6.0,24.0,33.54,-1.56,-27.72,0.23463893,1.0774237,9.581888,0.0010134254,-0.001215011,0.00499871,-0.1119401603937149,-0.024482863023877144,-1.5283288955688477,1024.508,
2021.01.19 08:52:51,6.0,24.0,33.66,-1.5,-27.539999,0.21309046,1.0702409,9.5794935,0.0010134254,0.0024501805,0.0013335189,-0.11123340576887131,-0.0222407728433609,-1.5275572538375854,1024.508,
2021.01.19 08:52:51,6.0,24.0,33.84,-1.56,-27.359999,0.22985038,1.0822122,9.684841,-0.008149553,0.003671911,0.0013335189,-0.11125019192695618,-0.02372855134308338,-1.5302965641021729,1024.5134,
2021.01.19 08:52:51,6.0,24.0,33.54,-1.56,-27.3,0.2083019,1.0846065,9.644139,-0.0057060923,0.0024501805,1.1178834E-4,-0.11196628212928772,-0.02159545011818409,-1.5292505025863647,1024.5134,
2021.01.19 08:52:51,6.0,24.0,33.3,-1.3199999,-27.119999,0.21548474,1.0702409,9.593859,-2.0830505E-4,6.1758474E-4,-0.0011099422,-0.11106768250465393,-0.02245691791176796,-1.5233266353607178,1024.5149,
2021.01.19 08:52:51,6.0,24.0,33.54,-1.38,-27.18,0.21069619,1.0822122,9.646533,-0.0075386884,0.003671911,-0.003553403,-0.11169310659170151,-0.021838176995515823,-1.5246539115905762,1024.5085,
2021.01.19 08:52:51,6.0,24.0,33.6,-1.38,-27.24,0.17478207,1.1013664,9.617802,0.0016242907,0.0018393153,-0.002942538,-0.11399801820516586,-0.018170766532421112,-1.5222100019454956,1024.5085,
2021.01.19 08:52:51,6.0,24.0,33.84,-1.14,-27.359999,0.18435916,1.0726352,9.641745,-0.0014300356,0.0030610457,-0.002942538,-0.11077342927455902,-0.019118603318929672,-1.5178873538970947,1024.5195,
2021.01.19 08:52:51,6.0,24.0,34.079998,-1.1999999,-27.72,0.22027329,1.1157321,9.656111,-0.0020409008,0.0018393153,-0.0023316727,-0.1150069311261177,-0.02280784584581852,-1.5161333084106445,1024.5195,
2021.01.19 08:52:51,6.0,24.0,34.02,-1.1999999,-27.72,0.18675344,1.0822122,9.557945,0.01078727,-6.041457E-4,7.226536E-4,-0.11272493749856949,-0.019536592066287994,-1.5172984600067139,1024.5171,
2021.01.19 08:52:51,6.0,24.0,33.66,-1.1999999,-27.72,0.16759923,1.1229149,9.648928,-0.018534262,0.007947967,-0.0023316727,-0.11583869159221649,-0.017367979511618614,-1.513913631439209,1024.5144,
2021.01.19 08:52:51,6.0,24.0,33.54,-1.74,-27.539999,0.1987248,1.1109436,9.603436,0.0022351558,-6.041457E-4,0.00499871,-0.11514551937580109,-0.02069014124572277,-1.53107750415802,1024.5144,
2021.01.19 08:52:51,6.0,24.0,33.42,-1.74,-27.599998,0.20590763,1.1157321,9.615408,-0.013647341,0.0055045066,-0.002942538,-0.11549299955368042,-0.021411068737506866,-1.5305590629577637,1024.5139,
2021.01.19 08:52:51,6.0,24.0,33.36,-1.8,-27.779999,0.16520496,1.0678465,9.608225,4.025602E-4,0.0012284501,-0.0017208074,-0.11066833883523941,-0.017192425206303596,-1.5348904132843018,1024.5139,
2021.01.19 08:52:51,6.0,24.0,33.54,-1.68,-27.359999,0.20351335,1.0774237,9.624985,-0.0038734965,6.1758474E-4,-4.990769E-4,-0.11145152151584625,-0.02114112861454487,-1.532882571220398,1024.5217,
2021.01.19 08:52:52,6.0,24.0,33.48,-1.38,-27.42,0.1987248,1.1085492,9.620196,0.004678617,-0.0018258762,0.0019443841,-0.11470120400190353,-0.0206541046500206,-1.521262288093567,1024.5242,
2021.01.19 08:52:52,6.0,24.0,33.84,-1.4399999,-26.88,0.16520496,1.0678465,9.63935,-0.0038734965,6.1758474E-4,0.0037769799,-0.11031400412321091,-0.017136920243501663,-1.528143048286438,1024.5242,
2021.01.19 08:52:52,6.0,24.0,33.54,-1.56,-26.76,0.20111908,1.0989721,9.629773,-2.0830505E-4,6.1758474E-4,0.0056095757,-0.11360615491867065,-0.020882096141576767,-1.5296489000320435,1024.5166,
2021.01.19 08:52:52,6.0,24.0,34.079998,-1.62,-26.76,0.21309046,1.0582695,9.577099,-0.0069278227,0.0012284501,0.004387845,-0.110026516020298,-0.022246330976486206,-1.5349215269088745,1024.5166,
2021.01.19 08:52:52,6.0,24.0,34.14,-1.9799999,-26.88,0.19633053,1.1061549,9.61062,-0.008149553,0.0012284501,0.0031661147,-0.11456920951604843,-0.02042565867304802,-1.5412358045578003,1024.5093,
2021.01.19 08:52:52,6.0,24.0,33.96,-1.86,-27.3,0.19154198,1.089395,9.634562,-0.0057060923,-0.0030476067,0.00499871,-0.11257130652666092,-0.019878098741173744,-1.5377016067504883,1024.4993,
2021.01.19 08:52:52,6.0,24.0,34.5,-1.74,-27.66,0.16759923,1.1205206,9.675264,-0.0069278227,0.0012284501,0.0025552493,-0.11528212577104568,-0.01732071302831173,-1.5312449932098389,1024.4993,
2021.01.19 08:52:52,6.0,24.0,34.32,-1.62,-27.84,0.20111908,1.0917894,9.62259,0.007732943,-0.006712798,0.008053036,-0.11295346170663834,-0.020897679030895233,-1.529359221458435,1024.5044,
2021.01.19 08:52:52,6.0,24.0,34.38,-1.1999999,-27.72,0.21309046,1.1037607,9.615408,-0.0020409008,0.0018393153,0.0019443841,-0.11426278203725815,-0.022157728672027588,-1.5170923471450806,1024.5044,
2021.01.19 08:52:52,6.0,24.0,34.5,-1.4399999,-27.779999,0.2083019,1.0798179,9.601042,0.007122078,-0.0042693373,0.0013335189,-0.11197204142808914,-0.02169235795736313,-1.5255563259124756,1024.5051,
2021.01.19 08:52:52,6.0,24.0,34.38,-1.5,-27.779999,0.15323359,1.0726352,9.567522,-0.0069278227,0.003671911,7.226536E-4,-0.11163171380758286,-0.016014646738767624,-1.5265324115753174,1024.5193,
2021.01.19 08:52:52,6.0,24.0,34.26,-1.8,-28.32,0.20590763,1.132492,9.785401,-0.011814745,-0.0042693373,-0.0017208074,-0.11519493907690048,-0.021039223298430443,-1.5311170816421509,1024.5193,
2021.01.19 08:52:52,6.0,24.0,34.38,-1.86,-28.08,0.11971374,1.0271438,9.517242,0.008343808,-0.0042693373,-0.0023316727,-0.10749996453523636,-0.012577952817082405,-1.5386486053466797,1024.5151,
2021.01.19 08:52:52,6.0,24.0,34.2,-1.92,-28.019999,0.21309046,1.0965779,9.73991,-0.014869071,-0.0018258762,-0.0011099422,-0.11208732426166534,-0.02187458425760269,-1.5380038022994995,1024.5151,
2021.01.19 08:52:52,6.0,24.0,33.96,-1.9799999,-27.18,0.1987248,1.0678465,9.574705,0.005900347,-0.0048802025,-0.0023316727,-0.11104516685009003,-0.020752208307385445,-1.5428327322006226,1024.5188,
2021.01.19 08:52:52,6.0,24.0,34.02,-1.68,-26.58,0.1987248,1.0774237,9.541185,4.025602E-4,6.1758474E-4,-0.0053859986,-0.11242293566465378,-0.020825091749429703,-1.5351581573486328,1024.5186,
2021.01.19 08:52:52,6.0,24.0,34.26,-1.74,-27.3,0.28013015,1.089395,9.778218,-0.0112038795,-0.001215011,-0.008440325,-0.11090770363807678,-0.02864055149257183,-1.5370519161224365,1024.5186,
2021.01.19 08:52:53,6.0,24.0,34.559998,-1.68,-26.88,0.17957062,1.0606637,9.507666,0.018728517,-0.003658472,-0.0072185947,-0.11107977479696274,-0.01888468489050865,-1.5355252027511597,1024.5054,
2021.01.19 08:52:53,6.0,24.0,34.44,-1.56,-27.24,0.20111908,1.089395,9.737515,0.0022351558,-0.003658472,-0.003553403,-0.11138924211263657,-0.020651109516620636,-1.530870795249939,1024.5054,
2021.01.19 08:52:53,6.0,24.0,34.5,-1.68,-27.66,0.21548474,1.0726352,9.560339,0.01567419,-0.006101933,-0.003553403,-0.11170096695423126,-0.02253562957048416,-1.5330448150634766,1024.501,
2021.01.19 08:52:53,6.0,24.0,34.14,-1.74,-27.359999,0.19154198,1.0774237,9.656111,0.0016242907,-0.0024367413,-0.0053859986,-0.11109817028045654,-0.019833747297525406,-1.5353842973709106,1024.5042,
2021.01.19 08:52:53,6.0,24.0,33.78,-1.74,-27.66,0.2083019,1.0846065,9.620196,0.007732943,-0.01037799,-0.002942538,-0.11224249005317688,-0.021649179980158806,-1.5333858728408813,1024.5042,
2021.01.19 08:52:53,6.0,24.0,33.899998,-1.68,-27.72,0.18675344,1.0558752,9.668081,-0.0044843615,-0.0018258762,-0.0047751334,-0.10876122117042542,-0.01931409165263176,-1.5340062379837036,1024.5059,
2021.01.19 08:52:53,6.0,24.0,33.899998,-1.8,-27.42,0.2083019,1.1013664,9.584282,0.0016242907,-0.007323663,0.0025552493,-0.1143851950764656,-0.02173027954995632,-1.5343775749206543,1024.5059,
2021.01.19 08:52:53,6.0,24.0,33.78,-1.62,-27.24,0.1987248,1.0989721,9.58907,-0.010593014,0.0024501805,-4.990769E-4,-0.11408460140228271,-0.020721128210425377,-1.5297235250473022,1024.5068,
2021.01.19 08:52:53,6.0,24.0,34.02,-1.1999999,-27.24,0.21548474,1.0989721,9.749487,-0.018534262,6.1758474E-4,7.226536E-4,-0.11222004145383835,-0.022098563611507416,-1.5196160078048706,1024.5066,
2021.01.19 08:52:53,6.0,24.0,34.079998,-1.0799999,-27.3,0.13647367,1.0798179,9.601042,-0.018534262,0.008558833,1.1178834E-4,-0.11198695749044418,-0.014213507995009422,-1.5150524377822876,1024.5066,
2021.01.19 08:52:53,6.0,24.0,34.02,-0.9,-27.3,0.19633053,1.1013664,9.680053,-0.0075386884,0.0067262375,0.0025552493,-0.11326662451028824,-0.020279189571738243,-1.509751558303833,1024.5063,
2021.01.19 08:52:53,6.0,24.0,34.32,-1.26,-27.24,0.2370332,1.0822122,9.565128,-0.0032626311,0.003671911,0.004387845,-0.1126280352473259,-0.024775905534625053,-1.521870732307434,1024.5063,
2021.01.19 08:52:53,6.0,24.0,34.02,-1.56,-27.18,0.18914771,1.0917894,9.596253,0.0022351558,0.0061153723,0.0031661147,-0.11326352506875992,-0.019708028063178062,-1.5289801359176636,1024.5073,
2021.01.19 08:52:53,6.0,24.0,34.02,-1.86,-27.42,0.2849187,1.0343267,9.670476,0.01078727,-0.007934528,1.1178834E-4,-0.10650622099637985,-0.029454218223690987,-1.5432946681976318,1024.5037,
2021.01.19 08:52:53,6.0,24.0,33.96,-1.8,-27.72,0.17957062,1.0510867,9.574705,-0.0014300356,0.0055045066,-0.0059968643,-0.10932055115699768,-0.01875249110162258,-1.5370134115219116,1024.5037,
2021.01.19 08:52:53,6.0,24.0,33.899998,-1.5,-27.779999,0.23224466,1.0486923,9.615408,0.0016242907,-0.0030476067,-0.009662056,-0.10860294103622437,-0.024148689582943916,-1.5294350385665894,1024.509,
2021.01.19 08:52:53,6.0,24.0,34.02,-1.02,-27.9,0.22027329,1.0678465,9.629773,-0.0014300356,6.1758474E-4,-0.016381573,-0.11041025817394257,-0.022870205342769623,-1.513890266418457,1024.509,
2021.01.19 08:52:54,6.0,24.0,33.899998,-1.02,-27.539999,0.19393626,1.063058,9.577099,-0.0069278227,6.7195174E-6,-0.016992439,-0.1105249896645546,-0.020247234031558037,-1.514324426651001,1024.51,
2021.01.19 08:52:54,6.0,24.0,33.899998,-0.96,-27.539999,0.17478207,1.0486923,9.63935,-0.008149553,0.0012284501,-0.016381573,-0.10834898799657822,-0.01813015714287758,-1.5139641761779785,1024.5093,
2021.01.19 08:52:54,6.0,24.0,33.719997,-0.78,-27.66,0.21309046,1.0295382,9.5794935,-0.008149553,0.0012284501,-0.014548978,-0.10703591257333755,-0.02224077098071575,-1.5097368955612183,1024.5093,
2021.01.19 08:52:54,6.0,24.0,33.96,-1.38,-27.84,0.15323359,1.0486923,9.687236,-0.014869071,0.0042827763,-0.013938112,-0.1078217476606369,-0.01581677235662937,-1.5253056287765503,1024.5125,
2021.01.19 08:52:54,6.0,24.0,34.5,-1.1999999,-27.779999,0.18675344,1.0486923,9.615408,-0.005095227,-6.041457E-4,-0.0072185947,-0.10861404240131378,-0.019419869408011436,-1.5210200548171997,1024.5125,
2021.01.19 08:52:54,6.0,24.0,34.38,-0.78,-27.599998,0.19393626,1.0510867,9.670476,-0.005095227,-0.0042693373,-0.0053859986,-0.10824368894100189,-0.020051781088113785,-1.5098525285720825,1024.5071,
2021.01.19 08:52:54,6.0,24.0,34.5,-1.02,-27.599998,0.13886794,1.036721,9.708784,4.025602E-4,0.0042827763,-0.007829459,-0.10636786371469498,-0.014302355237305164,-1.5174438953399658,1024.5061,
2021.01.19 08:52:54,6.0,24.0,34.14,-1.14,-27.3,0.17238778,1.036721,9.62259,0.007732943,-6.041457E-4,-0.0023316727,-0.10730718821287155,-0.017912987619638443,-1.521031379699707,1024.5061,
2021.01.19 08:52:54,6.0,24.0,33.719997,-1.4399999,-27.3,0.15323359,1.036721,9.677659,0.0034568866,-6.041457E-4,0.0013335189,-0.10670492053031921,-0.01583242230117321,-1.529280662536621,1024.5071,
2021.01.19 08:52:54,6.0,24.0,34.14,-1.92,-27.359999,0.1699935,0.99362403,9.447808,0.011398134,-0.0018258762,0.0056095757,-0.10476776212453842,-0.0179909635335207,-1.54518461227417,1024.5071,
2021.01.19 08:52:54,6.0,24.0,34.26,-1.74,-27.48,0.22266756,1.0965779,9.73991,-0.014258205,6.1758474E-4,0.007442171,-0.11208486557006836,-0.02285737544298172,-1.5347965955734253,1024.5044,
2021.01.19 08:52:54,6.0,24.0,34.559998,-1.1999999,-27.72,0.16281068,1.0008069,9.5794935,0.0028460212,0.0024501805,0.0056095757,-0.10408133268356323,-0.016994114965200424,-1.5244357585906982,1024.5034,
2021.01.19 08:52:54,6.0,24.0,34.62,-0.96,-27.96,0.19154198,1.0415095,9.668081,-0.009982149,-6.041457E-4,0.00499871,-0.10729186236858368,-0.019809197634458542,-1.5149604082107544,1024.5034,
2021.01.19 08:52:54,6.0,24.0,34.26,-0.65999997,-27.779999,0.14365649,1.0391153,9.684841,-0.0038734965,0.0024501805,1.1178834E-4,-0.10687240958213806,-0.014832040295004845,-1.505914330482483,1024.5105,
2021.01.19 08:52:54,6.0,24.0,33.96,-0.59999996,-27.539999,0.20351335,1.0391153,9.538791,0.005289482,-0.0030476067,-0.0017208074,-0.10848338901996613,-0.02133210562169552,-1.504125952720642,1024.5105,
2021.01.19 08:52:54,6.0,24.0,33.84,-0.59999996,-27.119999,0.15323359,1.0343267,9.684841,-0.0063169575,0.0012284501,-0.003553403,-0.10638201236724854,-0.015820683911442757,-1.5059278011322021,1024.5117,
2021.01.19 08:52:55,6.0,24.0,34.079998,-0.53999996,-26.939999,0.13168511,1.0462981,9.60583,0.004678617,-0.0042693373,-0.002942538,-0.1084854006767273,-0.013708014972507954,-1.503280758857727,1024.508,
2021.01.19 08:52:55,6.0,24.0,34.02,-0.78,-27.359999,0.16520496,1.0175668,9.586677,-0.008149553,0.0061153723,-0.0047751334,-0.10573231428861618,-0.017231062054634094,-1.5114364624023438,1024.508,
2021.01.19 08:52:55,6.0,24.0,34.32,-0.59999996,-27.24,0.20590763,1.063058,9.632168,-0.014869071,0.0018393153,0.0025552493,-0.10989563912153244,-0.021373825147747993,-1.5046921968460083,1024.5095,
2021.01.19 08:52:55,6.0,24.0,34.26,-0.84,-27.119999,0.19154198,1.0702409,9.57231,-0.0044843615,0.0042827763,0.0031661147,-0.11132138967514038,-0.020007336512207985,-1.5104811191558838,1024.5095,
2021.01.19 08:52:55,6.0,24.0,33.899998,-1.14,-27.48,0.14844504,1.0343267,9.715967,-0.0069278227,0.007337102,-0.0011099422,-0.10604465752840042,-0.015277273021638393,-1.5207185745239258,1024.5161,
2021.01.19 08:52:55,6.0,24.0,33.84,-1.0799999,-27.3,0.15083931,1.0870007,9.569917,0.009565539,-0.0042693373,0.006831306,-0.11308653652667999,-0.01576051488518715,-1.5140366554260254,1024.5181,
2021.01.19 08:52:55,6.0,24.0,33.78,-1.26,-27.24,0.17238778,1.0702409,9.682447,0.0028460212,0.0012284501,0.0031661147,-0.11006993800401688,-0.017802271991968155,-1.5219918489456177,1024.5181,
2021.01.19 08:52:55,6.0,24.0,33.96,-1.3199999,-27.539999,0.15323359,0.9984126,9.5794935,0.007122078,-0.0054910677,0.00499871,-0.1038358211517334,-0.015994636341929436,-1.527651071548462,1024.5149,
2021.01.19 08:52:55,6.0,24.0,33.899998,-0.96,-27.119999,0.19633053,1.0750294,9.663293,-0.0063169575,0.0012284501,0.0025552493,-0.11077051609754562,-0.020314350724220276,-1.513748049736023,1024.5149,
2021.01.19 08:52:55,6.0,24.0,33.899998,-1.14,-26.82,0.15562786,1.010384,9.557945,0.008343808,-0.0030476067,0.00499871,-0.10530641674995422,-0.01628112606704235,-1.5234408378601074,1024.5225,
2021.01.19 08:52:55,6.0,24.0,33.719997,-1.3199999,-27.18,0.23224466,1.0654523,9.58907,-0.0075386884,-0.001215011,0.0019443841,-0.11062505841255188,-0.02421499229967594,-1.5243417024612427,1024.512,
2021.01.19 08:52:55,6.0,24.0,33.6,-1.38,-27.24,0.1340794,1.0247496,9.663293,0.007732943,-0.0018258762,-0.0011099422,-0.10564064234495163,-0.0138742346316576,-1.528126835823059,1024.512,
2021.01.19 08:52:55,6.0,24.0,33.6,-1.68,-27.48,0.24182175,1.0510867,9.620196,0.0022351558,0.0042827763,-0.0011099422,-0.10879257321357727,-0.02513159066438675,-1.5351916551589966,1024.5078,
2021.01.19 08:52:55,6.0,24.0,33.84,-1.8,-27.66,0.13886794,1.0822122,9.6585045,0.017506786,0.007947967,-0.003553403,-0.11157074570655823,-0.014376798644661903,-1.5346972942352295,1024.5078,
2021.01.19 08:52:55,6.0,24.0,33.899998,-1.5,-27.3,0.15083931,1.0439038,9.47654,0.006511213,0.009169698,-0.0023316727,-0.1097005158662796,-0.01591578498482704,-1.5289220809936523,1024.5068,
2021.01.19 08:52:55,6.0,24.0,33.899998,-1.4399999,-27.06,0.16520496,1.0606637,9.718362,-0.020366857,0.03360431,-0.007829459,-0.10869432240724564,-0.016997622326016426,-1.5288751125335693,1024.5061,
2021.01.19 08:52:55,6.0,24.0,34.2,-1.3199999,-27.18,0.12929083,1.0486923,9.514848,-2.0830505E-4,0.028106522,-0.003553403,-0.10976328700780869,-0.013587487861514091,-1.5241329669952393,1024.5061,
2021.01.19 08:52:56,6.0,24.0,34.32,-1.3199999,-27.119999,0.08619389,1.0151725,9.565128,-0.0075386884,0.021387003,0.008053036,-0.10573256760835648,-0.00901101902127266,-1.526940941810608,1024.5164,
2021.01.19 08:52:56,6.0,24.0,34.44,-1.56,-27.119999,0.14126222,1.2043202,10.324113,-0.12177049,-0.014654046,0.042872358,-0.11611559987068176,-0.013681892305612564,-1.5266509056091309,1024.5164,
