Time,X-cord,Y-cord,Mag_x,Mag_y,Mag_z,Acc_x,Acc_y,Acc_z,Gyro_x,Gyro_y,Gyro_z,Orn_x,Orn_y,Orn_z,Pressure,
2021.02.11 15:17:24,90.0,11.0,33.063095,2.1863775,-19.551199,-0.1214059,0.79249865,10.016987,0.08897224,-0.1411468,-0.07962914,-0.07894524931907654,0.012119408696889877,-1.456954836845398,1015.98413,
2021.02.11 15:17:24,90.0,11.0,32.99211,0.6373234,-19.61318,-0.042724207,0.7572896,9.352026,0.097918116,0.030520767,-0.046779517,-0.08079885691404343,0.004568412434309721,-1.5031112432479858,1015.9842,
2021.02.11 15:17:25,90.0,11.0,32.997177,1.6017914,-18.780233,-0.41528964,0.7999902,9.299388,-0.17531674,0.04322077,0.10415547,-0.08572980761528015,0.0446280874311924,-1.4675612449645996,1015.98413,
2021.02.11 15:17:25,90.0,11.0,32.4793,1.7191095,-21.067186,0.04929325,0.5700319,10.034929,-0.09680147,0.047781654,0.086816005,-0.056743111461400986,-0.004912127740681171,-1.4819625616073608,1015.98413,
2021.02.11 15:17:25,90.0,11.0,32.96144,2.6183672,-20.434496,0.16256656,0.4385189,9.909418,0.027883543,-0.00834045,0.0025415719,-0.04421794414520264,-0.016403786838054657,-1.4661979675292969,1015.9838,
2021.02.11 15:17:25,90.0,11.0,33.06833,4.035404,-20.704935,-0.07487988,0.57105446,9.5335,-0.04770403,0.013645259,4.4383015E-4,-0.05982644110918045,0.007854233495891094,-1.4116406440734863,1015.98346,
2021.02.11 15:17:25,90.0,11.0,32.73841,1.5907402,-19.029066,-0.05770335,0.5916452,9.859111,-0.037221413,0.044078555,-0.0026374531,-0.05993709713220596,0.005852727685123682,-1.4870362281799316,1015.9832,
2021.02.11 15:17:25,90.0,11.0,34.815773,2.927909,-18.915869,-0.079362184,0.5011222,9.843057,0.014638832,-2.4660537E-4,-0.0106776105,-0.05086566507816315,0.008062583394348621,-1.458749532699585,1015.9826,
2021.02.11 15:17:25,90.0,11.0,34.384285,2.9358377,-19.586176,-0.15022391,0.54363495,9.67172,-0.022496974,0.008071583,0.01598286,-0.05614287406206131,0.015531037002801895,-1.4522072076797485,1015.98236,
2021.02.11 15:17:25,90.0,11.0,33.162827,3.3948855,-19.04347,-0.07655259,0.49968162,9.847603,0.0017377146,0.0024645252,0.0031142158,-0.050696440041065216,0.007773571647703648,-1.439234733581543,1015.98236,
2021.02.11 15:17:25,90.0,11.0,31.715141,2.546029,-19.129175,-0.08288133,0.47099194,9.6590605,-0.010625675,0.01450648,0.0035336122,-0.04872129485011101,0.008580471388995647,-1.4606927633285522,1015.9821,
2021.02.11 15:17:25,90.0,11.0,33.176514,2.1490288,-19.799047,-0.11782823,0.45330834,9.74165,-0.031536162,0.0049891295,5.4326566E-4,-0.04649607464671135,0.012094716541469097,-1.4773823022842407,1015.9821,
2021.02.11 15:17:25,90.0,11.0,33.514107,2.954369,-19.037954,-0.16523646,0.52649873,9.832982,-7.3102047E-4,0.001537095,0.019672781,-0.05348553881049156,0.016802726313471794,-1.4509179592132568,1015.9821,
2021.02.11 15:17:25,90.0,11.0,32.755318,3.0842843,-19.578302,-0.060136702,0.41603455,9.720406,0.0012487272,0.001602557,0.009191491,-0.04277319833636284,0.006186566315591335,-1.4510273933410645,1015.9821,
2021.02.11 15:17:25,90.0,11.0,32.829926,2.7949028,-18.729845,-0.07221917,0.48444247,9.809841,-0.01684325,1.9955094E-4,0.0016359752,-0.04934189096093178,0.007361777126789093,-1.4572744369506836,1015.98126,
2021.02.11 15:17:25,90.0,11.0,33.92237,2.4115143,-19.828516,-0.028610913,0.4327115,9.757121,-0.0038258748,-9.4574486E-4,-0.0038391864,-0.04431904852390289,0.0029323026537895203,-1.4738874435424805,1015.98126,
2021.02.11 15:17:25,90.0,11.0,33.02594,3.4444413,-20.270857,-0.15658487,0.4834442,9.721265,-0.004137109,-0.003161579,-0.024420237,-0.04968321695923805,0.01610606536269188,-1.4348257780075073,1015.98,
2021.02.11 15:17:26,90.0,11.0,33.15249,3.4534283,-20.3189,-0.16432922,0.49846327,9.78521,-0.007293895,-0.0013390821,-0.0048844973,-0.05088932067155838,0.0167920533567667,-1.4341596364974976,1015.98,
2021.02.11 15:17:26,90.0,11.0,33.04094,2.1825037,-19.334986,-0.05429827,0.41415194,9.821485,0.018849656,-0.007076924,-0.024134925,-0.0421423502266407,0.005528463516384363,-1.4798692464828491,1015.9799,
2021.02.11 15:17:26,90.0,11.0,33.997093,1.9972286,-19.932425,-0.17026849,0.49380025,9.667548,-0.0021957234,-0.003136789,-0.012590401,-0.0510258749127388,0.01761055365204811,-1.4806264638900757,1015.97845,
2021.02.11 15:17:26,90.0,11.0,31.937172,2.0810976,-18.773375,-0.16811053,0.46433768,9.743304,-0.015938975,-0.0015502102,0.005096675,-0.047614000737667084,0.01725224405527115,-1.476219892501831,1015.9784,
2021.02.11 15:17:26,90.0,11.0,33.07119,3.303821,-20.573458,-0.09886771,0.4194356,9.665599,0.0064697294,-0.008308122,0.0085734315,-0.04336520656943321,0.010228467173874378,-1.4434505701065063,1015.9784,
2021.02.11 15:17:26,90.0,11.0,33.06672,3.3778768,-19.518549,-0.1035072,0.46055284,9.849198,-0.012507772,-2.9908988E-4,0.007382922,-0.046723827719688416,0.01050881389528513,-1.440616250038147,1015.9784,
2021.02.11 15:17:26,90.0,11.0,31.793785,2.3106441,-19.281729,-0.09764557,0.48596397,9.768679,0.0011490351,-0.0148551725,0.0039551063,-0.049703702330589294,0.009995448403060436,-1.467320203781128,1015.9784,
2021.02.11 15:17:26,90.0,11.0,33.051796,2.8413348,-19.655188,-0.045801263,0.41041732,9.716084,0.0030237723,-0.003944063,-0.011643484,-0.042215459048748016,0.004713928792625666,-1.459755778312683,1015.9784,
2021.02.11 15:17:26,90.0,11.0,32.67176,1.9046555,-20.373766,-0.10339469,0.46651623,9.748929,-0.0040744236,-0.0040450054,-0.0102921575,-0.047813910990953445,0.010605351068079472,-1.4818966388702393,1015.9784,
2021.02.11 15:17:26,90.0,11.0,32.32557,2.1764593,-18.894022,-0.10292987,0.45545247,9.789459,0.0019707386,-0.009725643,-0.014201769,-0.046488694846630096,0.010513968765735626,-1.4755867719650269,1015.9784,
2021.02.11 15:17:26,90.0,11.0,32.99964,2.4711637,-19.59398,-0.12199432,0.4843563,9.737064,-0.0042821458,0.0021245142,3.8466067E-4,-0.04969870299100876,0.01252820435911417,-1.465483546257019,1015.9784,
2021.02.11 15:17:26,90.0,11.0,32.14927,2.4748983,-19.433931,-0.038212042,0.4076585,9.816064,0.014309455,-0.003470529,-0.023613743,-0.041505567729473114,0.003892787266522646,-1.4687511920928955,1015.9784,
2021.02.11 15:17:26,90.0,11.0,33.212646,2.35151,-19.507551,-0.1256542,0.45388126,9.791466,-0.0012585514,0.005927956,-7.7445863E-4,-0.04631781578063965,0.01283232867717743,-1.4718513488769531,1015.97845,
2021.02.11 15:17:27,90.0,11.0,32.72322,2.8382287,-20.269506,-0.12641215,0.46594253,9.672179,0.0023891802,0.007464728,-0.003799995,-0.04813215881586075,0.013068921864032745,-1.453311562538147,1015.9785,
2021.02.11 15:17:27,90.0,11.0,33.81739,1.9218702,-20.377138,-0.07861264,0.41938367,9.868401,-0.0196592,0.02476098,0.009971182,-0.04247073456645012,0.007965928874909878,-1.4878846406936646,1015.9786,
2021.02.11 15:17:27,90.0,11.0,33.760887,2.8020983,-19.869913,-0.17135704,0.48615232,9.683209,0.011716364,-0.0028320043,0.012349092,-0.05015574395656586,0.01769445836544037,-1.4567993879318237,1015.97906,
2021.02.11 15:17:27,90.0,11.0,33.234024,2.5055752,-19.553404,-0.10097442,0.4447049,9.733619,-0.014403767,-0.0012419377,0.005393479,-0.0456533208489418,0.01037340797483921,-1.4678889513015747,1015.97925,
2021.02.11 15:17:27,90.0,11.0,33.61219,2.7721605,-20.167372,-0.12417855,0.49690947,9.772763,-5.4541416E-4,-0.007562995,0.010635988,-0.05079852417111397,0.012705910950899124,-1.4569326639175415,1015.97925,
2021.02.11 15:17:27,90.0,11.0,33.75152,3.2840362,-19.623495,-0.13625975,0.5076017,9.753837,-0.0038159483,-0.0031983983,0.008928639,-0.05198926478624344,0.013968952931463718,-1.442340612411499,1015.97925,
2021.02.11 15:17:27,90.0,11.0,33.187218,2.5973358,-19.43419,-0.12733081,0.48410478,9.836354,5.687432E-4,-0.0049277013,0.009067467,-0.04917208477854729,0.012944196350872517,-1.4628016948699951,1015.97925,
2021.02.11 15:17:27,90.0,11.0,33.06228,3.4991531,-18.724619,-0.11211369,0.46601033,9.665807,0.028224722,-0.001744559,0.010146902,-0.048171721398830414,0.011598479934036732,-1.4371651411056519,1015.97925,
2021.02.11 15:17:27,90.0,11.0,33.425896,2.0087013,-18.953657,-0.11031342,0.4633671,9.778371,0.014648117,0.0027675456,0.0060163215,-0.0473485141992569,0.011280892416834831,-1.483056664466858,1015.97906,
2021.02.11 15:17:27,90.0,11.0,33.550667,3.2953734,-19.280111,-0.14162083,0.5325625,9.817066,-3.910507E-6,-0.0027637691,0.0021739122,-0.05418989062309265,0.01442498154938221,-1.4404592514038086,1015.979,
2021.02.11 15:17:27,90.0,11.0,32.97184,2.795878,-19.252058,-0.12192286,0.48133627,9.727125,0.013708898,-0.0015011774,0.011914894,-0.04943970963358879,0.012533659115433693,-1.4562835693359375,1015.9789,
2021.02.11 15:17:27,90.0,11.0,32.73996,1.303071,-18.50469,-0.1125718,0.4869121,9.739559,0.0021746138,-0.0031484894,0.004514767,-0.0499483197927475,0.011557688005268574,-1.501904845237732,1015.9789,
2021.02.11 15:17:27,90.0,11.0,32.53163,2.8896809,-18.525213,-0.11291797,0.5379727,9.757794,0.0031243793,-0.0016003277,0.01187761,-0.05507316812872887,0.01157156191766262,-1.4499074220657349,1015.9789,
2021.02.11 15:17:27,90.0,11.0,32.97397,2.7209291,-20.55173,-0.097164,0.5437066,9.7858095,0.0068211304,-0.0034001453,0.0026992382,-0.055500924587249756,0.009928744286298752,-1.4530915021896362,1015.9789,
2021.02.11 15:17:28,90.0,11.0,32.793007,2.1840591,-20.033545,-0.038795922,0.509139,9.756184,0.010015447,0.002357476,-0.005964501,-0.05213857442140579,0.003976525738835335,-1.4723197221755981,1015.9788,
2021.02.11 15:17:28,90.0,11.0,33.08194,3.2898397,-19.45392,-0.15964669,0.5896954,9.7974,-0.003845326,0.0031404668,-0.012268886,-0.060108479112386703,0.0162933599203825,-1.4347468614578247,1015.97864,
2021.02.11 15:17:28,90.0,11.0,33.64176,3.004476,-20.30659,-0.073712796,0.47064328,9.778739,0.0049713003,-5.1721133E-4,0.004494774,-0.04809076339006424,0.007537924684584141,-1.4522265195846558,1015.97864,
2021.02.11 15:17:28,90.0,11.0,33.164963,3.5326133,-19.763174,-0.115681164,0.51800764,9.681867,-0.0051025124,0.005633201,-0.0067975745,-0.05344809591770172,0.011947660706937313,-1.431856632232666,1015.97864,
2021.02.11 15:17:28,90.0,11.0,32.920944,2.8686547,-20.109228,-0.1798714,0.57806045,9.748984,-0.0047443025,-0.00233474,0.0013798274,-0.059215035289525986,0.018448175862431526,-1.4457942247390747,1015.97864,
2021.02.11 15:17:28,90.0,11.0,33.50489,2.798132,-19.255629,-0.093165696,0.5929529,9.822228,0.005623391,-3.466127E-4,0.0079620015,-0.06029259040951729,0.009484904818236828,-1.4521390199661255,1015.97864,
2021.02.11 15:17:28,90.0,11.0,33.18949,2.5250692,-19.573137,0.012075814,0.47948638,9.739062,0.021502597,-0.010044678,-0.02504812,-0.04919356107711792,-0.001239935401827097,-1.4663276672363281,1015.97864,
2021.02.11 15:17:28,90.0,11.0,32.959854,2.6925383,-19.069818,-0.19808348,0.5731344,9.684177,-0.014498013,-6.5400027E-4,-0.0133571485,-0.05910126864910126,0.020451489835977554,-1.4529949426651,1015.97864,
2021.02.11 15:17:28,90.0,11.0,34.33509,2.6122046,-20.029718,-0.17208047,0.5979586,9.818135,0.0074048024,-0.0080703255,0.012410822,-0.060819029808044434,0.017525002360343933,-1.4576462507247925,1015.97864,
2021.02.11 15:17:28,90.0,11.0,32.74176,2.5889301,-20.28029,-0.0123821655,0.47034177,9.671309,-0.008979015,-8.95793E-4,-0.014023508,-0.048594359308481216,0.001280298107303679,-1.4620131254196167,1015.97864,
2021.02.11 15:17:28,90.0,11.0,32.64804,2.4269962,-20.221018,-0.12786484,0.5817905,9.794822,-0.0072675617,-0.0016530356,-0.011269811,-0.0593230202794075,0.013053588569164276,-1.4586495161056519,1015.97864,
2021.02.11 15:17:28,90.0,11.0,33.79383,3.7252636,-18.828485,-0.15645775,0.5391612,9.756335,0.0017282107,-0.0061782985,0.0035489027,-0.05519944429397583,0.016035154461860657,-1.4287762641906738,1015.97864,
2021.02.11 15:17:28,90.0,11.0,33.632988,3.3997684,-20.21807,-0.1129565,0.56505233,9.725171,-0.009184326,0.004513319,0.0031937414,-0.058032888919115067,0.01161433756351471,-1.4342314004898071,1015.97864,
2021.02.11 15:17:29,90.0,11.0,32.841118,2.6813602,-20.058027,-0.08293075,0.504175,9.8484125,0.012732581,-6.567233E-5,0.0017883882,-0.05114706605672836,0.008420523256063461,-1.4575003385543823,1015.97864,
2021.02.11 15:17:29,90.0,11.0,33.538994,3.3335714,-19.446962,-0.12096295,0.5502007,9.667396,0.001260014,0.0073275743,4.6373042E-4,-0.05684725567698479,0.012511812150478363,-1.4377201795578003,1015.97864,
2021.02.11 15:17:29,90.0,11.0,32.80285,1.9809704,-19.910334,-0.12536745,0.5009962,9.793893,-0.0025287622,-0.0022867774,0.007483172,-0.051105208694934845,0.012799874879419804,-1.4783642292022705,1015.9786,
2021.02.11 15:17:29,90.0,11.0,33.76986,3.2964878,-19.357573,-0.13111304,0.55571944,9.756339,0.0018700276,0.0034363887,0.0148794465,-0.056893229484558105,0.01343794446438551,-1.4397106170654297,1015.9786,
2021.02.11 15:17:29,90.0,11.0,33.983604,2.3287582,-20.310423,-0.069752395,0.46476826,9.721733,-0.0040092412,-0.0019263867,0.004076222,-0.047769539058208466,0.0071747698821127415,-1.473355770111084,1015.9785,
2021.02.11 15:17:29,90.0,11.0,32.92575,2.46206,-20.522821,-0.15518121,0.59274083,9.750129,-0.013548145,0.0029808348,0.017510751,-0.060710735619068146,0.015914468094706535,-1.4567254781723022,1015.978,
2021.02.11 15:17:29,90.0,11.0,35.079704,3.5149598,-18.731634,-0.06790509,0.51645,9.804629,0.0033988385,-0.006352083,0.012396041,-0.05262419953942299,0.006925708614289761,-1.4425134658813477,1015.978,
2021.02.11 15:17:29,90.0,11.0,33.312515,3.2588725,-19.199217,-0.07975937,0.527493,9.720969,-0.009596327,-0.00516176,0.003590232,-0.0542084276676178,0.008204693906009197,-1.4415478706359863,1015.978,
2021.02.11 15:17:29,90.0,11.0,34.262856,2.9824657,-19.325037,-0.10525665,0.55131894,9.821458,0.0030058268,6.6633103E-4,0.009354198,-0.056072063744068146,0.010716598480939865,-1.451516032218933,1015.978,
2021.02.11 15:17:29,90.0,11.0,33.57084,1.7811823,-18.837439,-0.092058726,0.52110386,9.7002,0.013300184,-0.009665237,0.0032610162,-0.05366693437099457,0.009490109980106354,-1.486953854560852,1015.978,
2021.02.11 15:17:29,90.0,11.0,33.943703,2.6434956,-19.046366,-0.097696,0.544875,9.855849,-0.020621449,0.0023794111,0.007718729,-0.05522550269961357,0.009912164881825447,-1.4613410234451294,1015.9778,
2021.02.11 15:17:29,90.0,11.0,33.68595,1.5615826,-19.280863,-0.08584907,0.49903095,9.702618,0.016956072,-0.0020942595,0.0035407112,-0.051385316997766495,0.008847801014780998,-1.4944069385528564,1015.9778,
2021.02.11 15:17:29,90.0,11.0,32.454628,1.9561272,-19.353933,-0.1019652,0.5325628,9.773343,0.005087533,-0.003992726,0.0036010866,-0.05443456396460533,0.010432612150907516,-1.477286696434021,1015.9778,
2021.02.11 15:17:29,90.0,11.0,31.77324,3.3426762,-20.221964,-0.116903305,0.54452497,9.7228365,0.0013612121,-0.008770557,0.0044168094,-0.05594226345419884,0.012023000977933407,-1.4293524026870728,1015.9778,
2021.02.11 15:17:29,90.0,11.0,33.091988,2.6741133,-19.388025,-0.08682392,0.5573947,9.759916,-9.432249E-4,2.4676256E-4,0.0044660615,-0.057046376168727875,0.008895734325051308,-1.456109642982483,1015.9778,
2021.02.11 15:17:30,90.0,11.0,33.14344,3.6070514,-20.3753,-0.04464656,0.48831287,9.747479,-0.0031603219,-0.0026699412,-0.0072900113,-0.050053950399160385,0.004580286331474781,-1.4316235780715942,1015.97766,
2021.02.11 15:17:30,90.0,11.0,33.53428,2.5263872,-20.593405,-0.13516371,0.6033783,9.7458315,-0.0053862315,0.0024849582,0.008655727,-0.06182657554745674,0.013867984525859356,-1.4563186168670654,1015.9775,
2021.02.11 15:17:30,90.0,11.0,32.84072,2.557994,-19.916754,-0.12918852,0.5582679,9.754127,-0.0015184854,-0.004624618,-0.005385599,-0.05716664716601372,0.013243724592030048,-1.45719313621521,1015.9774,
2021.02.11 15:17:30,90.0,11.0,33.01114,3.5148764,-19.367102,-0.07019541,0.52728814,9.788559,-0.0066438178,-0.0029530402,0.004668813,-0.05381440371274948,0.0071710459887981415,-1.4328277111053467,1015.97723,
2021.02.11 15:17:30,90.0,11.0,34.50715,3.841692,-20.462019,-0.023591971,0.48293695,9.689415,-0.012787145,-0.0043368903,-0.006252596,-0.04980034753680229,0.002434814115986228,-1.4306846857070923,1015.97675,
2021.02.11 15:17:30,90.0,11.0,32.609016,2.8318443,-19.254358,-0.13253547,0.5744349,9.77912,-0.009352649,-8.783654E-4,0.0011139235,-0.05866815894842148,0.013552073389291763,-1.4483104944229126,1015.97675,
2021.02.11 15:17:30,90.0,11.0,33.623985,3.9889932,-19.862143,-0.08209401,0.510282,9.802253,0.0036345357,-0.0036127318,0.007042492,-0.05200885236263275,0.008374819532036781,-1.4215476512908936,1015.97675,
2021.02.11 15:17:30,90.0,11.0,33.09529,1.2719173,-19.60399,-0.07260711,0.519061,9.759213,0.003152791,-0.0030861476,-0.0020660926,-0.053135231137275696,0.007439715322107077,-1.500368356704712,1015.97675,
2021.02.11 15:17:30,90.0,11.0,33.269142,2.2630062,-20.929533,-0.088441454,0.52343154,9.789699,-0.0032922367,0.004699611,0.0050048633,-0.05341454595327377,0.009033888578414917,-1.4685746431350708,1015.97675,
2021.02.11 15:17:30,90.0,11.0,33.348557,2.677452,-20.850893,-0.09762126,0.5214455,9.722762,0.012382621,-0.0064353333,-0.004356308,-0.05357738956809044,0.010040149092674255,-1.4563806056976318,1015.97675,
2021.02.11 15:17:30,90.0,11.0,33.744102,3.1792598,-19.90381,-0.06323474,0.51574355,9.7037325,-0.008297702,-0.0062298076,0.011058145,-0.05309790372848511,0.006516445893794298,-1.445238471031189,1015.97675,
2021.02.11 15:17:30,90.0,11.0,33.28546,1.6357813,-18.684801,-0.09618822,0.515495,9.790071,-0.006300999,0.0016214156,0.003317218,-0.05260376259684563,0.009824763983488083,-1.491414189338684,1015.97723,
2021.02.11 15:17:30,90.0,11.0,32.960197,2.2407532,-18.93315,-0.12842311,0.57102156,9.71069,-0.0010574434,0.0016723948,0.006854114,-0.05873064324259758,0.01322415005415678,-1.468010663986206,1015.9774,
2021.02.11 15:17:31,90.0,11.0,32.68139,2.8163795,-19.893652,0.010078295,0.46092942,9.764321,-0.004280635,-0.0023619314,0.024829067,-0.047170430421829224,-0.0010321548907086253,-1.4566318988800049,1015.9774,
2021.02.11 15:17:31,90.0,11.0,34.096046,3.3018537,-19.573881,-0.12874813,0.5670269,9.776267,-0.010188341,0.002880698,0.0028360393,-0.05793043226003647,0.01316869631409645,-1.4398677349090576,1015.9775,
2021.02.11 15:17:31,90.0,11.0,33.81614,3.5901241,-19.607435,-0.10820695,0.53618747,9.743472,-7.344261E-4,0.0052637807,0.013468818,-0.0549716018140316,0.01110512763261795,-1.4323108196258545,1015.9775,
2021.02.11 15:17:31,90.0,11.0,32.771416,2.7576976,-18.631876,-0.034219142,0.47472242,9.803912,-0.0021334302,0.0042319605,0.019790215,-0.048383649438619614,0.003490341827273369,-1.4593206644058228,1015.9776,
2021.02.11 15:17:31,90.0,11.0,32.415337,2.8918061,-19.342867,-0.093186796,0.52870935,9.709692,0.013804936,0.008138815,0.005446107,-0.054395489394664764,0.009597002528607845,-1.4486565589904785,1015.97766,
2021.02.11 15:17:31,90.0,11.0,32.776535,2.554287,-19.687662,-0.10475551,0.5243891,9.750961,7.9639495E-4,0.007410589,0.0056966804,-0.05372334271669388,0.010742682963609695,-1.45988130569458,1015.9777,
2021.02.11 15:17:31,90.0,11.0,32.82936,2.9102955,-19.361685,-0.1708743,0.517121,9.76463,-0.0011892417,0.015037071,0.023110129,-0.052901070564985275,0.017497524619102478,-1.4494879245758057,1015.97784,
2021.02.11 15:17:31,90.0,11.0,33.986824,2.3604193,-19.7675,-0.3306031,0.48983732,9.340722,-0.11768598,0.05060416,0.08578117,-0.05236033350229263,0.035378970205783844,-1.467337965965271,1015.97784,
2021.02.11 15:17:31,90.0,11.0,33.15445,2.5913963,-19.04946,-0.35674915,0.43781433,9.742079,-0.18101951,0.029082488,0.14581078,-0.04488028213381767,0.03660305216908455,-1.4633866548538208,1015.97784,
2021.02.11 15:17:31,90.0,11.0,33.532524,3.8797202,-19.449434,0.051057,0.36911646,10.523712,0.14232098,-0.09206215,0.08408662,-0.03505995124578476,-0.0048515768721699715,-1.436204433441162,1015.9779,
2021.02.11 15:17:31,90.0,11.0,33.08528,2.4608269,-19.890936,0.030040814,0.3576223,9.804978,0.17804143,-0.1643864,0.044944648,-0.036457210779190063,-0.0030638230964541435,-1.475135087966919,1015.97797,
2021.02.11 15:17:31,90.0,11.0,33.65438,1.7702122,-19.908663,-0.008934982,0.5796971,9.615468,0.09988152,-0.14263372,0.048297945,-0.0602150596678257,9.292297763749957E-4,-1.4828157424926758,1015.9787,
2021.02.11 15:17:31,90.0,11.0,31.340927,1.1320305,-20.69927,0.13550933,0.66699535,10.196438,0.2390377,-0.2224051,0.037221808,-0.06531573086977005,-0.013289086520671844,-1.4933466911315918,1015.9787,
2021.02.11 15:17:31,90.0,11.0,32.002335,1.2820044,-20.078669,0.43097067,0.86720777,8.7738,0.04024232,0.055099614,0.040995266,-0.09840273857116699,-0.0490807369351387,-1.4772344827651978,1015.97894,
