Time,X-cord,Y-cord,Mag_x,Mag_y,Mag_z,Acc_x,Acc_y,Acc_z,Gyro_x,Gyro_y,Gyro_z,Orn_x,Orn_y,Orn_z,Pressure,
2021.02.11 15:11:35,76.0,24.0,42.92266,7.42624,-16.068426,0.20360227,0.7568555,10.254304,0.17717916,-0.016515985,-0.044852242,-0.07366050779819489,-0.019852690398693085,-1.3760919570922852,1016.1046,
2021.02.11 15:11:36,76.0,24.0,41.17753,5.8396497,-16.711,0.04595528,0.73312885,9.663167,-0.03189857,0.028830139,0.030393243,-0.07572246342897415,-0.004755680449306965,-1.4010244607925415,1016.10425,
2021.02.11 15:11:36,76.0,24.0,40.844017,7.048436,-15.458887,0.12727219,0.7432173,10.05307,-0.09239207,0.010147127,0.060188055,-0.07378923892974854,-0.012659355998039246,-1.3751957416534424,1016.10364,
2021.02.11 15:11:36,76.0,24.0,41.34185,5.8396754,-15.934534,0.0056782416,0.7822625,9.651606,0.049960915,-0.012953173,4.7894928E-4,-0.08087319880723953,-5.883208359591663E-4,-1.400615930557251,1016.103,
2021.02.11 15:11:36,76.0,24.0,40.33213,5.814966,-16.109068,-0.0012757495,0.7725649,9.799674,0.03271793,-0.009493165,0.012691694,-0.07867305725812912,1.3018285972066224E-4,-1.3974140882492065,1016.10236,
2021.02.11 15:11:36,76.0,24.0,42.113,6.230107,-16.938265,5.5236305E-4,0.706049,9.652411,0.011121457,0.016841084,-0.00695245,-0.07301738113164902,-5.7225395721616223E-5,-1.395729422569275,1016.102,
2021.02.11 15:11:36,76.0,24.0,40.850533,6.3922915,-16.067049,0.025695419,0.72408074,9.867419,0.0073635094,0.033079326,-0.035453774,-0.07324942201375961,-0.0026040610391646624,-1.3883812427520752,1016.1017,
2021.02.11 15:11:36,76.0,24.0,41.255623,5.690555,-15.401712,-0.076874904,0.6427875,9.9015,0.05227237,0.016538268,-0.04242058,-0.06482528150081635,0.007763809524476528,-1.4094051122665405,1016.1017,
2021.02.11 15:11:36,76.0,24.0,42.313133,7.4352956,-15.617201,-0.28455973,0.7395787,9.716981,0.034525994,0.003344678,-0.014491566,-0.07593309879302979,0.029276421293616295,-1.3659547567367554,1016.1017,
2021.02.11 15:11:36,76.0,24.0,42.368492,6.57656,-15.681532,-0.22995605,0.7220588,9.739314,0.0077240802,0.013228809,0.02749317,-0.07398262619972229,0.02360672689974308,-1.387317419052124,1016.1003,
2021.02.11 15:11:36,76.0,24.0,42.25112,6.7384586,-15.684511,-0.32429048,0.90935016,9.717383,0.016635012,0.004281561,0.038294636,-0.093256376683712,0.033359821885824203,-1.3743401765823364,1016.1,
2021.02.11 15:11:36,76.0,24.0,41.85444,5.167774,-15.976854,-0.29110047,0.95626354,9.388344,0.04287775,-0.02628942,0.07005372,-0.10145798325538635,0.03099665232002735,-1.405644416809082,1016.09827,
2021.02.11 15:11:36,76.0,24.0,41.48397,5.6281652,-16.882048,0.25466233,0.43157828,9.792563,-0.049647853,-0.015599534,0.15397032,-0.04402867332100868,-0.025999825447797775,-1.421166181564331,1016.0973,
2021.02.11 15:11:36,76.0,24.0,42.060127,5.9574404,-16.20812,0.6042778,0.23352115,9.143181,-0.05519271,-0.037122715,0.13304977,-0.025479359552264214,-0.06599456816911697,-1.4255156517028809,1016.0971,
2021.02.11 15:11:36,76.0,24.0,42.121407,4.969105,-15.852209,-0.549247,1.0547457,10.076493,-0.1311982,0.028514436,-0.1309917,-0.10414060950279236,0.05445386841893196,-1.4065948724746704,1016.0961,
2021.02.11 15:11:37,76.0,24.0,41.767708,7.72014,-15.253511,-0.6643385,1.1313777,10.365499,-0.17863725,0.032503713,-0.05065863,-0.10849718749523163,0.06400378048419952,-1.3389064073562622,1016.0961,
2021.02.11 15:11:37,76.0,24.0,41.535347,7.102124,-14.967928,0.2164462,0.3681227,9.24752,0.076626115,-0.019360226,0.1248982,-0.039775826036930084,-0.023401591926813126,-1.3900320529937744,1016.0961,
2021.02.11 15:11:37,76.0,24.0,42.469917,6.1912975,-15.116777,0.28704196,0.37234107,9.658207,-0.12676631,0.038100597,-0.052145563,-0.03851570934057236,-0.02971125952899456,-1.4154174327850342,1016.09595,
2021.02.11 15:11:37,76.0,24.0,41.660606,5.721943,-17.002996,-0.16206066,0.7226625,10.166518,-3.6308588E-4,0.02173811,-0.04375968,-0.07095425575971603,0.015939276665449142,-1.404178500175476,1016.09595,
2021.02.11 15:11:37,76.0,24.0,42.332985,5.8412724,-16.120203,-0.33321083,0.69910043,9.778594,0.03990778,3.1477935E-4,0.0011617217,-0.0713302493095398,0.034062355756759644,-1.4029117822647095,1016.09595,
2021.02.11 15:11:37,76.0,24.0,41.493446,5.9106627,-15.254709,-0.03641495,0.543243,9.686974,0.0066573615,-0.009562403,0.010930419,-0.05602066591382027,0.003759148996323347,-1.4089772701263428,1016.09595,
2021.02.11 15:11:37,76.0,24.0,42.107048,6.852825,-15.407526,-0.10729108,0.57182163,9.791608,0.02015028,0.004539678,-0.025614532,-0.05832940712571144,0.010957014746963978,-1.387677550315857,1016.09595,
2021.02.11 15:11:37,76.0,24.0,42.517326,6.1845484,-15.293531,-0.21829374,0.6692452,9.597291,0.0525474,-0.0026859692,-0.044809226,-0.06960207223892212,0.02274142950773239,-1.3993374109268188,1016.09595,
2021.02.11 15:11:37,76.0,24.0,42.49874,7.346321,-16.063017,-0.06599326,0.6107283,9.84899,-0.004800623,0.006917283,-0.020609276,-0.061928555369377136,0.006700409576296806,-1.37644362449646,1016.09595,
2021.02.11 15:11:37,76.0,24.0,42.815437,6.9851055,-15.904551,-0.12396958,0.6125427,9.71423,0.019110426,0.0088049695,-0.034905314,-0.06296774744987488,0.012760954909026623,-1.3850587606430054,1016.0959,
2021.02.11 15:11:37,76.0,24.0,41.236916,6.7998767,-15.137548,-0.18289572,0.6575722,9.753402,0.023357019,-0.0031536683,-0.049957894,-0.06730610877275467,0.018749795854091644,-1.381274938583374,1016.09564,
2021.02.11 15:11:37,76.0,24.0,41.504723,6.409884,-16.20098,-0.24688934,0.7135945,9.782923,0.017768055,0.0048462125,-0.043966863,-0.07279082387685776,0.025231409817934036,-1.3867676258087158,1016.0956,
2021.02.11 15:11:37,76.0,24.0,41.90908,6.631611,-15.76969,-0.19714154,0.68015593,9.782905,0.029115126,0.0049771224,-0.009517969,-0.06939920783042908,0.020148908719420433,-1.3861287832260132,1016.0955,
2021.02.11 15:11:37,76.0,24.0,42.829872,5.770332,-15.98493,-0.091353774,0.6559656,9.6458235,0.04799807,-0.0036758855,-0.0013759956,-0.06789756566286087,0.009470527991652489,-1.4112099409103394,1016.09503,
2021.02.11 15:11:38,76.0,24.0,42.87452,8.478487,-15.389769,-0.0453231,0.6444053,9.785766,0.009730478,0.015027581,-0.0036466643,-0.06575565040111542,0.004631500691175461,-1.352735161781311,1016.0948,
2021.02.11 15:11:38,76.0,24.0,41.47515,6.681962,-16.391611,-0.21778817,0.7027834,9.760599,0.016252935,6.4632995E-4,-0.030488206,-0.07186021655797958,0.02230929024517536,-1.380712866783142,1016.0948,
2021.02.11 15:11:38,76.0,24.0,41.83143,7.2614965,-15.861849,-0.18031128,0.6727054,9.74237,0.021014174,0.008103949,-0.0043161297,-0.06892827153205872,0.01850583404302597,-1.3714637756347656,1016.0948,
2021.02.11 15:11:38,76.0,24.0,42.179543,7.5070753,-15.946318,-0.073736906,0.69725275,9.577225,0.04039719,-0.024498004,0.0043475595,-0.07267284393310547,0.007699041627347469,-1.3675193786621094,1016.09503,
2021.02.11 15:11:38,76.0,24.0,42.4125,7.6213274,-15.888262,-0.03209788,0.7057031,9.860702,-0.020628318,-0.00812581,0.019767815,-0.0714450404047966,0.003255120012909174,-1.3671936988830566,1016.09503,
2021.02.11 15:11:38,76.0,24.0,42.66181,7.0058513,-15.666254,-0.12235614,0.75927705,9.563321,0.025257656,-0.006289506,-0.026385186,-0.07922205328941345,0.012793616391718388,-1.378496766090393,1016.09503,
2021.02.11 15:11:38,76.0,24.0,41.77865,6.9811544,-15.971354,-0.07867211,0.7353557,9.747252,-0.022662202,0.006530865,-0.0122164,-0.0752972662448883,0.008071033284068108,-1.376670002937317,1016.09503,
2021.02.11 15:11:38,76.0,24.0,41.907173,6.6969023,-16.078413,-0.082391374,0.71786,9.949182,0.03221025,0.0023115803,-0.033616684,-0.07202538847923279,0.008281032554805279,-1.3847739696502686,1016.09503,
2021.02.11 15:11:38,76.0,24.0,40.985863,6.764752,-15.641375,-0.19477253,0.78248787,9.877964,-0.009193914,0.0036200122,-0.0034655668,-0.07903513312339783,0.01971532590687275,-1.375571846961975,1016.09503,
2021.02.11 15:11:38,76.0,24.0,40.03602,7.396471,-14.527578,-0.1936086,0.7649192,9.804282,-0.0019437186,0.0028799325,0.011183973,-0.07784605771303177,0.019744783639907837,-1.3585224151611328,1016.09503,
2021.02.11 15:11:38,76.0,24.0,42.505775,7.2204595,-15.987249,-0.1200689,0.7012303,9.771396,0.03366603,1.3055699E-4,0.028603975,-0.07163537293672562,0.012287176214158535,-1.375167727470398,1016.0947,
2021.02.11 15:11:38,76.0,24.0,42.59771,7.2624235,-16.359064,-0.1593767,0.75889856,9.690455,0.03538521,0.0072260844,0.026020886,-0.07814398407936096,0.016445286571979523,-1.3709653615951538,1016.0947,
2021.02.11 15:11:38,76.0,24.0,40.18078,5.7119393,-15.69219,-0.059640948,0.7470944,9.721783,0.031999364,-7.391116E-5,0.03948396,-0.0766952857375145,0.0061346981674432755,-1.3999313116073608,1016.09436,
2021.02.11 15:11:38,76.0,24.0,40.949593,6.576447,-14.967882,-0.05601053,0.71505207,9.643547,0.035256498,0.008140645,0.030644368,-0.07401154935359955,0.005808018613606691,-1.3849477767944336,1016.0943,
2021.02.11 15:11:39,76.0,24.0,42.791832,6.375927,-15.526285,-0.08654752,0.8245535,9.595044,0.025417311,0.0034869828,0.004287492,-0.08572126924991608,0.009019778110086918,-1.3918449878692627,1016.0943,
2021.02.11 15:11:39,76.0,24.0,41.614006,6.1789083,-15.683123,-0.18145813,0.86630934,9.945924,-0.024798112,0.032637533,-7.2144467E-4,-0.0868682786822319,0.018242448568344116,-1.3893271684646606,1016.0943,
2021.02.11 15:11:39,76.0,24.0,41.625816,6.7212768,-15.699923,-0.095620446,0.7891605,9.716342,0.05023991,0.018473834,-3.62652E-4,-0.08103811740875244,0.009840880520641804,-1.3801488876342773,1016.094,
2021.02.11 15:11:39,76.0,24.0,40.9318,5.1760035,-16.0039,-0.19857752,0.85778666,9.67882,0.06018969,0.042352248,-0.012779452,-0.08837568014860153,0.020513830706477165,-1.4086138010025024,1016.09393,
2021.02.11 15:11:39,76.0,24.0,40.985374,6.168521,-16.891436,-0.27005103,0.93775344,9.606374,0.05838649,0.011739859,-0.012448481,-0.09727133065462112,0.028104249387979507,-1.3783416748046875,1016.09393,
2021.02.11 15:11:39,76.0,24.0,41.575813,6.3597946,-16.097898,-0.06909385,0.9047262,9.628316,-0.038950697,0.0020953158,-0.0046740156,-0.09368766099214554,0.007175986655056477,-1.3833023309707642,1016.09393,
2021.02.11 15:11:39,76.0,24.0,42.53521,6.312406,-16.236216,-0.07192434,0.9205577,9.934552,0.0035042411,-0.021706784,-0.042412955,-0.09239596128463745,0.0072396909818053246,-1.3886666297912598,1016.09393,
2021.02.11 15:11:39,76.0,24.0,42.331917,5.709123,-15.561411,-0.31995764,0.9630785,9.798057,0.02936926,-0.033411164,-0.00453933,-0.09792622178792953,0.03264361247420311,-1.397035002708435,1016.09393,
2021.02.11 15:11:39,76.0,24.0,41.07473,6.511707,-15.802961,-0.25790524,0.88676524,9.516177,-0.036701467,-0.023270885,0.027244499,-0.09288278967142105,0.027095137163996696,-1.3751592636108398,1016.09393,
2021.02.11 15:11:39,76.0,24.0,41.929726,5.7829266,-16.068163,-0.041483197,0.7481453,9.775487,-0.04189208,-0.013005685,0.0037463624,-0.07638321071863174,0.004243568517267704,-1.4049756526947021,1016.09393,
2021.02.11 15:11:39,76.0,24.0,40.433296,5.8789506,-15.748213,-0.042782743,0.7727025,9.8215275,-0.0060773683,-0.011923853,-0.03298425,-0.07851190865039825,0.0043559898622334,-1.3964442014694214,1016.09393,
2021.02.11 15:11:39,76.0,24.0,42.34298,6.633873,-15.439569,-0.14975266,0.81532526,9.718219,-0.007981114,-0.0016473075,-0.034129117,-0.08369066566228867,0.015408256091177464,-1.3840280771255493,1016.0939,
2021.02.11 15:11:39,76.0,24.0,41.40766,7.824185,-15.761431,-0.32136372,0.9487831,9.95431,0.030585825,0.005751292,0.0041976906,-0.09497754275798798,0.032272666692733765,-1.3445477485656738,1016.0931,
2021.02.11 15:11:39,76.0,24.0,41.10137,7.5587654,-15.52746,-0.11461417,0.7479201,9.623607,0.039382022,-2.926027E-4,0.003760627,-0.07755585759878159,0.011909126304090023,-1.3594756126403809,1016.0931,
2021.02.11 15:11:40,76.0,24.0,43.48432,6.5204387,-15.622778,-0.10421141,0.83462477,9.754906,-0.008678891,4.044301E-4,-0.0037578405,-0.0853467807173729,0.010682567954063416,-1.3911100625991821,1016.0928,
2021.02.11 15:11:40,76.0,24.0,41.942513,6.6169624,-15.388483,-0.043479115,0.7992783,9.687393,-0.021431277,-5.041163E-4,-0.016830016,-0.08231977373361588,0.004488185979425907,-1.3848906755447388,1016.0928,
2021.02.11 15:11:40,76.0,24.0,41.653587,7.3671675,-15.798578,-0.119421184,0.8214805,9.756984,-0.03892559,0.001944107,-0.023610337,-0.08398974686861038,0.012238948605954647,-1.363729476928711,1016.0925,
2021.02.11 15:11:40,76.0,24.0,41.511772,7.624776,-16.737505,-0.08663555,0.7838285,9.729743,-0.03718067,0.0025383313,-0.0288535,-0.08038326352834702,0.00890396162867546,-1.3571465015411377,1016.0925,
2021.02.11 15:11:40,76.0,24.0,42.52778,7.5221353,-15.970816,-0.09142631,0.75338054,9.769273,-0.023937,-0.004188122,-0.04456011,-0.07696166634559631,0.009358285926282406,-1.366986632347107,1016.0925,
2021.02.11 15:11:40,76.0,24.0,43.039665,7.8317595,-15.447248,-0.1945229,0.8233951,9.757148,-0.034552414,8.869417E-4,-0.014619327,-0.0841727927327156,0.019933810457587242,-1.3592637777328491,1016.0925,
2021.02.11 15:11:40,76.0,24.0,42.278465,6.1262703,-16.570673,-0.12146944,0.7096084,9.856899,0.013202274,-0.0066366433,-0.02705847,-0.0718616172671318,0.012322667054831982,-1.3981248140335083,1016.0925,
2021.02.11 15:11:40,76.0,24.0,41.99462,8.241761,-17.214983,-0.19124947,0.7581809,9.6391945,-0.012010669,0.00648144,-0.0058276565,-0.07847905158996582,0.019838210195302963,-1.3435252904891968,1016.0925,
2021.02.11 15:11:40,76.0,24.0,41.857506,7.50041,-15.583704,-0.19981731,0.7448428,9.740144,-0.005036128,-0.0047107297,-0.020454569,-0.07630690187215805,0.020511945709586143,-1.3635581731796265,1016.0931,
2021.02.11 15:11:40,76.0,24.0,42.11582,7.99415,-16.167143,-0.1258604,0.64546907,9.69825,0.009067941,0.0033727407,-0.010801124,-0.06645162403583527,0.012976910918951035,-1.3572595119476318,1016.09375,
2021.02.11 15:11:40,76.0,24.0,42.038506,8.543332,-15.352613,-0.14374283,0.6880614,9.770724,-0.012477258,0.0064345524,-0.018591823,-0.07029707729816437,0.014710522256791592,-1.3440910577774048,1016.0939,
2021.02.11 15:11:40,76.0,24.0,41.020042,7.599035,-16.43268,-0.19655156,0.6685433,9.755722,-0.008778766,0.006294948,-0.017524507,-0.06840751320123672,0.020144585520029068,-1.3586817979812622,1016.0939,
2021.02.11 15:11:40,76.0,24.0,40.84594,6.4322033,-16.877474,-0.1842433,0.6483705,9.682971,7.154022E-4,0.0031231304,-0.0089888815,-0.06684800982475281,0.01902526430785656,-1.385450839996338,1016.0939,
2021.02.11 15:11:41,76.0,24.0,40.03147,7.9122868,-15.260687,-0.14067633,0.67656803,9.767532,-0.018181073,0.0044814376,5.7626585E-4,-0.0691494345664978,0.014401447959244251,-1.3487448692321777,1016.0939,
2021.02.11 15:11:41,76.0,24.0,42.771065,8.919491,-16.23754,-0.1575265,0.67184854,9.77629,0.008009777,0.0017909987,-0.0042126076,-0.06860548257827759,0.016111722216010094,-1.338417649269104,1016.0939,
2021.02.11 15:11:41,76.0,24.0,41.339165,7.8198442,-15.565748,-0.19426417,0.6756918,9.731431,-0.00577339,0.005754633,0.01072783,-0.06930893659591675,0.01995989680290222,-1.356304407119751,1016.0939,
2021.02.11 15:11:41,76.0,24.0,41.132683,8.628308,-16.079538,-0.1379941,0.6777274,9.729699,-0.0033401311,2.641196E-4,0.004380724,-0.0695362314581871,0.01418181974440813,-1.336431622505188,1016.0939,
2021.02.11 15:11:41,76.0,24.0,41.739098,8.876158,-15.7061405,-0.10211098,0.6529828,9.782176,-0.014980463,0.006094995,0.0068940027,-0.06664980202913284,0.010438094846904278,-1.336298942565918,1016.0939,
2021.02.11 15:11:41,76.0,24.0,40.381493,8.419472,-15.394087,-0.13302143,0.638781,9.700531,0.0036868982,0.0011164864,-0.0025291564,-0.06574901193380356,0.013711938634514809,-1.3397525548934937,1016.0939,
2021.02.11 15:11:41,76.0,24.0,40.74343,7.5553102,-16.519258,-0.10464802,0.6867202,9.762097,-0.012159262,-2.3047044E-4,-0.005336801,-0.07022584229707718,0.0107194185256958,-1.3588993549346924,1016.0939,
2021.02.11 15:11:41,76.0,24.0,41.416206,7.5310936,-15.543737,-0.06538379,0.6219713,9.81236,0.0107169915,-9.8972E-4,-0.013429954,-0.06330043077468872,0.006663312669843435,-1.3674873113632202,1016.0939,
2021.02.11 15:11:41,76.0,24.0,42.64881,7.739869,-16.308771,-0.18729652,0.63800806,9.655091,-0.008843711,-0.0067235664,-0.008981256,-0.06597165763378143,0.019396299496293068,-1.3646109104156494,1016.0944,
2021.02.11 15:11:41,76.0,24.0,41.135994,8.555862,-15.380079,-0.10354028,0.63878155,9.791481,-0.01755743,0.0015557079,0.002315083,-0.06514254957437515,0.010574132204055786,-1.341396689414978,1016.09454,
2021.02.11 15:11:41,76.0,24.0,41.14048,7.8020163,-15.707193,-0.08947072,0.62382835,9.811189,0.01760116,0.0021374775,-0.0061459644,-0.06349524855613708,0.009119001217186451,-1.3591909408569336,1016.09534,
2021.02.11 15:11:41,76.0,24.0,41.498985,7.763768,-15.591288,-0.09787869,0.5646177,9.719372,8.860815E-4,0.0055884104,0.0025676293,-0.0580238439142704,0.010070133954286575,-1.3638579845428467,1016.09546,
2021.02.11 15:11:41,76.0,24.0,41.1072,8.119179,-15.403894,-0.1622435,0.6317232,9.812934,-0.014847053,-0.0026244014,-5.0817005E-4,-0.06427911669015884,0.016532132402062416,-1.350767731666565,1016.0964,
2021.02.11 15:11:42,76.0,24.0,41.174156,8.813647,-16.669863,-0.10210034,0.55502343,9.70457,-0.0043506403,0.0057741017,0.004960271,-0.05712657421827316,0.01052046287804842,-1.3367149829864502,1016.0964,
2021.02.11 15:11:42,76.0,24.0,42.28788,8.332834,-15.927183,-0.15567303,0.60697037,9.751171,-0.011328783,0.004065228,0.011850235,-0.06215779483318329,0.01596319116652012,-1.35193932056427,1016.09656,
2021.02.11 15:11:42,76.0,24.0,41.910957,8.412713,-16.144728,-0.12601088,0.618812,9.773454,-0.008015765,0.00729624,0.014622599,-0.06322595477104187,0.01289246417582035,-1.3479372262954712,1016.0966,
2021.02.11 15:11:42,76.0,24.0,41.27227,8.484937,-16.740343,-0.0871028,0.5838225,9.786466,0.0070096035,0.00600852,0.008232856,-0.059583134949207306,0.008900097571313381,-1.3440215587615967,1016.09686,
2021.02.11 15:11:42,76.0,24.0,42.10723,8.966299,-14.146185,-0.05165701,0.60846335,9.84815,-0.00988066,-0.0017272541,0.012420025,-0.061705246567726135,0.0052453032694756985,-1.3409415483474731,1016.09735,
2021.02.11 15:11:42,76.0,24.0,42.082924,8.215282,-15.535864,-0.15415098,0.64681953,9.733168,0.005993087,0.005957499,-0.006457008,-0.0663493275642395,0.015836374834179878,-1.352688193321228,1016.0979,
2021.02.11 15:11:42,76.0,24.0,40.359093,7.6163654,-15.320402,-0.08945311,0.56250685,9.724528,0.019782778,0.006585356,0.008578989,-0.05777730047702789,0.009198450483381748,-1.3622738122940063,1016.0979,
2021.02.11 15:11:42,76.0,24.0,41.480614,8.562242,-15.573156,-0.09951124,0.59279877,9.707434,0.014576893,-0.00488568,-0.0024466778,-0.06098754331469536,0.010250675491988659,-1.3443132638931274,1016.09845,
2021.02.11 15:11:42,76.0,24.0,40.988747,8.420427,-15.119604,-0.14229847,0.6342378,9.782062,-0.009397797,0.009218342,-0.0071651354,-0.06473936885595322,0.01454585324972868,-1.3437130451202393,1016.0992,
2021.02.11 15:11:42,76.0,24.0,41.41311,9.120623,-14.713217,-0.13938536,0.5473396,9.6549425,0.01212286,0.011735078,-0.013909813,-0.05662359669804573,0.014435682445764542,-1.3332948684692383,1016.0993,
2021.02.11 15:11:42,76.0,24.0,41.141838,9.407844,-15.399309,-0.15697287,0.57668763,9.814803,-0.015733419,0.021607224,-0.01869012,-0.05868195369839668,0.015992118045687675,-1.323271632194519,1016.0997,
2021.02.11 15:11:42,76.0,24.0,40.276466,9.0255165,-15.207109,-0.25800022,0.6871488,9.886955,-0.0025762543,-0.026150476,-0.030887729,-0.06936542689800262,0.02608909271657467,-1.3219553232192993,1016.09973,
2021.02.11 15:11:42,76.0,24.0,41.971504,8.130912,-15.870947,-0.21846743,0.68761414,9.69082,0.03455212,-0.08666077,0.018616354,-0.07081855833530426,0.022539934143424034,-1.350866675376892,1016.09985,
2021.02.11 15:11:42,76.0,24.0,41.33349,6.9033127,-16.216814,-0.0339503,0.60290766,9.917975,0.01313553,-0.13406809,0.070982985,-0.060714319348335266,0.00342309451662004,-1.3820900917053223,1016.0999,
2021.02.11 15:11:43,76.0,24.0,40.242134,8.354249,-15.721922,0.3192697,0.6775427,9.057308,0.07752872,-0.15708055,0.073510446,-0.07462093979120255,-0.035235363990068436,-1.344277262687683,1016.1004,
2021.02.11 15:11:43,76.0,24.0,41.11489,8.121927,-15.599485,0.07364956,0.723684,9.854669,-0.16745263,0.00908776,0.13538146,-0.07330203056335449,-0.0074734315276145935,-1.3507932424545288,1016.1011,
