Time,X-cord,Y-cord,Mag_x,Mag_y,Mag_z,Acc_x,Acc_y,Acc_z,Gyro_x,Gyro_y,Gyro_z,Orn_x,Orn_y,Orn_z,Pressure,
2021.02.11 15:12:16,78.0,23.0,13.296692,-31.378635,-12.88545,0.14253838,0.56431633,9.560751,0.041170478,-0.03561781,-0.0031433399,-0.05894933268427849,-0.014907597564160824,-2.7261674404144287,1016.0909,
2021.02.11 15:12:16,78.0,23.0,15.208984,-30.667984,-13.249094,0.29272106,0.480148,9.7356615,0.11524519,0.023344444,-0.017407294,-0.04925632104277611,-0.030057832598686218,-2.6620826721191406,1016.08844,
2021.02.11 15:12:16,78.0,23.0,13.892845,-33.136684,-12.888384,0.04788965,0.6387044,9.542455,-0.022660712,0.12033815,0.0031016096,-0.06683240085840225,-0.005018545780330896,-2.7326552867889404,1016.0886,
2021.02.11 15:12:16,78.0,23.0,15.020149,-30.232239,-12.866377,0.05127512,0.5353089,10.101723,0.11522931,0.11546621,-0.019058757,-0.05294164642691612,-0.005075835157185793,-2.669074058532715,1016.0886,
2021.02.11 15:12:16,78.0,23.0,14.664558,-30.726974,-12.369604,-0.10717405,0.61673564,9.8503275,0.16539995,0.0038128672,0.01385995,-0.06252536177635193,0.010879823006689548,-2.6890604496002197,1016.08844,
2021.02.11 15:12:16,78.0,23.0,14.311089,-31.576591,-13.293306,0.15749171,0.675111,9.730784,-0.10466847,0.028839251,0.015236886,-0.06925885379314423,-0.016183480620384216,-2.698391914367676,1016.08795,
2021.02.11 15:12:16,78.0,23.0,14.80603,-31.52945,-13.279646,-0.24649258,0.7421047,9.5342655,0.018452218,-0.009740974,-0.051252905,-0.07765308022499084,0.025847578421235085,-2.6973445415496826,1016.0877,
2021.02.11 15:12:16,78.0,23.0,14.890533,-30.889133,-12.929308,-0.17114516,0.6463621,9.959025,-0.051259987,0.009725663,-0.009893358,-0.06480170041322708,0.01718324050307274,-2.68649959564209,1016.0873,
2021.02.11 15:12:16,78.0,23.0,15.897072,-31.279202,-12.996473,-0.057341527,0.5518767,9.907871,0.07138009,0.007225778,0.022808058,-0.05564240738749504,0.005787407513707876,-2.6631040573120117,1016.08624,
2021.02.11 15:12:16,78.0,23.0,14.924454,-30.647598,-11.93799,-0.014016303,0.37930632,9.369156,0.008136915,0.021131324,0.019810626,-0.0404624380171299,0.001496003707870841,-2.6822750568389893,1016.08624,
2021.02.11 15:12:16,78.0,23.0,13.89019,-32.30628,-13.568296,-0.04543237,0.4184626,9.556987,-0.06671962,0.027983747,-0.018798945,-0.043757595121860504,0.004753802437335253,-2.730083465576172,1016.0859,
2021.02.11 15:12:16,78.0,23.0,15.112434,-31.648731,-13.241011,-0.22022642,0.6031797,9.916366,-0.021947818,0.019793453,0.012958322,-0.060736898332834244,0.022204730659723282,-2.6928369998931885,1016.0854,
2021.02.11 15:12:16,78.0,23.0,14.457893,-31.603374,-12.406103,-0.17661981,0.551573,9.88094,0.053668886,0.0018062352,0.0059142075,-0.05575514957308769,0.017872894182801247,-2.7092909812927246,1016.0829,
2021.02.11 15:12:17,78.0,23.0,15.134697,-31.942272,-12.543615,-0.124850005,0.5838073,9.603431,0.0057533802,0.0452966,0.025885431,-0.06071169674396515,0.012999830767512321,-2.6930978298187256,1016.0826,
2021.02.11 15:12:17,78.0,23.0,15.435471,-31.35535,-12.547735,-0.14447504,0.67395717,9.561482,0.0742304,0.010809533,-0.013513617,-0.07036229223012924,0.015108958818018436,-2.676511526107788,1016.0826,
2021.02.11 15:12:17,78.0,23.0,14.600365,-31.92601,-11.459162,-0.25091985,0.7528431,9.737167,-0.0031608655,-0.003963232,0.02357241,-0.07713741809129715,0.025763584300875664,-2.7083890438079834,1016.08246,
2021.02.11 15:12:17,78.0,23.0,14.19989,-31.648655,-12.137991,-0.1222151,0.67160726,9.510201,-0.06190275,-1.4722836E-4,0.030261125,-0.0704968124628067,0.012850240804255009,-2.7126147747039795,1016.08246,
2021.02.11 15:12:17,78.0,23.0,14.635391,-32.043865,-12.752825,0.0068945824,0.6550255,9.822858,-0.08557607,-0.004773035,-0.0055168797,-0.06658519804477692,-7.018916076049209E-4,-2.701821804046631,1016.0826,
2021.02.11 15:12:17,78.0,23.0,14.616196,-30.628738,-14.414801,-0.1648687,0.6232582,9.762145,-0.032189324,-0.05020495,0.003977647,-0.0637487843632698,0.016886968165636063,-2.6900475025177,1016.0829,
2021.02.11 15:12:17,78.0,23.0,14.3016815,-29.85413,-12.938948,-0.13159561,0.48417926,9.618068,-0.09724584,0.011322667,0.020237513,-0.050293441861867905,0.01368127204477787,-2.690500259399414,1016.08344,
2021.02.11 15:12:17,78.0,23.0,14.780762,-30.255394,-14.081202,-0.032491054,0.4560322,10.130744,-0.003373247,-0.028090999,-0.015097776,-0.04498407989740372,0.003207162721082568,-2.67954683303833,1016.08514,
2021.02.11 15:12:17,78.0,23.0,13.879715,-31.212303,-12.988726,-0.027132288,0.3254903,9.662075,0.017159339,-0.013625084,0.014080457,-0.03367454186081886,0.0028081147465854883,-2.718657970428467,1016.0854,
2021.02.11 15:12:17,78.0,23.0,15.643677,-30.907082,-12.838575,0.0051162704,0.43898115,9.837318,-0.007620544,0.0042257356,-0.013957657,-0.044594474136829376,-5.200878949835896E-4,-2.6648807525634766,1016.0859,
2021.02.11 15:12:17,78.0,23.0,13.890419,-31.581356,-13.056311,-0.14201276,0.465875,9.842319,-0.027316088,0.0080372235,-0.037014697,-0.04729364812374115,0.01442779041826725,-2.724485397338867,1016.08624,
2021.02.11 15:12:17,78.0,23.0,15.197563,-30.708069,-13.983007,-0.24249353,0.51517314,9.619265,-0.031184137,0.011385313,-0.0030822358,-0.053488314151763916,0.02520381473004818,-2.6808345317840576,1016.08624,
2021.02.11 15:12:17,78.0,23.0,15.267899,-30.883846,-13.401602,-0.12316406,0.4353653,9.9413,0.035152704,-0.008974365,-0.0018156305,-0.04376227408647537,0.012388495728373528,-2.6787166595458984,1016.08624,
2021.02.11 15:12:18,78.0,23.0,14.580467,-30.842396,-13.419966,-0.12235262,0.4378525,9.707307,0.014263083,0.020706857,-0.0025615213,-0.045071326196193695,0.012603511102497578,-2.696361780166626,1016.08624,
2021.02.11 15:12:18,78.0,23.0,14.730385,-31.115349,-13.056284,-0.13259344,0.45873475,9.669691,-0.005964658,0.025162974,-0.008159065,-0.04740048572421074,0.013711413368582726,-2.6958649158477783,1016.08624,
2021.02.11 15:12:18,78.0,23.0,14.514618,-30.008026,-13.38751,-0.16548459,0.47889605,9.843799,0.008123878,0.020033315,-6.750128E-4,-0.0486043319106102,0.01680946536362171,-2.6880300045013428,1016.08624,
2021.02.11 15:12:18,78.0,23.0,15.372353,-31.322742,-12.60689,-0.19663204,0.50641936,9.764737,0.027529756,0.01707528,0.011522321,-0.051805149763822556,0.020134231075644493,-2.6829380989074707,1016.08624,
2021.02.11 15:12:18,78.0,23.0,14.658371,-30.649094,-13.514742,-0.17655252,0.50607705,9.715514,0.02342592,0.027549386,0.017675545,-0.05203396826982498,0.018170226365327835,-2.692368268966675,1016.08624,
2021.02.11 15:12:18,78.0,23.0,15.707092,-31.56961,-13.455511,-0.1936071,0.5198344,9.783391,0.02331665,0.013888784,0.014238359,-0.05307408794760704,0.019786784425377846,-2.676898956298828,1016.08624,
2021.02.11 15:12:18,78.0,23.0,14.065727,-32.26916,-13.677923,-0.16621806,0.47756532,9.644177,-0.0111052655,0.008277465,-0.0019178401,-0.04947076365351677,0.017233360558748245,-2.7284224033355713,1016.08795,
2021.02.11 15:12:18,78.0,23.0,15.4466095,-30.267868,-13.368349,-0.18083555,0.54963094,9.762646,-0.014791062,-0.0034911148,-0.0131109655,-0.05623038858175278,0.01852109283208847,-2.6652605533599854,1016.088,
2021.02.11 15:12:18,78.0,23.0,16.087326,-30.341415,-13.208071,-0.21358083,0.5109833,9.6871195,0.0056909053,0.011297289,-0.01375284,-0.052687108516693115,0.02204434759914875,-2.651280403137207,1016.0892,
2021.02.11 15:12:18,78.0,23.0,16.266472,-30.069904,-13.33592,-0.24559392,0.5253672,9.712002,0.010145795,-0.003819941,-0.030554807,-0.054024726152420044,0.02528228424489498,-2.643533945083618,1016.0892,
2021.02.11 15:12:18,78.0,23.0,15.290085,-31.572586,-13.966127,-0.2131911,0.51271737,9.847325,-0.021301994,-0.005946309,-3.8117287E-5,-0.0520075261592865,0.02164626494050026,-2.6886348724365234,1016.0892,
2021.02.11 15:12:18,78.0,23.0,14.84581,-31.658794,-13.007906,-0.17881215,0.48348987,9.736295,0.009595312,-0.0013504877,-0.0052501615,-0.04960939660668373,0.018363457173109055,-2.700841188430786,1016.0892,
2021.02.11 15:12:18,78.0,23.0,14.979195,-31.753075,-13.131842,-0.19218548,0.5361307,9.730977,0.0021503204,-0.0026750197,-0.0023169406,-0.05502890422940254,0.01974729634821415,-2.6979379653930664,1016.0892,
2021.02.11 15:12:18,78.0,23.0,14.42598,-32.179474,-13.679533,-0.18428425,0.4763616,9.778468,0.005563112,4.518521E-4,-8.796843E-4,-0.04866825416684151,0.018843693658709526,-2.7185428142547607,1016.0892,
2021.02.11 15:12:19,78.0,23.0,15.759903,-30.4262,-13.784971,-0.24471836,0.52248365,9.755004,0.015632428,-0.0047715693,0.0017726098,-0.053492650389671326,0.02508118376135826,-2.661957025527954,1016.08936,
2021.02.11 15:12:19,78.0,23.0,15.094292,-30.7081,-12.352606,-0.17004742,0.5080824,9.860146,-0.023083558,0.001086074,0.013142532,-0.05147571861743927,0.01724422350525856,-2.6814215183258057,1016.08936,
2021.02.11 15:12:19,78.0,23.0,15.1981735,-30.329693,-13.622293,-0.15509056,0.52064997,9.7491665,0.0092089195,-0.0049089305,0.008655019,-0.0533471405506134,0.015906741842627525,-2.6723861694335938,1016.08936,
2021.02.11 15:12:19,78.0,23.0,16.473244,-30.604916,-12.950975,-0.19282527,0.53452903,9.684238,0.01854981,-0.0025185803,0.0017685781,-0.05512891709804535,0.019908618181943893,-2.643721103668213,1016.08936,
2021.02.11 15:12:19,78.0,23.0,15.358597,-31.870754,-14.773748,-0.14313829,0.52784085,9.718509,-0.019716477,0.009929397,5.7821395E-4,-0.05425376445055008,0.014727355912327766,-2.687429189682007,1016.08936,
2021.02.11 15:12:19,78.0,23.0,14.54332,-31.179165,-13.11928,-0.17671837,0.56273705,9.83287,0.0154123185,-0.0067994306,-0.003549151,-0.05715862661600113,0.017970271408557892,-2.701310634613037,1016.08936,
2021.02.11 15:12:19,78.0,23.0,14.474571,-31.06493,-12.818224,-0.1409009,0.4900608,9.649834,-0.012106729,0.0065116123,-0.015854206,-0.050735387951135635,0.014600344002246857,-2.7018356323242188,1016.08936,
2021.02.11 15:12:19,78.0,23.0,15.780136,-30.808384,-13.308424,-0.19642772,0.55354595,9.833954,0.005414334,-0.0030273418,-0.013127923,-0.05621872842311859,0.019971782341599464,-2.6643290519714355,1016.08936,
2021.02.11 15:12:19,78.0,23.0,15.41507,-32.91475,-13.560793,-0.20160933,0.48537162,9.75412,0.01621211,-0.010294903,-0.01847263,-0.04970906674861908,0.020666204392910004,-2.7021098136901855,1016.08936,
2021.02.11 15:12:19,78.0,23.0,14.894211,-31.32159,-12.626886,-0.16673331,0.5224116,9.857844,-0.023624586,0.0040300847,0.001982841,-0.05293742194771767,0.016912156715989113,-2.69427752494812,1016.08936,
2021.02.11 15:12:19,78.0,23.0,15.390251,-29.709854,-13.526804,-0.16600162,0.50668496,9.728501,0.01659879,-0.0065525854,-0.005940495,-0.052027955651283264,0.01706177555024624,-2.6593081951141357,1016.08936,
2021.02.11 15:12:19,78.0,23.0,14.939079,-31.473988,-13.25004,-0.18691425,0.5078141,9.705518,0.013284667,-0.0067907833,-0.008347827,-0.05226486548781395,0.019256174564361572,-2.6958279609680176,1016.08936,
2021.02.11 15:12:19,78.0,23.0,15.2521515,-31.577702,-13.0400715,-0.16960782,0.57064664,9.765231,-0.0070216283,-0.0049715773,-0.004036475,-0.05836141109466553,0.017366794869303703,-2.6871085166931152,1016.08966,
2021.02.11 15:12:20,78.0,23.0,16.111732,-31.790115,-13.427717,-0.09851258,0.4740641,9.808412,0.021873647,-0.009856806,-0.021956218,-0.048292387276887894,0.01004334632307291,-2.6670072078704834,1016.08966,
2021.02.11 15:12:20,78.0,23.0,15.61335,-30.964314,-12.04571,-0.11586156,0.52823097,9.741103,0.02027725,-0.028565848,-0.045667384,-0.05417013540863991,0.011893529444932938,-2.6689789295196533,1016.08966,
2021.02.11 15:12:20,78.0,23.0,15.112541,-31.9679,-13.145742,-0.11937327,0.5629776,9.844255,0.048888236,-0.03410161,-0.0497999,-0.05712202191352844,0.01212559174746275,-2.6941325664520264,1016.0901,
2021.02.11 15:12:20,78.0,23.0,15.514374,-31.524387,-12.4323635,-0.13393211,0.59421116,9.705131,0.04220333,-0.020653179,-0.04044931,-0.061144351959228516,0.013799259439110756,-2.6780765056610107,1016.0902,
2021.02.11 15:12:20,78.0,23.0,14.654594,-30.390366,-13.110132,-0.103188656,0.5969952,9.658477,0.0068489583,-0.023641849,-0.03123755,-0.06172843649983406,0.01068333350121975,-2.684563159942627,1016.0906,
2021.02.11 15:12:20,78.0,23.0,14.809074,-29.658855,-11.099741,-0.11700105,0.59102,9.830028,-0.0055003827,-0.06376203,-0.039481137,-0.06004740670323372,0.011901851743459702,-2.672112226486206,1016.0906,
2021.02.11 15:12:20,78.0,23.0,15.71328,-30.443306,-13.476305,0.013895824,0.5974708,9.856882,0.006055589,-0.09519814,-0.06499231,-0.06054045259952545,-0.0014097575331106782,-2.652696132659912,1016.0906,
2021.02.11 15:12:20,78.0,23.0,14.478722,-30.877419,-13.393404,-0.021270016,0.6715002,9.606773,-0.034100015,-0.034023732,-0.014991246,-0.06978493928909302,0.0022140610963106155,-2.6909942626953125,1016.0902,
2021.02.11 15:12:20,78.0,23.0,16.310371,-30.755314,-13.414892,-0.028554851,0.62526965,9.684098,-0.006293364,0.016726613,0.016718624,-0.0644768625497818,0.0029486243147403,-2.642164945602417,1016.0901,
2021.02.11 15:12:20,78.0,23.0,15.394936,-30.54224,-13.92877,0.024281064,0.6181362,9.82326,0.012145579,0.012864475,0.016217489,-0.0628427267074585,-0.0024717876221984625,-2.6612143516540527,1016.08966,
2021.02.11 15:12:20,78.0,23.0,15.515785,-31.178596,-12.542929,0.07628878,0.54587406,9.749698,0.014814529,0.0029499321,-0.008280318,-0.05592872202396393,-0.00782457273453474,-2.667598247528076,1016.08966,
2021.02.11 15:12:20,78.0,23.0,15.344215,-30.453384,-13.427317,0.046944868,0.58386153,9.815442,-0.01045889,0.0107480185,-0.006731124,-0.05941329151391983,-0.004782720003277063,-2.661734104156494,1016.0892,
2021.02.11 15:12:20,78.0,23.0,15.592377,-30.258812,-13.761259,-0.03175391,0.6086053,9.649982,0.009831572,0.0043231198,-0.017077006,-0.06298425793647766,0.0032905545085668564,-2.654169797897339,1016.08905,
2021.02.11 15:12:20,78.0,23.0,14.929939,-31.552006,-12.948027,-0.010399493,0.59439635,9.755915,-0.015831359,0.01752262,-0.0077524143,-0.06085151433944702,0.0010659676045179367,-2.6893818378448486,1016.08875,
2021.02.11 15:12:21,78.0,23.0,17.172096,-30.293488,-11.422087,-0.02530557,0.56824154,9.77606,-0.012899408,0.015361957,0.007082933,-0.05806029587984085,0.0025885184295475483,-2.6163182258605957,1016.0885,
2021.02.11 15:12:21,78.0,23.0,16.824127,-31.796692,-13.003557,-0.049759705,0.572234,9.775144,0.018449152,0.0019630317,0.007923979,-0.05847221240401268,0.005090388003736734,-2.645712375640869,1016.0878,
2021.02.11 15:12:21,78.0,23.0,15.28788,-31.526192,-13.716467,-0.03773169,0.582419,9.650544,-0.010458865,0.011160998,0.020994648,-0.06027732416987419,0.003909779246896505,-2.6801769733428955,1016.0878,
2021.02.11 15:12:21,78.0,23.0,16.955185,-30.789745,-12.758142,-2.532052E-4,0.58491343,9.842309,0.010762709,0.004060299,0.01659201,-0.05935865640640259,2.57261981460033E-5,-2.626878023147583,1016.08777,
2021.02.11 15:12:21,78.0,23.0,14.787407,-31.292328,-13.418444,-0.029568084,0.56648517,9.688664,-0.0013552592,0.0032600125,0.010129586,-0.05840209871530533,0.003051812993362546,-2.690638542175293,1016.08746,
2021.02.11 15:12:21,78.0,23.0,15.704704,-30.29781,-12.837324,-0.050652217,0.6193933,9.693863,-0.022129832,0.011938727,0.022528684,-0.06380779296159744,0.005225136410444975,-2.6529381275177,1016.0869,
2021.02.11 15:12:21,78.0,23.0,15.770348,-29.701397,-13.744581,-0.08107361,0.5960576,9.79482,0.0026701533,0.017215809,0.032706354,-0.06077733635902405,0.008277003653347492,-2.6437220573425293,1016.0868,
2021.02.11 15:12:21,78.0,23.0,15.3946,-31.48637,-13.080854,-0.070756726,0.5416584,9.793907,0.0057684937,0.006733427,0.020272627,-0.055247921496629715,0.007224440108984709,-2.679385185241699,1016.0862,
2021.02.11 15:12:21,78.0,23.0,14.921722,-30.85548,-13.57398,-0.04508445,0.59304434,9.662932,-0.0136156175,0.01792146,0.023459973,-0.06129557266831398,0.004665677435696125,-2.681225538253784,1016.0861,
2021.02.11 15:12:21,78.0,23.0,15.061996,-30.02422,-12.797724,0.0052964133,0.5355901,9.849001,0.0043521845,0.00846656,0.008706672,-0.054326627403497696,-5.377614288590848E-4,-2.6663715839385986,1016.0861,
2021.02.11 15:12:21,78.0,23.0,16.186493,-31.110771,-12.800463,-0.067160286,0.5567787,9.758851,0.018894488,0.008630555,-0.0057962127,-0.05699058622121811,0.00688187824562192,-2.6535685062408447,1016.0861,
2021.02.11 15:12:21,78.0,23.0,15.802338,-31.346096,-13.185144,-0.13444811,0.56643933,9.6818075,-0.011162003,0.010814324,0.0059448257,-0.058433301746845245,0.013885782100260258,-2.6684770584106445,1016.0861,
2021.02.11 15:12:21,78.0,23.0,15.367676,-29.914898,-12.363565,-0.091545306,0.5858569,9.812076,-5.110891E-4,0.008689179,0.016548043,-0.05963435396552086,0.009329590946435928,-2.6590728759765625,1016.0861,
2021.02.11 15:12:21,78.0,23.0,14.690086,-30.918991,-13.832151,-0.040487405,0.5086286,9.739922,0.009129552,0.0015095284,-0.005507824,-0.052173174917697906,0.004156827460974455,-2.6897873878479004,1016.08606,
2021.02.11 15:12:22,78.0,23.0,15.753471,-30.43029,-12.975149,-0.10668361,0.56445843,9.674872,-0.022246877,0.007900415,0.0018094012,-0.058273132890462875,0.011026428081095219,-2.6564877033233643,1016.08594,
2021.02.11 15:12:22,78.0,23.0,16.538437,-29.135021,-12.532263,-0.11800661,0.5622054,9.82605,-0.0020470554,0.004954632,0.0035023307,-0.05714938044548035,0.012008991092443466,-2.6176528930664062,1016.08594,
2021.02.11 15:12:22,78.0,23.0,14.703117,-29.51677,-13.730322,-0.108064316,0.5306622,9.736755,0.013798525,3.7747785E-4,0.0015583073,-0.054443713277578354,0.011098140850663185,-2.6726295948028564,1016.08594,
2021.02.11 15:12:22,78.0,23.0,16.664406,-29.692932,-13.336405,-0.08625605,0.5735882,9.690792,-0.022418102,0.0057356996,0.0058094608,-0.05911767855286598,0.008900590240955353,-2.6208133697509766,1016.08606,
2021.02.11 15:12:22,78.0,23.0,15.473267,-30.40181,-12.671297,-0.11880673,0.54351103,9.821811,0.005156243,-0.0010795404,0.0065625864,-0.05527673289179802,0.012095623649656773,-2.664640188217163,1016.0861,
2021.02.11 15:12:22,78.0,23.0,15.571632,-30.56577,-12.835405,-0.09831658,0.55592775,9.756529,-0.0029602298,0.002424175,0.0048588617,-0.05691564455628395,0.010076663456857204,-2.6632018089294434,1016.0862,
2021.02.11 15:12:22,78.0,23.0,16.243362,-29.684727,-12.608675,-0.10313208,0.5924817,9.79349,-0.0070388233,0.0010071805,0.011656458,-0.06042050942778587,0.010530286468565464,-2.632458448410034,1016.0865,
2021.02.11 15:12:22,78.0,23.0,15.543442,-31.162182,-13.063879,-0.059197146,0.51490957,9.80981,0.031216983,0.004753508,-0.0101789925,-0.05244017019867897,0.006034411024302244,-2.671407461166382,1016.0862,
2021.02.11 15:12:22,78.0,23.0,16.175941,-32.00203,-12.50408,-0.17486821,0.6359593,9.658864,0.010525698,-0.0013096092,0.01233474,-0.06573639810085297,0.018102450296282768,-2.66768741607666,1016.08594,
2021.02.11 15:12:22,78.0,23.0,16.259445,-30.125507,-12.304209,-0.067166805,0.5444969,9.761212,0.0011200398,0.0026219129,0.004870224,-0.05572262033820152,0.006880881264805794,-2.63845157623291,1016.08594,
2021.02.11 15:12:22,78.0,23.0,15.522385,-31.338634,-12.856062,-0.09729674,0.5547978,9.729828,0.0069058184,0.0027336285,-0.0035762214,-0.05695579946041107,0.009999508038163185,-2.674821376800537,1016.08594,
2021.02.11 15:12:22,78.0,23.0,15.05761,-30.739449,-14.408667,-0.06449997,0.59751266,9.8690405,0.040110704,0.001307192,0.0068870713,-0.060469046235084534,0.006535493303090334,-2.6763405799865723,1016.0855,
2021.02.11 15:12:22,78.0,23.0,16.190216,-31.329441,-13.159964,-0.17151918,0.6864559,9.876796,0.040084608,-0.05000538,-0.011048151,-0.06937987357378006,0.017364127561450005,-2.657111883163452,1016.0855,
2021.02.11 15:12:23,78.0,23.0,16.181755,-30.70499,-13.257406,-0.16212799,0.76930666,9.883441,0.07198152,-0.08798062,0.0040991446,-0.07767090201377869,0.016402531415224075,-2.646512746810913,1016.0855,
2021.02.11 15:12:23,78.0,23.0,15.074043,-31.755962,-12.765238,0.24956794,0.5158706,9.743743,0.11644304,-0.18050474,0.024030631,-0.05287707969546318,-0.025607550516724586,-2.6813719272613525,1016.0855,
2021.02.11 15:12:23,78.0,23.0,15.038902,-31.494965,-11.953592,0.30023092,0.966783,9.233844,0.11241442,-0.24108008,-0.076231234,-0.10426516830921173,-0.032502733170986176,-2.668597459793091,1016.0855,
