Time,X-cord,Y-cord,Mag_x,Mag_y,Mag_z,Acc_x,Acc_y,Acc_z,Gyro_x,Gyro_y,Gyro_z,Orn_x,Orn_y,Orn_z,Pressure,
2021.02.11 15:09:29,65.0,24.0,27.587097,5.7822866,-16.954271,-0.09149889,0.46382454,10.252643,-0.054525144,-0.0070175705,-0.017696159,-0.045206889510154724,0.008924183435738087,-1.336308479309082,1016.16095,
2021.02.11 15:09:29,65.0,24.0,27.470215,6.7806964,-15.793211,-0.19269912,0.60329705,9.612149,0.043759797,-0.012412335,-0.03818253,-0.06266923248767853,0.02004476822912693,-1.291333794593811,1016.16095,
2021.02.11 15:09:29,65.0,24.0,28.10189,7.07288,-16.976187,-0.2215233,0.4710181,9.524352,-0.039887693,-0.0030797464,0.018223412,-0.049400486052036285,0.023254428058862686,-1.291815161705017,1016.1648,
2021.02.11 15:09:29,65.0,24.0,28.41536,4.43517,-17.160444,-0.0713534,0.436038,9.872883,-0.0144987395,-0.008940732,-0.027905464,-0.044135380536317825,0.0072270845994353294,-1.3891202211380005,1016.16473,
2021.02.11 15:09:29,65.0,24.0,27.562767,4.8018346,-16.775545,-0.24818583,0.52880114,9.738486,-0.018765034,-2.2003986E-4,0.004443689,-0.05422929301857948,0.02547953650355339,-1.362206220626831,1016.16473,
2021.02.11 15:09:29,65.0,24.0,28.694046,5.4683313,-17.17578,-0.19503279,0.42511332,9.740649,-0.0189671,0.01207829,0.006890978,-0.04360681399703026,0.0200198907405138,-1.3542128801345825,1016.16473,
2021.02.11 15:09:29,65.0,24.0,28.796791,8.19846,-16.481882,-0.17427053,0.41740802,9.760568,-0.018365836,0.0038224445,0.008553145,-0.042731888592243195,0.017852650955319405,-1.2675504684448242,1016.16437,
2021.02.11 15:09:29,65.0,24.0,28.670914,6.351731,-17.749052,-0.16434027,0.38169226,9.73823,-0.015795553,0.0052069053,0.012502037,-0.039169613271951675,0.01687418296933174,-1.326849341392517,1016.16437,
2021.02.11 15:09:29,65.0,24.0,27.985222,7.0806465,-16.977343,-0.15562774,0.3913385,9.769979,-0.020708099,0.002801914,0.014690086,-0.04002872854471207,0.015927832573652267,-1.2973536252975464,1016.16437,
2021.02.11 15:09:29,65.0,24.0,28.857925,6.7929416,-17.154062,-0.17481208,0.39930043,9.708523,-0.013527285,0.0016136466,0.013068743,-0.041099030524492264,0.018004097044467926,-1.313421368598938,1016.16437,
2021.02.11 15:09:29,65.0,24.0,27.468414,6.3678427,-17.639566,-0.13422711,0.35646677,9.815324,-0.032698866,0.01189158,0.019154914,-0.03629802539944649,0.013674408197402954,-1.318529725074768,1016.16437,
2021.02.11 15:09:29,65.0,24.0,29.376587,7.0361767,-16.550379,-0.14643103,0.3446133,9.781834,-0.012124311,0.0052244943,0.0075904713,-0.03521142154932022,0.014968573115766048,-1.3145887851715088,1016.16437,
2021.02.11 15:09:29,65.0,24.0,28.89309,6.4976535,-17.01792,-0.17135616,0.36368927,9.722441,-0.027636835,0.008548947,0.013815617,-0.03738396242260933,0.01762298494577408,-1.3257875442504883,1016.16437,
2021.02.11 15:09:29,65.0,24.0,28.691978,6.6275053,-18.118303,-0.1457917,0.37631083,9.819636,-0.0067863185,0.0072245295,0.0020012134,-0.0382993184030056,0.014845862984657288,-1.3182923793792725,1016.16437,
2021.02.11 15:09:30,65.0,24.0,28.636955,7.0431504,-17.021715,-0.14103927,0.33171532,9.803731,-0.0013101693,0.010483305,0.0038201362,-0.03381921723484993,0.014385292306542397,-1.308284044265747,1016.16437,
2021.02.11 15:09:30,65.0,24.0,28.62091,6.419459,-16.287088,-0.1697338,0.3329837,9.725989,0.0069818636,0.0010428112,-0.0053862697,-0.03421791270375252,0.017449799925088882,-1.3289157152175903,1016.16437,
2021.02.11 15:09:30,65.0,24.0,28.3638,6.1257977,-16.761225,-0.16266263,0.3611692,9.857972,-0.009531066,-0.00378132,8.351235E-4,-0.03661591187119484,0.016499120742082596,-1.3348368406295776,1016.16437,
2021.02.11 15:09:30,65.0,24.0,28.605545,5.979687,-16.555857,-0.15218717,0.29018995,9.658591,0.014786558,-0.006032373,0.001512737,-0.030031990259885788,0.015755360946059227,-1.345762848854065,1016.16437,
2021.02.11 15:09:30,65.0,24.0,27.113472,7.961747,-17.266214,-0.17740889,0.3676853,9.788842,-0.004601798,-0.0048902747,0.0038635768,-0.03753786161541939,0.01812160015106201,-1.2594798803329468,1016.16473,
2021.02.11 15:09:30,65.0,24.0,28.078957,5.97954,-17.817518,-0.13510287,0.3139685,9.755536,-7.576641E-4,-0.004563038,-0.002325554,-0.03216943517327309,0.013847955502569675,-1.3392341136932373,1016.16473,
2021.02.11 15:09:30,65.0,24.0,28.515678,6.163749,-17.095633,-0.19852416,0.36835018,9.774838,-0.006535733,0.0013849328,0.004728233,-0.03765792399644852,0.020306920632719994,-1.333048701286316,1016.165,
2021.02.11 15:09:30,65.0,24.0,27.49453,6.2373757,-16.94034,-0.16514252,0.3553524,9.812888,-0.003792239,8.0567924E-4,1.1294219E-4,-0.03619188815355301,0.016827557235956192,-1.32369065284729,1016.1651,
2021.02.11 15:09:30,65.0,24.0,27.838493,6.8844614,-17.077093,-0.1662509,0.3581085,9.742738,-0.008195259,-0.002290573,0.0014073709,-0.03673457354307175,0.01706242747604847,-1.3041185140609741,1016.1655,
2021.02.11 15:09:30,65.0,24.0,27.860786,6.5203853,-16.569014,-0.12407649,0.3007431,9.799005,0.001005367,0.0013690817,0.008777412,-0.03067909926176071,0.01266147568821907,-1.3215961456298828,1016.1655,
2021.02.11 15:09:30,65.0,24.0,28.55516,6.6889305,-17.892172,-0.16893296,0.3443694,9.743825,0.0033733137,-0.0015170148,-0.0047608954,-0.035322319716215134,0.01733569987118244,-1.3167128562927246,1016.1655,
2021.02.11 15:09:30,65.0,24.0,28.158928,5.602002,-17.131392,-0.16178916,0.32420108,9.732982,0.0027802323,0.006413823,-0.0010956726,-0.033292628824710846,0.016621243208646774,-1.3524268865585327,1016.1655,
2021.02.11 15:09:30,65.0,24.0,28.057938,6.1274104,-17.273577,-0.17922145,0.3513668,9.774442,0.0038086502,0.010289681,0.003921561,-0.03592599555850029,0.018333669751882553,-1.3316582441329956,1016.1655,
2021.02.11 15:09:31,65.0,24.0,27.982948,6.104947,-17.728228,-0.14792079,0.32514608,9.753274,5.481848E-4,0.0027106479,-0.0043379995,-0.03332094848155975,0.015165108256042004,-1.333354115486145,1016.1655,
2021.02.11 15:09:31,65.0,24.0,29.22258,6.3949738,-17.275103,-0.18478815,0.37414253,9.757839,-3.8915395E-4,4.652785E-4,9.0219453E-4,-0.038317129015922546,0.01893514022231102,-1.3306918144226074,1016.1655,
2021.02.11 15:09:31,65.0,24.0,28.744522,5.8516803,-16.810152,-0.17368066,0.34866646,9.802193,0.009739886,0.0022474816,3.815149E-4,-0.03554968535900116,0.017716698348522186,-1.3473424911499023,1016.1655,
2021.02.11 15:09:31,65.0,24.0,28.687462,7.199966,-16.79334,-0.16240805,0.2965559,9.716897,0.008275452,3.1551125E-4,0.0056400537,-0.03050587885081768,0.016712427139282227,-1.3052928447723389,1016.1655,
2021.02.11 15:09:31,65.0,24.0,28.687508,6.897868,-17.797083,-0.24524839,0.42060402,9.791977,-0.005849901,-0.001730477,-0.007002456,-0.04291411116719246,0.02504061535000801,-1.3050150871276855,1016.1655,
2021.02.11 15:09:31,65.0,24.0,27.771988,6.9733047,-16.519438,-0.12397704,0.33165088,9.782861,-4.7796778E-4,0.0013004255,0.01178002,-0.033885519951581955,0.012672203592956066,-1.3037216663360596,1016.1655,
2021.02.11 15:09:31,65.0,24.0,27.12719,6.148351,-16.623934,-0.17468898,0.34111622,9.772456,0.008810096,0.004666852,0.004614284,-0.03488614782691002,0.017873743548989296,-1.3245962858200073,1016.1655,
2021.02.11 15:09:31,65.0,24.0,28.777924,6.5676327,-16.07997,-0.23928593,0.38538036,9.769531,0.012110945,0.0032753707,-0.008418505,-0.039414919912815094,0.024488186463713646,-1.3215155601501465,1016.1655,
2021.02.11 15:09:31,65.0,24.0,28.53527,5.915938,-16.537596,-0.1776938,0.37315845,9.743866,0.005971354,0.0030721917,0.012791075,-0.038271695375442505,0.018234455958008766,-1.3423234224319458,1016.1655,
2021.02.11 15:09:31,65.0,24.0,28.632828,5.488008,-16.814375,-0.13372028,0.3303133,9.741052,0.004543526,0.0052398983,-0.0036797014,-0.03389322757720947,0.01372663676738739,-1.3602977991104126,1016.1655,
2021.02.11 15:09:31,65.0,24.0,28.165237,5.842225,-17.532454,-0.21743047,0.3886509,9.735642,1.4595548E-4,0.0038021938,0.00714777,-0.03988929092884064,0.02232973650097847,-1.3387401103973389,1016.1651,
2021.02.11 15:09:31,65.0,24.0,28.659607,5.789382,-16.44026,-0.14639807,0.36010656,9.781731,3.9998762E-4,-0.0065799197,0.00411354,-0.03679346293210983,0.014965361915528774,-1.3490264415740967,1016.1647,
2021.02.11 15:09:31,65.0,24.0,28.626076,5.685863,-17.35349,-0.1482308,0.37098587,9.728192,-0.005790233,-0.0015623916,-3.8460223E-4,-0.03811224177479744,0.015236061066389084,-1.350191354751587,1016.1638,
2021.02.11 15:09:31,65.0,24.0,28.979347,6.208096,-17.003057,-0.18985832,0.3961124,9.817608,0.00965563,0.0015356368,-0.0062519787,-0.04031774029135704,0.019336143508553505,-1.3340632915496826,1016.1638,
2021.02.11 15:09:32,65.0,24.0,27.361946,7.8383255,-17.656443,-0.2280516,0.38028097,9.707704,-8.24527E-4,-0.0057191113,0.0042501222,-0.03914230689406395,0.023487497121095657,-1.2635364532470703,1016.1638,
2021.02.11 15:09:32,65.0,24.0,27.200027,6.3146095,-16.01634,-0.15918748,0.37914774,9.800902,0.0015333125,-0.0069470378,0.0026209252,-0.03866061195731163,0.016240697354078293,-1.3184293508529663,1016.1638,
2021.02.11 15:09:32,65.0,24.0,28.11145,5.80495,-17.302492,-0.20325275,0.38610172,9.73301,0.012607714,-8.8473153E-4,-0.0032822494,-0.039639879018068314,0.02087979018688202,-1.3403488397598267,1016.1638,
2021.02.11 15:09:32,65.0,24.0,28.62555,6.869141,-17.087667,-0.20286329,0.4086505,9.729014,0.010691571,4.5943446E-4,-0.007984633,-0.04196948930621147,0.02084835059940815,-1.3079458475112915,1016.16327,
2021.02.11 15:09:32,65.0,24.0,28.025558,6.2429385,-16.7326,-0.122722305,0.42548323,9.79799,-0.00788115,-0.004299745,0.010985227,-0.043394897133111954,0.012524599209427834,-1.3249832391738892,1016.1611,
2021.02.11 15:09:32,65.0,24.0,28.734589,7.6720667,-17.108202,-0.14692892,0.40960273,9.765539,0.003908725,-9.406535E-4,-0.0047760517,-0.041914381086826324,0.015044517815113068,-1.2839196920394897,1016.1605,
2021.02.11 15:09:32,65.0,24.0,28.027771,6.9878736,-17.419336,-0.18308246,0.43013835,9.740363,0.005594605,0.008184949,-0.0071102995,-0.044123947620391846,0.01879405416548252,-1.2971917390823364,1016.16034,
2021.02.11 15:09:32,65.0,24.0,27.518822,6.2674828,-16.468325,-0.11088238,0.39235076,9.720922,-0.0024169818,-0.0028421585,-0.01450271,-0.04033695533871651,0.011406075209379196,-1.3221429586410522,1016.16,
2021.02.11 15:09:32,65.0,24.0,28.643646,5.370752,-17.03689,-0.17251082,0.43383908,9.817615,0.0052775,-0.0018811463,-0.008756321,-0.0441543310880661,0.017569752410054207,-1.3574509620666504,1016.1599,
2021.02.11 15:09:32,65.0,24.0,28.333824,6.153469,-16.405352,-0.14343368,0.38386735,9.721144,0.0045170006,-1.7302367E-4,-0.020599678,-0.03946308046579361,0.014753743074834347,-1.332861065864563,1016.1598,
2021.02.11 15:09:32,65.0,24.0,28.621483,7.4200673,-16.925959,-0.23205931,0.46053234,9.761394,7.872862E-4,0.0012173306,0.0019544796,-0.04713069647550583,0.023768696933984756,-1.2865828275680542,1016.15967,
2021.02.11 15:09:32,65.0,24.0,26.220863,7.0684566,-17.109179,-0.1275556,0.3707401,9.706844,-0.004387016,-0.0075915726,-0.011721823,-0.038171831518411636,0.01314003299921751,-1.2817697525024414,1016.15906,
2021.02.11 15:09:32,65.0,24.0,27.863403,6.742442,-17.270586,-0.2091263,0.45242777,9.830494,-8.890339E-4,-0.0014054927,0.010782165,-0.045980051159858704,0.021270016208291054,-1.3025482892990112,1016.1589,
2021.02.11 15:09:33,65.0,24.0,28.208069,6.670352,-17.660627,-0.1592635,0.42224792,9.72374,0.00907292,0.004301211,0.0033338526,-0.04339136183261871,0.016377368941903114,-1.3099910020828247,1016.15875,
2021.02.11 15:09:33,65.0,24.0,27.565857,5.9490814,-17.97067,-0.15603389,0.41246986,9.709303,-0.010003884,0.0012384776,0.010003198,-0.0424509197473526,0.01606917195022106,-1.3290406465530396,1016.15875,
2021.02.11 15:09:33,65.0,24.0,27.798767,6.946488,-17.839003,-0.17122842,0.44509506,9.816291,-7.467753E-4,-0.001770345,0.011851834,-0.045304570347070694,0.01744152419269085,-1.2953009605407715,1016.15765,
2021.02.11 15:09:33,65.0,24.0,27.610146,6.689472,-17.284552,-0.199522,0.4524813,9.721947,0.002204977,0.005891987,0.023883361,-0.04649890959262848,0.020519962534308434,-1.301810383796692,1016.15533,
2021.02.11 15:09:33,65.0,24.0,28.930779,6.3473134,-18.459028,-0.123487316,0.4184831,9.745286,-0.0012535107,0.0026197927,0.013453297,-0.04291229695081711,0.01267081405967474,-1.3266258239746094,1016.15375,
2021.02.11 15:09:33,65.0,24.0,28.954247,6.3661485,-17.249968,-0.2001891,0.45574594,9.788175,-0.0053182384,0.0044581066,0.009135073,-0.04651755467057228,0.020449286326766014,-1.3245049715042114,1016.15137,
2021.02.11 15:09:33,65.0,24.0,29.678543,5.4331303,-16.389261,-0.07206256,0.36489847,9.7243,0.0029064806,3.3437042E-4,0.014780069,-0.03750576823949814,0.007410428952425718,-1.3688234090805054,1016.15106,
2021.02.11 15:09:33,65.0,24.0,28.309052,6.7768145,-16.466963,-0.1958726,0.4597902,9.821252,-0.012043465,4.6887563E-4,-5.7416153E-4,-0.04677239805459976,0.01994110830128193,-1.3066750764846802,1016.15106,
2021.02.11 15:09:33,65.0,24.0,28.186218,6.2125645,-17.852198,-0.14401975,0.43793783,9.727412,0.00571485,0.00300715,0.002090861,-0.04498569667339325,0.014804475009441376,-1.3241978883743286,1016.15106,
2021.02.11 15:09:33,65.0,24.0,27.851463,5.456528,-17.028704,-0.13037498,0.402588,9.806335,0.012812043,3.7364766E-4,-0.0060498235,-0.04102720320224762,0.013294192031025887,-1.3511911630630493,1016.15106,
2021.02.11 15:09:33,65.0,24.0,28.457893,6.8632174,-17.311743,-0.1519035,0.4040766,9.717494,0.0019030585,-7.609327E-4,-0.008184273,-0.041553378105163574,0.01563068851828575,-1.307573914527893,1016.15106,
2021.02.11 15:09:33,65.0,24.0,29.556053,7.1637044,-17.019331,-0.22071399,0.4552064,9.711014,-0.0023007644,3.650036E-4,0.0010168822,-0.04682890698313713,0.022724300622940063,-1.3035680055618286,1016.15106,
2021.02.11 15:09:33,65.0,24.0,27.39238,5.9888725,-17.502584,-0.1690138,0.4160916,9.779784,-0.008661088,0.0011342306,-0.003967495,-0.04251410812139511,0.01728023588657379,-1.3266557455062866,1016.15106,
2021.02.11 15:09:34,65.0,24.0,28.613388,8.552901,-18.499357,-0.14231072,0.40775144,9.739857,-0.009868377,-1.0190299E-5,0.002071647,-0.041835322976112366,0.014610132202506065,-1.2525484561920166,1016.15106,
2021.02.11 15:09:34,65.0,24.0,28.261276,6.6103296,-16.231031,-0.15098645,0.39033088,9.766725,-0.0074949395,0.004977704,-5.117173E-4,-0.039939358830451965,0.015458039939403534,-1.316806674003601,1016.15106,
2021.02.11 15:09:34,65.0,24.0,27.570602,6.024964,-16.331278,-0.1746902,0.3620362,9.727362,-0.012246841,1.9291765E-4,-0.0016692217,-0.03719516843557358,0.01795671135187149,-1.3317557573318481,1016.15106,
2021.02.11 15:09:34,65.0,24.0,27.906357,6.879985,-16.362188,-0.18880804,0.4187206,9.782439,-0.019766837,0.0020889034,0.004890175,-0.04276922717690468,0.019298315048217773,-1.3020869493484497,1016.15106,
2021.02.11 15:09:34,65.0,24.0,27.065529,6.83616,-16.375631,-0.1406399,0.39719197,9.795097,-3.422224E-4,0.0054761274,0.004917759,-0.040523700416088104,0.014357207342982292,-1.2978601455688477,1016.15106,
2021.02.11 15:09:34,65.0,24.0,28.088486,6.187015,-16.9885,-0.14928617,0.35124335,9.780435,-8.949825E-4,0.0034259707,-0.0026119787,-0.03589325398206711,0.015262570232152939,-1.3308467864990234,1016.15106,
2021.02.11 15:09:34,65.0,24.0,27.796028,6.963505,-16.681585,-0.18500906,0.37200025,9.711123,-0.010964315,0.003979024,0.0034278836,-0.03828095272183418,0.01904894784092903,-1.3003387451171875,1016.15106,
2021.02.11 15:09:34,65.0,24.0,29.57409,6.7344856,-17.221876,-0.14511296,0.36476508,9.776069,-0.009665376,0.0039865016,0.0033443319,-0.03729063272476196,0.014842603355646133,-1.3239128589630127,1016.15106,
2021.02.11 15:09:34,65.0,24.0,28.621643,5.4460726,-17.06814,-0.1627319,0.36889195,9.784485,0.0035885284,0.0038310108,-3.898705E-4,-0.03767867013812065,0.01663009263575077,-1.3586416244506836,1016.15106,
2021.02.11 15:09:34,65.0,24.0,27.976738,7.370835,-17.252855,-0.16624205,0.3360931,9.706866,-0.010437312,0.0025456701,-0.0019230497,-0.03460536524653435,0.017124557867646217,-1.2900912761688232,1016.15106,
2021.02.11 15:09:34,65.0,24.0,28.498657,6.551784,-16.86558,-0.16396542,0.37172332,9.803778,-0.0050517553,-0.0020561232,0.0016677734,-0.03789288550615311,0.016723157837986946,-1.3207926750183105,1016.15106,
2021.02.11 15:09:34,65.0,24.0,27.910088,8.062286,-16.546057,-0.15338995,0.3521938,9.771824,0.0023548692,0.0045308927,-0.002954251,-0.03602173924446106,0.015695877373218536,-1.2669570446014404,1016.1514,
2021.02.11 15:09:34,65.0,24.0,28.18782,6.770246,-16.79289,-0.16570197,0.36101964,9.7682085,5.1293656E-4,0.0011030737,-0.0038050162,-0.03693650662899017,0.01696176640689373,-1.3114122152328491,1016.1536,
2021.02.11 15:09:34,65.0,24.0,27.763618,6.307737,-16.791365,-0.15279408,0.31278768,9.76678,0.006942687,8.929068E-4,-0.013443792,-0.03201081603765488,0.015642985701560974,-1.3264557123184204,1016.1554,
2021.02.11 15:09:35,65.0,24.0,27.892426,6.2418494,-17.87023,-0.21172361,0.36027324,9.756291,-0.0052752183,0.0045921197,0.0010788296,-0.03690182417631149,0.02169783227145672,-1.324294090270996,1016.15546,
2021.02.11 15:09:35,65.0,24.0,29.269737,6.6553764,-16.605227,-0.20202196,0.37232432,9.7393465,-3.118841E-4,0.0046316995,0.0012041009,-0.038202062249183655,0.02073989063501358,-1.3232808113098145,1016.15546,
2021.02.11 15:09:35,65.0,24.0,28.925728,6.117216,-16.566847,-0.18002695,0.31891644,9.792085,4.2924896E-4,-0.0017051285,0.0065810806,-0.03255179151892662,0.018382875248789787,-1.3417885303497314,1016.1558,
2021.02.11 15:09:35,65.0,24.0,27.843758,6.7236733,-16.538538,-0.19670828,0.35420224,9.715488,-0.011014005,0.006635287,0.009433659,-0.036433883011341095,0.020244108512997627,-1.3099277019500732,1016.1564,
2021.02.11 15:09:35,65.0,24.0,28.717384,7.4864616,-17.044596,-0.20168675,0.36307645,9.756912,-0.016246753,-0.006787356,0.018797264,-0.037187132984399796,0.02066822350025177,-1.2913775444030762,1016.1577,
2021.02.11 15:09:35,65.0,24.0,28.418411,6.5748253,-17.510305,-0.16821094,0.3377138,9.798327,-0.014068012,-0.0038139545,0.022201132,-0.034447766840457916,0.017165623605251312,-1.3203918933868408,1016.1588,
2021.02.11 15:09:35,65.0,24.0,27.63868,7.601693,-18.005617,-0.19802268,0.35734496,9.774388,-0.007733589,0.003086085,0.0012457245,-0.03653554990887642,0.02025657147169113,-1.2761751413345337,1016.1595,
2021.02.11 15:09:35,65.0,24.0,27.91468,6.533897,-16.932455,-0.13759021,0.3115539,9.821986,-0.0059254384,-0.0025564013,0.008707803,-0.0317063108086586,0.014007474295794964,-1.3203485012054443,1016.1595,
2021.02.11 15:09:35,65.0,24.0,28.150658,7.254655,-15.830114,-0.18155406,0.3672941,9.694583,0.016091486,-0.003518043,-0.005915857,-0.03786178678274155,0.018725182861089706,-1.295434832572937,1016.15955,
2021.02.11 15:09:35,65.0,24.0,29.750061,7.6410627,-17.128942,-0.12722395,0.29844287,9.802636,-4.0217768E-4,0.002470437,-6.3597504E-4,-0.030433202162384987,0.012977817095816135,-1.3008253574371338,1016.16046,
2021.02.11 15:09:35,65.0,24.0,28.42546,6.6332936,-17.753958,-0.24061888,0.36520734,9.680783,-0.01364799,-0.0054508788,0.010848223,-0.03769546374678612,0.02485019527375698,-1.3147403001785278,1016.1605,
2021.02.11 15:09:35,65.0,24.0,28.399307,6.9981146,-16.97249,-0.15551631,0.34032264,9.829876,-0.008375993,-0.010822893,0.001060647,-0.03460310772061348,0.015819460153579712,-1.3070111274719238,1016.1605,
2021.02.11 15:09:35,65.0,24.0,28.581108,6.7189746,-16.274786,-0.19338949,0.35187736,9.72968,-0.015585158,-9.5019944E-4,0.023230202,-0.03614247217774391,0.01987362653017044,-1.317172884941101,1016.1605,
2021.02.11 15:09:35,65.0,24.0,28.400284,6.3091793,-17.336084,-0.16265698,0.29427806,9.700217,-0.045827765,-0.008512268,0.013291555,-0.030323702841997147,0.01676681451499462,-1.3318594694137573,1016.1605,
2021.02.11 15:09:36,65.0,24.0,27.65567,7.5401855,-16.878496,-0.12034831,0.27087155,9.789235,-0.037887175,-0.010944764,0.020778857,-0.02766120247542858,0.012293325737118721,-1.286720871925354,1016.16095,
2021.02.11 15:09:36,65.0,24.0,28.424728,6.0939455,-17.98065,-0.0964576,0.24087489,9.763667,0.00913272,-0.018947296,-0.009512056,-0.02466432936489582,0.009878917597234249,-1.343184471130371,1016.16095,
2021.02.11 15:09:36,65.0,24.0,27.49897,7.3643646,-16.425745,-0.18947448,0.31581783,9.824967,0.027228162,-0.009068512,-0.010941281,-0.03212738409638405,0.01928260736167431,-1.2877329587936401,1016.1611,
2021.02.11 15:09:36,65.0,24.0,27.671486,5.8382516,-17.058783,0.015585701,0.25329185,9.971093,0.030844957,-0.03744904,-0.0058765705,-0.025397123768925667,-0.0015630872221663594,-1.3482316732406616,1016.1611,
2021.02.11 15:09:36,65.0,24.0,28.659554,7.3667293,-17.314672,-0.104396045,0.4525229,9.629664,0.03543481,-0.048738882,-0.01924298,-0.04695529118180275,0.010840664617717266,-1.2908241748809814,1016.16113,
