Time,X-cord,Y-cord,Mag_x,Mag_y,Mag_z,Acc_x,Acc_y,Acc_z,Gyro_x,Gyro_y,Gyro_z,Orn_x,Orn_y,Orn_z,Pressure,
2021.02.11 12:11:28,48.0,13.0,8.4,-31.38,-33.899998,-0.20350714,0.6775591,9.25359,0.15515977,-0.07391469,-0.04642576,-0.07307317107915878,0.02198869176208973,-2.881950616836548,1020.3728,
2021.02.11 12:11:28,48.0,13.0,8.58,-31.019999,-34.32,-0.093373865,0.6727707,9.548077,0.1685988,0.07696902,-0.027488936,-0.07034177333116531,0.009779025800526142,-2.860253095626831,1020.3728,
2021.02.11 12:11:28,48.0,13.0,8.58,-31.32,-33.899998,-0.1388637,0.6895301,9.988609,6.1086525E-4,-0.037873644,0.014660766,-0.06891565769910812,0.013901309110224247,-2.8681023120880127,1020.3728,
2021.02.11 12:11:28,48.0,13.0,8.58,-31.38,-33.719997,-0.22026655,0.7517793,9.904813,-0.002443461,-0.021380283,0.004276057,-0.07573650032281876,0.02223467081785202,-2.875530481338501,1020.3728,
2021.02.11 12:11:28,48.0,13.0,9.179999,-31.859999,-33.3,-0.12928689,0.9504981,9.646238,0.095294975,0.023823744,0.0,-0.09820979833602905,0.013402027077972889,-2.843564748764038,1020.3699,
2021.02.11 12:11:28,48.0,13.0,9.36,-32.52,-32.7,-0.15562311,0.82599956,9.667787,0.12583824,-0.040927973,0.015271631,-0.08522036671638489,0.016095686703920364,-2.8516666889190674,1020.3699,
2021.02.11 12:11:28,48.0,13.0,9.179999,-32.52,-32.46,0.22984336,0.6607997,9.452309,0.07819075,-0.05131268,0.056199603,-0.06977470219135284,-0.02431131713092327,-2.8227758407592773,1020.3699,
2021.02.11 12:11:28,48.0,13.0,9.54,-32.579998,-32.34,0.04309563,0.78769237,9.481039,0.055588737,-0.022602014,0.059864793,-0.08288958668708801,-0.004545423202216625,-2.8272457122802734,1020.3699,
2021.02.11 12:11:28,48.0,13.0,9.48,-32.46,-32.219997,-0.06943185,0.81642276,9.746795,0.031154128,-0.004276057,0.002443461,-0.08356601744890213,0.007123436313122511,-2.8391976356506348,1020.3611,
2021.02.11 12:11:28,48.0,13.0,9.24,-31.859999,-32.399998,-0.11731588,0.79008657,9.768343,-0.015882496,0.032375857,-0.002443461,-0.08070087432861328,0.012009226717054844,-2.8466901779174805,1020.3611,
2021.02.11 12:11:28,48.0,13.0,9.179999,-31.74,-32.52,0.011971008,0.8331822,9.56723,-6.1086525E-4,-0.007941248,0.0,-0.08686785399913788,-0.0012512505054473877,-2.8317415714263916,1020.3611,
2021.02.11 12:11:28,48.0,13.0,9.0,-32.46,-32.7,0.01436521,0.89064306,9.61272,-0.0012217305,-0.010995574,0.0012217305,-0.09238868951797485,-0.0014943949645385146,-2.8421082496643066,1020.3611,
2021.02.11 12:11:28,48.0,13.0,8.58,-32.04,-32.94,0.021547815,0.79487497,9.849746,-0.03970624,0.02443461,-0.029932396,-0.08052535355091095,-0.0021876483224332333,-2.8543503284454346,1020.3633,
2021.02.11 12:11:28,48.0,13.0,9.12,-32.64,-33.12,-0.1388637,0.82121116,9.849746,-0.018936822,0.012217305,-0.020158553,-0.0831732228398323,0.014097267761826515,-2.858706474304199,1020.3633,
2021.02.11 12:11:28,48.0,13.0,9.179999,-32.46,-33.3,-0.16519992,0.8858546,9.792285,0.0030543262,-0.007330383,-0.016493361,-0.09020619839429855,0.016868814826011658,-2.8556976318359375,1020.3633,
2021.02.11 12:11:28,48.0,13.0,9.059999,-31.56,-33.059998,-0.18435353,0.94570965,9.679757,0.018325957,-6.1086525E-4,-0.007330383,-0.0973730981349945,0.019042961299419403,-2.8509576320648193,1020.3633,
2021.02.11 12:11:28,48.0,13.0,9.179999,-32.1,-32.94,-0.031124622,0.7541735,9.770737,0.0067195175,-0.01282817,0.01282817,-0.07703384011983871,0.0031854831613600254,-2.8428432941436768,1020.36646,
2021.02.11 12:11:28,48.0,13.0,8.46,-31.32,-32.82,0.17717093,0.7302315,9.56723,0.0018325958,0.021991149,0.025045475,-0.07616561651229858,-0.018516402691602707,-2.8360583782196045,1020.36646,
2021.02.11 12:11:28,48.0,13.0,9.179999,-32.1,-32.94,0.079008654,0.80924016,9.8042555,-0.0067195175,0.0018325958,-0.009773844,-0.08235033601522446,-0.008058433420956135,-2.8296291828155518,1020.36646,
2021.02.11 12:11:28,48.0,13.0,9.12,-32.399998,-33.239998,-0.11492168,0.80445176,9.801862,-0.021991149,0.02443461,-0.040927973,-0.08188220113515854,0.011723936535418034,-2.8544726371765137,1020.36646,
2021.02.11 12:11:28,48.0,13.0,8.94,-32.16,-33.36,-0.18914193,0.7613561,9.6845455,0.007330383,0.018325957,-0.056199603,-0.07843932509422302,0.019527800381183624,-2.867154121398926,1020.36865,
2021.02.11 12:11:28,48.0,13.0,9.599999,-32.76,-33.12,-0.23223756,0.82121116,9.655815,0.02076942,0.002443461,-0.035430185,-0.08481977134943008,0.024046937003731728,-2.8545854091644287,1020.36865,
2021.02.11 12:11:29,48.0,13.0,9.24,-31.859999,-32.7,-0.17238252,0.8331822,9.737218,0.007330383,0.0036651916,-0.021991149,-0.08534553647041321,0.017701616510748863,-2.8508713245391846,1020.36865,
2021.02.11 12:11:29,48.0,13.0,10.08,-32.04,-32.7,-0.050278235,0.78290397,9.77792,-0.005497787,0.002443461,0.007941248,-0.07989705353975296,0.0051419720984995365,-2.8156397342681885,1020.36865,
2021.02.11 12:11:29,48.0,13.0,10.5,-32.28,-32.52,-0.04070143,0.7350199,9.77792,-0.0030543262,0.013439035,0.0030543262,-0.0750296413898468,0.00416256207972765,-2.8063364028930664,1020.37036,
2021.02.11 12:11:29,48.0,13.0,10.26,-31.8,-33.0,-0.12449849,0.78290397,9.591172,-0.0012217305,0.017715093,-0.004276057,-0.08144015073776245,0.012979799881577492,-2.8147506713867188,1020.37036,
2021.02.11 12:11:29,48.0,13.0,10.26,-32.399998,-32.82,-0.16280572,0.79726917,9.768343,0.007941248,-0.005497787,-0.018325957,-0.08142588287591934,0.016665123403072357,-2.824659585952759,1020.37036,
2021.02.11 12:11:29,48.0,13.0,9.48,-32.219997,-32.76,-0.16759412,0.8403648,9.801862,-0.02443461,0.018936822,-0.0018325958,-0.085513636469841,0.01709652692079544,-2.8460278511047363,1020.37036,
2021.02.11 12:11:29,48.0,13.0,9.24,-31.859999,-32.7,-0.29448682,0.8834604,9.751583,-0.0012217305,0.004886922,-0.007330383,-0.0903090164065361,0.030189696699380875,-2.8622524738311768,1020.37085,
2021.02.11 12:11:29,48.0,13.0,9.599999,-32.76,-33.12,-0.090979666,0.7757214,9.730036,0.008552114,0.0067195175,0.013439035,-0.07955268025398254,0.009350121021270752,-2.8414573669433594,1020.37085,
2021.02.11 12:11:29,48.0,13.0,9.66,-32.34,-33.48,-0.035913024,0.7661445,9.634268,0.010995574,0.0030543262,0.04337143,-0.07935531437397003,0.00372761650942266,-2.829772472381592,1020.37085,
2021.02.11 12:11:29,48.0,13.0,10.2,-32.579998,-33.12,0.01436521,0.81881696,9.799467,0.0030543262,-0.014049901,0.032986723,-0.08336355537176132,-0.0014659165171906352,-2.809424638748169,1020.37085,
2021.02.11 12:11:29,48.0,13.0,9.96,-32.76,-33.66,-0.06464344,0.81642276,9.828198,-0.009773844,0.009773844,0.016493361,-0.08287735283374786,0.006577249150723219,-2.8262922763824463,1020.36426,
2021.02.11 12:11:29,48.0,13.0,9.719999,-32.16,-33.0,-0.074220255,0.8571242,9.730036,0.01038471,-0.009773844,0.004886922,-0.08786119520664215,0.007627804763615131,-2.827376127243042,1020.36426,
2021.02.11 12:11:29,48.0,13.0,9.66,-32.52,-32.94,-0.17238252,0.8331822,9.710882,0.028710667,0.004886922,-0.004276057,-0.08557578921318054,0.017749615013599396,-2.843867540359497,1020.36426,
2021.02.11 12:11:29,48.0,13.0,9.36,-32.1,-33.42,-0.31364042,0.8714894,9.643845,0.031154128,-0.009162978,-0.007941248,-0.09007526934146881,0.03251088410615921,-2.8632681369781494,1020.36426,
2021.02.11 12:11:29,48.0,13.0,9.599999,-32.399998,-32.94,-0.06703765,0.8762778,9.581595,0.029932396,-0.008552114,0.021991149,-0.09119835495948792,0.006996387615799904,-2.8316946029663086,1020.3606,
2021.02.11 12:11:29,48.0,13.0,9.54,-32.64,-32.88,0.0047884034,0.7757214,9.78989,0.004276057,-0.022602014,0.04153884,-0.0790717601776123,-4.891171120107174E-4,-2.832650661468506,1020.3606,
2021.02.11 12:11:29,48.0,13.0,9.36,-31.98,-32.7,0.035913024,0.81402856,9.809045,-0.004276057,-0.015271631,0.031154128,-0.08279726654291153,-0.0036611987743526697,-2.8273682594299316,1020.3606,
2021.02.11 12:11:29,48.0,13.0,8.88,-32.34,-32.16,-0.07182605,0.8714894,9.564836,0.040317107,-0.019547688,-0.009773844,-0.09086045622825623,0.007509245537221432,-2.8547327518463135,1020.3606,
2021.02.11 12:11:29,48.0,13.0,8.76,-31.679998,-32.7,-0.08140286,0.878672,9.691729,0.02443461,6.1086525E-4,-0.007330383,-0.09041169285774231,0.008399011567234993,-2.853104829788208,1020.36206,
2021.02.11 12:11:29,48.0,13.0,9.059999,-31.98,-32.82,-0.076614454,0.93613285,9.7803135,-0.01038471,-0.004886922,-0.0067195175,-0.0954224169254303,0.007833377458155155,-2.8439977169036865,1020.36206,
2021.02.11 12:11:29,48.0,13.0,9.54,-32.76,-32.579998,-0.079008654,0.8403648,9.622296,0.0,0.010995574,-0.004276057,-0.0871112048625946,0.008210813626646996,-2.8398892879486084,1020.36206,
2021.02.11 12:11:29,48.0,13.0,9.719999,-32.579998,-32.94,0.033518825,0.8451532,9.722853,-0.009162978,-6.1086525E-4,0.0012217305,-0.08670594543218613,-0.0034474132116883993,-2.820931911468506,1020.36206,
2021.02.11 12:11:29,48.0,13.0,9.96,-33.42,-32.46,-0.15801731,0.90500826,9.694122,-0.01160644,0.008552114,-0.015882496,-0.09307429939508438,0.01629887893795967,-2.839357376098633,1020.3533,
2021.02.11 12:11:29,48.0,13.0,9.36,-32.76,-32.34,-0.14844051,0.8810662,9.787497,-0.009773844,0.004886922,-0.032375857,-0.08976732194423676,0.015165177173912525,-2.8515708446502686,1020.3533,
2021.02.11 12:11:29,48.0,13.0,9.059999,-32.34,-32.399998,-0.02873042,0.878672,9.653421,-0.017715093,0.018936822,-0.0067195175,-0.09077128767967224,0.0029761814512312412,-2.844400405883789,1020.3533,
2021.02.11 12:11:30,48.0,13.0,9.42,-32.399998,-32.04,-0.17238252,0.93373865,9.7563715,0.0,-0.0061086523,-0.016493361,-0.0954001173377037,0.017666874453425407,-2.8470919132232666,1020.3533,
2021.02.11 12:11:30,48.0,13.0,9.24,-31.679998,-32.64,-0.050278235,0.92176765,9.703699,-0.017104227,0.019547688,-0.014049901,-0.09470593184232712,0.0051813009195029736,-2.832919120788574,1020.35913,
2021.02.11 12:11:30,48.0,13.0,9.719999,-32.34,-32.88,0.0,0.81642276,9.674969,-0.0018325958,0.0061086523,-0.0061086523,-0.08418560773134232,1.0E-6,-2.8229074478149414,1020.35913,
2021.02.11 12:11:30,48.0,13.0,9.42,-31.98,-33.0,0.0047884034,0.90261406,9.706094,-0.004276057,-0.0012217305,-0.009773844,-0.09272787719964981,-4.933398449793458E-4,-2.8248376846313477,1020.35913,
2021.02.11 12:11:30,48.0,13.0,8.82,-32.219997,-33.36,-0.24899697,0.92895025,9.816227,-0.013439035,0.0012217305,-0.029321533,-0.09432299435138702,0.025360416620969772,-2.872594118118286,1020.35913,
2021.02.11 12:11:30,48.0,13.0,9.36,-32.7,-32.76,-0.12210429,0.8595184,9.734824,-0.0036651916,-0.012217305,-0.03176499,-0.08805789798498154,0.012542381882667542,-2.8487844467163086,1020.3821,
2021.02.11 12:11:30,48.0,13.0,9.24,-32.1,-32.88,-0.06943185,0.878672,9.555259,0.018325957,0.0,0.0030543262,-0.0916966050863266,0.007266221567988396,-2.8401403427124023,1020.3821,
2021.02.11 12:11:30,48.0,13.0,9.66,-32.82,-32.82,-0.1316811,0.8451532,9.737218,0.020158553,-0.021991149,-0.007330383,-0.08657130599021912,0.013522659428417683,-2.8421387672424316,1020.3821,
2021.02.11 12:11:30,48.0,13.0,10.32,-33.059998,-32.76,0.076614454,0.8283938,9.679757,-0.015882496,-0.0012217305,0.0018325958,-0.08536934852600098,-0.007914748974144459,-2.804170846939087,1020.3821,
2021.02.11 12:11:30,48.0,13.0,9.84,-32.88,-32.94,-0.11252748,0.91219085,9.646238,0.004276057,-0.015271631,0.0061086523,-0.09427765756845474,0.011664897203445435,-2.832627773284912,1020.37036,
2021.02.11 12:11:30,48.0,13.0,10.139999,-33.3,-32.46,-0.17477672,0.91697925,9.794679,0.0012217305,-0.0036651916,-0.02443461,-0.09333328157663345,0.01784215308725834,-2.8342125415802,1020.37036,
2021.02.11 12:11:30,48.0,13.0,10.0199995,-32.7,-32.82,-0.02633622,0.79726917,9.694122,-0.013439035,-0.017104227,-0.004886922,-0.08205755054950714,0.002716713584959507,-2.8208985328674316,1020.37036,
2021.02.11 12:11:30,48.0,13.0,10.0199995,-32.1,-32.88,-0.06703765,0.8882488,9.507375,0.009162978,-0.0012217305,0.013439035,-0.09315463155508041,0.007051004096865654,-2.8149919509887695,1020.37036,
2021.02.11 12:11:30,48.0,13.0,9.84,-32.04,-32.76,0.047884032,0.81163436,9.722853,0.014660766,-0.021380283,-0.009162978,-0.08328287303447723,-0.004924855660647154,-2.811690330505371,1020.36426,
2021.02.11 12:11:30,48.0,13.0,9.48,-31.92,-33.059998,-0.062249243,0.8499416,9.797073,-0.032986723,-6.1086525E-4,0.0012217305,-0.0865362361073494,0.006353775504976511,-2.831589937210083,1020.36426,
2021.02.11 12:11:30,48.0,13.0,9.179999,-32.16,-33.0,-0.1388637,0.92176765,9.698911,-0.002443461,-0.009773844,-0.031154128,-0.09474401921033859,0.01431647501885891,-2.848799228668213,1020.36426,
2021.02.11 12:11:30,48.0,13.0,8.639999,-32.219997,-33.12,-0.12449849,0.866701,9.715671,0.004276057,-0.004886922,-0.004886922,-0.08896373212337494,0.012813492678105831,-2.8668153285980225,1020.36426,
2021.02.11 12:11:30,48.0,13.0,9.0,-31.98,-32.82,-0.0023942017,0.90021986,9.710882,-0.012217305,-0.010995574,-0.004276057,-0.09243796765804291,2.4654832668602467E-4,-2.839099645614624,1020.35693,
2021.02.11 12:11:30,48.0,13.0,9.059999,-31.74,-32.82,0.023942016,0.81881696,9.634268,-0.004276057,0.0030543262,0.0018325958,-0.08478604257106781,-0.0024850841145962477,-2.8347225189208984,1020.35693,
2021.02.11 12:11:30,48.0,13.0,8.82,-31.74,-32.7,0.079008654,0.80684596,9.67018,0.007330383,0.0,-0.012217305,-0.08324091881513596,-0.008170156739652157,-2.837127208709717,1020.35693,
2021.02.11 12:11:30,48.0,13.0,9.3,-31.8,-32.52,-0.088585466,0.89064306,9.80665,-0.02565634,-0.0012217305,-0.023823744,-0.09056815505027771,0.009032957255840302,-2.837738037109375,1020.35693,
2021.02.11 12:11:30,48.0,13.0,8.94,-32.16,-33.0,-0.18195933,0.91937345,9.598354,0.0061086523,-0.0012217305,-0.04153884,-0.09547611325979233,0.01895507611334324,-2.8610680103302,1020.3655,
2021.02.11 12:11:30,48.0,13.0,9.12,-31.859999,-33.0,0.0,0.8403648,9.720459,0.013439035,0.005497787,-0.017715093,-0.08623877912759781,1.0E-6,-2.835905075073242,1020.3655,
2021.02.11 12:11:30,48.0,13.0,9.48,-31.619999,-32.579998,-0.035913024,0.85473,9.7563715,-0.012217305,0.004886922,-0.0030543262,-0.0873836800456047,0.003680964931845665,-2.825852870941162,1020.3655,
2021.02.11 12:11:30,48.0,13.0,9.179999,-31.38,-32.82,0.059855044,0.82121116,9.65821,0.005497787,0.0018325958,-0.021380283,-0.08482162654399872,-0.0061972434632480145,-2.82344651222229,1020.3655,
2021.02.11 12:11:31,48.0,13.0,9.599999,-31.199999,-32.16,-0.15322891,0.8714894,9.624691,0.01282817,6.1086525E-4,-0.029932396,-0.0902896374464035,0.015919052064418793,-2.8294520378112793,1020.3701,
2021.02.11 12:11:31,48.0,13.0,9.48,-31.5,-32.1,-0.1604115,0.90261406,9.65821,6.1086525E-4,0.0018325958,-0.03604105,-0.09317219257354736,0.016607297584414482,-2.836066484451294,1020.3701,
2021.02.11 12:11:31,48.0,13.0,9.9,-31.859999,-32.16,-0.12210429,0.89782566,9.679757,0.0061086523,0.004886922,-0.022602014,-0.09248097240924835,0.012613726779818535,-2.822578191757202,1020.3701,
2021.02.11 12:11:31,48.0,13.0,10.139999,-32.219997,-32.28,0.007182605,0.8403648,9.7803135,-0.012217305,0.0061086523,6.1086525E-4,-0.08571356534957886,-7.343940669670701E-4,-2.8081071376800537,1020.3701,
2021.02.11 12:11:31,48.0,13.0,9.84,-32.64,-32.399998,-0.06703765,0.82360536,9.763555,-0.0036651916,6.1086525E-4,0.0012217305,-0.08415386825799942,0.006866002921015024,-2.8293724060058594,1020.3694,
2021.02.11 12:11:31,48.0,13.0,9.54,-32.7,-32.28,-0.059855044,0.8810662,9.753978,0.015882496,0.021380283,-0.002443461,-0.09008274972438812,0.006136398296803236,-2.8364505767822266,1020.3694,
2021.02.11 12:11:31,48.0,13.0,9.3,-32.579998,-32.219997,-0.10534488,0.90021986,9.727641,0.016493361,-0.004886922,-0.007330383,-0.0922742560505867,0.010829013772308826,-2.8466668128967285,1020.3694,
2021.02.11 12:11:31,48.0,13.0,9.0,-32.399998,-31.859999,-0.15083471,0.8379706,9.600749,0.02076942,-0.018936822,-0.01038471,-0.08705047518014908,0.01570943184196949,-2.8610646724700928,1020.3694,
2021.02.11 12:11:31,48.0,13.0,9.24,-32.16,-32.04,0.12210429,0.80684596,9.636662,0.02565634,6.1086525E-4,-6.1086525E-4,-0.08352521061897278,-0.012670129537582397,-2.8244354724884033,1020.365,
2021.02.11 12:11:31,48.0,13.0,9.78,-32.34,-32.28,-0.1436521,0.93134445,9.662998,0.01282817,0.0067195175,0.005497787,-0.09607519954442978,0.014865107834339142,-2.8320999145507812,1020.365,
2021.02.11 12:11:31,48.0,13.0,9.66,-32.04,-33.0,-0.17956513,0.91458505,9.801862,0.004886922,-0.0036651916,-0.029321533,-0.09302238374948502,0.018317442387342453,-2.8372035026550293,1020.365,
2021.02.11 12:11:31,48.0,13.0,10.32,-31.859999,-33.18,-0.04309563,0.8619126,9.646238,0.0,0.014660766,-0.0036651916,-0.08911465853452682,0.004467580001801252,-2.8018298149108887,1020.365,
2021.02.11 12:11:31,48.0,13.0,9.96,-31.92,-33.0,-0.011971008,0.8858546,9.655815,0.021991149,0.0,0.014049901,-0.09148694574832916,0.001239771256223321,-2.80958890914917,1020.3762,
2021.02.11 12:11:31,48.0,13.0,10.139999,-31.5,-32.64,-0.08379706,0.9528923,9.746795,0.007941248,0.004276057,0.004886922,-0.09745141118764877,0.008597184903919697,-2.8048932552337646,1020.3762,
2021.02.11 12:11:31,48.0,13.0,9.96,-31.32,-32.16,-0.055066638,0.8403648,9.77792,6.1086525E-4,-0.0012217305,-0.004886922,-0.08573312312364578,0.005631674081087112,-2.810487985610962,1020.3762,
2021.02.11 12:11:31,48.0,13.0,9.36,-31.38,-32.28,-0.10295067,0.8858546,9.622296,0.013439035,0.009162978,0.007941248,-0.09179870784282684,0.010698771104216576,-2.8330259323120117,1020.3762,
2021.02.11 12:11:31,48.0,13.0,9.48,-31.019999,-32.579998,-0.23942018,0.9983821,9.569624,0.02687807,-0.018936822,-0.01160644,-0.10391990095376968,0.025013547390699387,-2.8359153270721436,1020.3635,
2021.02.11 12:11:31,48.0,13.0,8.82,-30.72,-32.76,-0.090979666,0.91697925,9.727641,0.004276057,-0.014049901,0.022602014,-0.09398350864648819,0.009352422319352627,-2.841402530670166,1020.3635,
2021.02.11 12:11:31,48.0,13.0,8.88,-31.019999,-33.239998,0.01436521,0.8595184,9.6845455,-0.017104227,-0.021380283,0.0421497,-0.08851952105760574,-0.0014833116438239813,-2.8324828147888184,1020.3635,
2021.02.11 12:11:31,48.0,13.0,8.88,-31.019999,-33.42,-0.0047884034,0.89303726,9.629479,-0.013439035,-0.01038471,0.032986723,-0.09247540682554245,4.972650203853846E-4,-2.8329639434814453,1020.3635,
2021.02.11 12:11:31,48.0,13.0,9.059999,-31.679998,-33.42,-0.016759412,0.9959879,9.593566,-0.009162978,-0.018325957,0.0067195175,-0.1034475639462471,0.0017469411250203848,-2.8311445713043213,1020.36694,
2021.02.11 12:11:31,48.0,13.0,9.179999,-31.98,-33.239998,-0.023942016,0.82599956,9.294291,0.0012217305,0.04337143,-0.009773844,-0.0886385515332222,0.002575986087322235,-2.836817979812622,1020.36694,
2021.02.11 12:11:31,48.0,13.0,9.3,-32.16,-32.94,-0.009576807,0.80205756,9.873688,-0.045814894,0.027488936,0.02687807,-0.08105380833148956,9.699318325147033E-4,-2.8360841274261475,1020.36694,
2021.02.11 12:11:31,48.0,13.0,9.12,-32.04,-32.52,-0.05267244,0.90261406,10.000581,-0.100792766,0.002443461,0.01160644,-0.09001103043556213,0.005266889464110136,-2.842123031616211,1020.36694,
2021.02.11 12:11:31,48.0,13.0,8.7,-31.439999,-32.88,-0.05746084,0.93852705,9.744401,-0.02443461,-0.027488936,-0.021380283,-0.09601666033267975,0.0058967373333871365,-2.8480334281921387,1020.3618,
2021.02.11 12:11:32,48.0,13.0,8.639999,-31.439999,-33.0,-0.0047884034,0.8571242,9.49301,0.04153884,0.0018325958,0.002443461,-0.09004586189985275,5.044135614298284E-4,-2.8462584018707275,1020.3618,
2021.02.11 12:11:32,48.0,13.0,8.46,-31.14,-32.94,-0.11731588,0.866701,9.481039,0.027488936,-0.028710667,-0.007941248,-0.0911538302898407,0.012373104691505432,-2.861611843109131,1020.3618,
2021.02.11 12:11:32,48.0,13.0,8.82,-31.56,-33.239998,-0.033518825,0.8355764,9.753978,-0.017104227,-0.0036651916,-0.0061086523,-0.08545606583356857,0.0034364128950983286,-2.846158027648926,1020.3618,
2021.02.11 12:11:32,48.0,13.0,9.179999,-31.8,-33.18,-0.02633622,0.90979666,9.768343,-0.034208454,-0.0018325958,0.01038471,-0.09286901354789734,0.0026960717514157295,-2.833676815032959,1020.3562,
2021.02.11 12:11:32,48.0,13.0,9.24,-31.92,-33.54,0.0023942017,0.8355764,9.586384,0.0018325958,-0.013439035,-0.015271631,-0.08694309741258621,-2.497502136975527E-4,-2.831749677658081,1020.3562,
2021.02.11 12:11:32,48.0,13.0,9.24,-32.34,-33.42,0.023942016,0.8762778,9.643845,0.013439035,0.0018325958,0.0018325958,-0.09061483293771744,-0.0024826163426041603,-2.832397222518921,1020.3562,
2021.02.11 12:11:32,48.0,13.0,8.88,-31.92,-33.059998,-0.1388637,0.8810662,9.631873,-0.0036651916,-0.007941248,-0.017104227,-0.0912107303738594,0.0144161032512784,-2.857388973236084,1020.3562,
2021.02.11 12:11:32,48.0,13.0,8.639999,-31.92,-32.76,-0.0047884034,0.8595184,9.737218,-0.0012217305,-0.0061086523,-0.015271631,-0.08804325014352798,4.91762941237539E-4,-2.8517465591430664,1020.35913,
2021.02.11 12:11:32,48.0,13.0,8.22,-31.8,-32.34,-0.14844051,0.9552865,9.703699,-0.0061086523,0.0018325958,-0.005497787,-0.09811799973249435,0.015296119265258312,-2.8766281604766846,1020.35913,
2021.02.11 12:11:32,48.0,13.0,8.28,-31.679998,-32.76,0.031124622,0.92416185,9.579201,0.007330383,-0.0061086523,-0.015882496,-0.09617772698402405,-0.003249176312237978,-2.8543641567230225,1020.35913,
2021.02.11 12:11:32,48.0,13.0,8.639999,-31.56,-32.94,0.06943185,0.8331822,9.622296,0.019547688,-0.0061086523,0.009162978,-0.0863710418343544,-0.007215600460767746,-2.840683698654175,1020.35913,
2021.02.11 12:11:32,48.0,13.0,9.12,-31.38,-32.88,-0.08140286,0.8475474,9.610326,0.0067195175,0.0036651916,-0.007330383,-0.0879606083035469,0.008470151573419571,-2.839428663253784,1020.365,
2021.02.11 12:11:32,48.0,13.0,9.179999,-31.619999,-32.82,-0.1316811,0.91937345,9.660604,0.0061086523,-0.01038471,-0.034208454,-0.09487278014421463,0.01362988818436861,-2.8428831100463867,1020.365,
2021.02.11 12:11:32,48.0,13.0,9.599999,-31.619999,-32.46,-0.033518825,0.8523358,9.557653,0.0030543262,-0.0018325958,-0.018325957,-0.0889425203204155,0.003506999695673585,-2.821420669555664,1020.365,
2021.02.11 12:11:32,48.0,13.0,9.42,-31.92,-32.28,0.06464344,0.79966336,9.531317,0.0036651916,-0.010995574,-0.004276057,-0.08370058238506317,-0.006782110780477524,-2.821892261505127,1020.365,
2021.02.11 12:11:32,48.0,13.0,8.82,-31.8,-32.64,-0.08379706,0.866701,9.662998,-0.014049901,-0.009162978,-0.0030543262,-0.08945005387067795,0.008671734482049942,-2.852962017059326,1020.3701,
2021.02.11 12:11:32,48.0,13.0,9.0,-31.56,-33.0,-0.05267244,0.92416185,9.660604,-0.029321533,-0.008552114,-0.013439035,-0.095371313393116,0.005452238954603672,-2.839167594909668,1020.3701,
2021.02.11 12:11:32,48.0,13.0,8.28,-30.96,-33.0,-0.02873042,0.8762778,9.617508,-0.017715093,-0.019547688,0.0012217305,-0.0908614844083786,0.0029872951563447714,-2.855726480484009,1020.3701,
2021.02.11 12:11:32,48.0,13.0,8.099999,-30.84,-32.88,0.0,0.78529817,9.61272,-0.018325957,-0.0030543262,6.1086525E-4,-0.08151263743638992,1.0E-6,-2.8605692386627197,1020.3701,
2021.02.11 12:11:32,48.0,13.0,8.28,-30.84,-32.34,0.0,0.8331822,9.713276,-0.02565634,-0.015271631,0.0067195175,-0.08556822687387466,1.0E-6,-2.853715181350708,1020.3606,
2021.02.11 12:11:32,48.0,13.0,8.099999,-30.84,-32.219997,-0.09816227,0.8882488,9.763555,-0.029321533,-0.008552114,-0.004276057,-0.09072165191173553,0.010053609497845173,-2.868739604949951,1020.3606,
2021.02.11 12:11:32,48.0,13.0,8.76,-31.439999,-32.7,-0.02873042,0.8403648,9.698911,-0.013439035,-0.008552114,0.0,-0.08642905205488205,0.0029622227884829044,-2.8464767932891846,1020.3606,
2021.02.11 12:11:32,48.0,13.0,9.24,-31.5,-33.0,0.047884032,0.79726917,9.583989,0.007941248,-0.008552114,0.014049901,-0.08299548178911209,-0.004996211268007755,-2.824512243270874,1020.3606,
2021.02.11 12:11:32,48.0,13.0,9.42,-31.8,-33.54,0.021547815,0.7781156,9.67018,0.008552114,-0.015882496,0.013439035,-0.08029227703809738,-0.002228270750492811,-2.8252811431884766,1020.3528,
2021.02.11 12:11:32,48.0,13.0,9.599999,-31.619999,-33.36,0.011971008,0.80924016,9.6845455,-0.013439035,-0.0030543262,0.007330383,-0.08336622267961502,-0.0012360932305455208,-2.8178555965423584,1020.3528,
2021.02.11 12:11:33,48.0,13.0,9.48,-31.56,-33.18,-0.016759412,0.79008657,9.639056,0.015271631,-0.016493361,-0.007330383,-0.08178425580263138,0.001738696824759245,-2.824815511703491,1020.3528,
2021.02.11 12:11:33,48.0,13.0,9.179999,-31.019999,-33.0,-0.0023942017,0.8403648,9.627085,0.0,0.007941248,0.0012217305,-0.0870710164308548,2.4869435583241284E-4,-2.8253872394561768,1020.3528,
2021.02.11 12:11:33,48.0,13.0,9.24,-30.84,-32.64,-0.02633622,0.8834604,9.679757,0.0061086523,-0.018936822,-0.007330383,-0.09101635217666626,0.0027207452803850174,-2.8229804039001465,1020.3611,
2021.02.11 12:11:33,48.0,13.0,9.0,-31.08,-32.88,0.1364695,0.79248077,9.701305,0.0018325958,-0.002443461,0.017104227,-0.08149904757738113,-0.014066199772059917,-2.8190572261810303,1020.3611,
2021.02.11 12:11:33,48.0,13.0,8.82,-31.08,-32.399998,0.01436521,0.79726917,9.665392,0.0018325958,-0.002443461,0.013439035,-0.0823005884885788,-0.0014862511307001114,-2.8380472660064697,1020.3611,
2021.02.11 12:11:33,48.0,13.0,8.58,-31.38,-32.579998,0.090979666,0.82360536,9.552865,0.015882496,-0.017104227,-0.009162978,-0.08599898964166641,-0.009523522108793259,-2.838959217071533,1020.3611,
2021.02.11 12:11:33,48.0,13.0,8.7,-31.32,-32.52,-0.016759412,0.866701,9.481039,0.02687807,-0.004276057,-0.0030543262,-0.09116063266992569,0.0017676749266684055,-2.8444881439208984,1020.3589,
2021.02.11 12:11:33,48.0,13.0,9.0,-31.679998,-32.46,-0.08379706,0.78290397,9.509769,0.020158553,-0.02321288,-0.004886922,-0.08213786780834198,0.00881145428866148,-2.848785638809204,1020.3589,
2021.02.11 12:11:33,48.0,13.0,9.3,-31.98,-32.52,-0.011971008,0.81163436,9.763555,0.051923547,0.11911872,0.007330383,-0.08293822407722473,0.0012260905932635069,-2.8342514038085938,1020.3589,
2021.02.11 12:11:33,48.0,13.0,9.48,-32.34,-32.1,0.3184288,0.8738836,10.172963,-0.0030543262,-0.015271631,0.020158553,-0.08565044403076172,-0.03129126504063606,-2.800278425216675,1020.3589,
