Time,X-cord,Y-cord,Mag_x,Mag_y,Mag_z,Acc_x,Acc_y,Acc_z,Gyro_x,Gyro_y,Gyro_z,Orn_x,Orn_y,Orn_z,Pressure,
2021.02.11 12:10:02,48.0,21.0,18.48,-27.24,-14.28,-0.22984336,0.8283938,9.646238,0.106901415,0.076358154,-0.06169739,-0.08564302325248718,0.02382274530827999,-2.530409336090088,1020.1782,
2021.02.11 12:10:02,48.0,21.0,18.6,-26.82,-14.16,-0.17717093,0.79248077,9.279925,0.12705997,-0.0012217305,-0.031154128,-0.08517518639564514,0.019089529290795326,-2.5182199478149414,1020.1782,
2021.02.11 12:10:02,48.0,21.0,18.359999,-27.119999,-14.4,-0.1436521,0.7110779,9.425972,0.03481932,0.029321533,0.0030543262,-0.07528682798147202,0.015238850377500057,-2.531357765197754,1020.1782,
2021.02.11 12:10:02,48.0,21.0,18.0,-27.119999,-13.92,-0.14844051,0.81881696,9.64145,-0.013439035,0.013439035,-0.002443461,-0.08471344411373138,0.015394860878586769,-2.538485288619995,1020.1819,
2021.02.11 12:10:02,48.0,21.0,17.94,-27.42,-14.16,0.0047884034,0.81881696,9.945514,-0.050701816,0.02076942,0.01160644,-0.08214499801397324,-4.814636195078492E-4,-2.5404109954833984,1020.1819,
2021.02.11 12:10:02,48.0,21.0,18.0,-27.359999,-14.58,0.07182605,0.81402856,9.859323,0.012217305,0.027488936,-0.005497787,-0.08237532526254654,-0.007284960709512234,-2.534714698791504,1020.1819,
2021.02.11 12:10:02,48.0,21.0,17.58,-27.539999,-14.58,-0.10055647,0.8475474,9.428367,0.087964594,0.012217305,-0.03604105,-0.0896473079919815,0.010664908215403557,-2.5530974864959717,1020.1819,
2021.02.11 12:10:02,48.0,21.0,17.82,-27.66,-14.7,-0.11731588,0.8571242,9.435549,0.05375614,0.028099801,-0.048258353,-0.09058429300785065,0.012432752177119255,-2.5490775108337402,1020.1824,
2021.02.11 12:10:02,48.0,21.0,17.94,-27.72,-14.099999,-0.17477672,0.9768343,9.651027,-0.039095376,0.035430185,-0.06719518,-0.10085562616586685,0.018107669427990913,-2.5466339588165283,1020.1824,
2021.02.11 12:10:02,48.0,21.0,17.94,-28.199999,-13.62,-0.61291564,1.1372458,9.782708,-0.0720821,0.10567969,-0.105068825,-0.11550667136907578,0.06257116794586182,-2.566615343093872,1020.1824,
2021.02.11 12:10:02,48.0,21.0,18.24,-27.84,-13.62,-0.2753332,1.0319009,9.828198,-0.007941248,0.03481932,-0.057421334,-0.10456990450620651,0.02800728939473629,-2.543731689453125,1020.1824,
2021.02.11 12:10:02,48.0,21.0,18.06,-27.96,-13.44,-0.02873042,0.7374141,9.655815,0.04337143,0.03726278,0.016493361,-0.07622165977954865,0.0029754438437521458,-2.5505266189575195,1020.1802,
2021.02.11 12:10:02,48.0,21.0,17.76,-27.84,-13.86,-0.24899697,0.78290397,9.466674,0.09590584,-0.007330383,-0.029321533,-0.0824848935008049,0.02629641443490982,-2.5619964599609375,1020.1802,
2021.02.11 12:10:02,48.0,21.0,17.76,-27.24,-13.92,-0.38307226,0.89303726,10.012551,0.039095376,-0.015882496,-0.043982297,-0.08889169991016388,0.03824055567383766,-2.5538594722747803,1020.1802,
2021.02.11 12:10:03,48.0,21.0,17.699999,-27.0,-13.74,-0.22505496,0.8283938,9.689334,0.044593163,0.016493361,-0.040317107,-0.085265152156353,0.02322290651500225,-2.547024726867676,1020.1802,
2021.02.11 12:10:03,48.0,21.0,18.48,-27.0,-13.5,-0.21787235,0.6703765,9.471462,0.1160644,0.025045475,-0.03604105,-0.07064210623502731,0.022998977452516556,-2.530876398086548,1020.18286,
2021.02.11 12:10:03,48.0,21.0,18.84,-26.939999,-13.38,-0.2801216,0.7278373,9.224859,0.099571034,0.012217305,-0.009162978,-0.07870032638311386,0.030356621369719505,-2.5206995010375977,1020.18286,
2021.02.11 12:10:03,48.0,21.0,18.66,-27.18,-12.9,-0.4285621,0.89782566,9.390059,0.019547688,0.0018325958,0.015882496,-0.09522617608308792,0.04560832679271698,-2.5301640033721924,1020.18286,
2021.02.11 12:10:03,48.0,21.0,18.779999,-27.599998,-12.66,-0.04309563,0.90979666,9.648633,-0.021380283,-0.032986723,0.081855945,-0.09401389956474304,0.004466471262276173,-2.522589921951294,1020.18286,
2021.02.11 12:10:03,48.0,21.0,18.48,-27.3,-12.54,-0.055066638,0.8738836,9.624691,-0.0018325958,-0.047647487,0.070249505,-0.09054626524448395,0.005721330177038908,-2.526329278945923,1020.1719,
2021.02.11 12:10:03,48.0,21.0,18.72,-27.18,-12.54,-0.1364695,0.8810662,9.703699,-0.007941248,-0.028710667,0.047036625,-0.09053975343704224,0.014062730595469475,-2.520479202270508,1020.1719,
2021.02.11 12:10:03,48.0,21.0,19.14,-27.42,-12.719999,-0.19393034,0.93373865,9.411607,0.0061086523,-0.027488936,0.030543262,-0.09886694699525833,0.020602528005838394,-2.5135343074798584,1020.1719,
2021.02.11 12:10:03,48.0,21.0,19.56,-27.24,-12.599999,-0.11492168,0.878672,9.346964,-0.034208454,-0.015271631,0.035430185,-0.09372363984584808,0.012294461950659752,-2.498969078063965,1020.1719,
2021.02.11 12:10:03,48.0,21.0,19.56,-27.359999,-12.78,0.08140286,0.8451532,9.773131,-0.095294975,0.0067195175,0.039095376,-0.0862596333026886,-0.008329058066010475,-2.497180461883545,1020.1748,
2021.02.11 12:10:03,48.0,21.0,19.74,-27.359999,-12.54,0.04309563,0.8738836,9.6845455,-0.05497787,-0.021380283,0.01160644,-0.08999025821685791,-0.004449908621609211,-2.4932613372802734,1020.1748,
2021.02.11 12:10:03,48.0,21.0,19.5,-27.3,-12.24,-0.0023942017,0.7374141,9.516952,-0.036651913,-0.018936822,-0.0067195175,-0.07732976227998734,2.515723172109574E-4,-2.5031635761260986,1020.1748,
2021.02.11 12:10:03,48.0,21.0,18.9,-27.18,-12.36,0.011971008,0.6440403,9.528923,-0.06047566,-0.025045475,-0.007330383,-0.0674852579832077,-0.001256280578672886,-2.5178349018096924,1020.1748,
2021.02.11 12:10:03,48.0,21.0,19.26,-26.82,-12.3,-0.06943185,0.6919243,9.82341,-0.09896017,-0.022602014,-0.034208454,-0.07031837105751038,0.007067880593240261,-2.503988265991211,1020.1775,
2021.02.11 12:10:03,48.0,21.0,19.38,-27.0,-12.66,-0.25857377,0.8810662,9.818622,-0.08552113,-0.0012217305,-0.061086524,-0.08946364372968674,0.026328951120376587,-2.5042622089385986,1020.1775,
2021.02.11 12:10:03,48.0,21.0,19.32,-26.939999,-12.78,-0.34237084,0.89064306,9.876082,-0.05681047,-0.010995574,-0.04886922,-0.08988482505083084,0.03465278446674347,-2.5069632530212402,1020.1775,
2021.02.11 12:10:03,48.0,21.0,19.619999,-27.539999,-13.32,-0.17477672,0.81881696,9.82341,-0.043982297,0.008552114,-0.014049901,-0.0831483006477356,0.01778998039662838,-2.506718873977661,1020.1775,
2021.02.11 12:10:03,48.0,21.0,19.26,-27.96,-13.44,-0.12210429,0.7565677,9.579201,-0.009162978,-0.007330383,0.0018325958,-0.07881025969982147,0.012746123597025871,-2.522648334503174,1020.17725,
2021.02.11 12:10:03,48.0,21.0,18.84,-27.72,-13.44,-0.05267244,0.7110779,9.646238,-0.021991149,-0.015271631,0.01282817,-0.07358138263225555,0.00546035822480917,-2.528057813644409,1020.17725,
2021.02.11 12:10:03,48.0,21.0,18.84,-27.3,-13.74,-0.033518825,0.7158663,9.80665,-0.03970624,-0.009773844,-6.1086525E-4,-0.07286837697029114,0.0034179554786533117,-2.519765853881836,1020.17725,
2021.02.11 12:10:03,48.0,21.0,18.779999,-26.82,-13.74,-0.19871874,0.7781156,9.8042555,-0.022602014,-0.008552114,-0.009162978,-0.07918287813663483,0.020265847444534302,-2.51623797416687,1020.17725,
2021.02.11 12:10:03,48.0,21.0,18.779999,-26.519999,-14.04,-0.08619126,0.770933,9.619903,0.002443461,-0.008552114,-0.004886922,-0.07996527850627899,0.008959442377090454,-2.506281614303589,1020.1809,
2021.02.11 12:10:03,48.0,21.0,18.6,-26.279999,-13.92,-0.04309563,0.7134721,9.545682,0.008552114,-0.012217305,0.005497787,-0.07460345327854156,0.004514642059803009,-2.506676435470581,1020.1809,
2021.02.11 12:10:03,48.0,21.0,18.66,-26.22,-14.16,-0.079008654,0.6536171,9.742006,-0.015882496,-0.0012217305,0.0030543262,-0.06699005514383316,0.008109922520816326,-2.5072410106658936,1020.1809,
2021.02.11 12:10:03,48.0,21.0,18.779999,-26.22,-14.639999,-0.23463176,0.78529817,9.902418,-0.030543262,-6.1086525E-4,-0.010995574,-0.07911594212055206,0.023689957335591316,-2.5053560733795166,1020.1809,
2021.02.11 12:10:04,48.0,21.0,18.539999,-26.46,-14.16,-0.17717093,0.81881696,9.617508,0.008552114,0.01282817,-0.004886922,-0.08491901308298111,0.018419627100229263,-2.51289701461792,1020.1836,
2021.02.11 12:10:04,48.0,21.0,18.72,-26.88,-14.219999,-0.088585466,0.79726917,9.595961,0.02076942,0.007941248,0.008552114,-0.08288992941379547,0.009231274016201496,-2.5134973526000977,1020.1836,
2021.02.11 12:10:04,48.0,21.0,18.72,-27.06,-14.099999,-0.04309563,0.7350199,9.8042555,-0.026267206,0.018936822,0.015271631,-0.07482877373695374,0.004395576659590006,-2.517759323120117,1020.1836,
2021.02.11 12:10:04,48.0,21.0,18.72,-26.88,-13.559999,-0.1340753,0.7158663,9.794679,6.1086525E-4,0.016493361,-0.0030543262,-0.07295073568820953,0.013687731698155403,-2.5187063217163086,1020.1836,
2021.02.11 12:10:04,48.0,21.0,19.08,-26.699999,-14.099999,-0.1436521,0.7613561,9.643845,0.027488936,0.016493361,-0.0067195175,-0.07877525687217712,0.014894627034664154,-2.5043017864227295,1020.1753,
2021.02.11 12:10:04,48.0,21.0,19.32,-26.699999,-14.099999,-0.18674773,0.7541735,9.512163,0.017715093,0.007330383,-0.0036651916,-0.079104483127594,0.01962999813258648,-2.4997239112854004,1020.1753,
2021.02.11 12:10:04,48.0,21.0,19.32,-27.06,-13.86,-0.02873042,0.6703765,9.744401,-0.017104227,0.013439035,0.01282817,-0.0686875432729721,0.00294839427806437,-2.5043065547943115,1020.1753,
2021.02.11 12:10:04,48.0,21.0,19.08,-27.18,-13.799999,0.01436521,0.6655881,9.794679,-0.009773844,0.01160644,-0.0067195175,-0.06784967333078384,-0.00146663305349648,-2.511361837387085,1020.1753,
2021.02.11 12:10:04,48.0,21.0,18.72,-27.3,-13.92,-0.12689269,0.82599956,9.514558,0.021991149,-0.008552114,-0.035430185,-0.0865895077586174,0.013335896655917168,-2.5218284130096436,1020.1865,
2021.02.11 12:10:04,48.0,21.0,18.42,-27.3,-13.92,-0.20350714,0.8331822,9.581595,-0.01282817,-0.0012217305,-0.022602014,-0.08671887964010239,0.02123618684709072,-2.532172918319702,1020.1865,
2021.02.11 12:10:04,48.0,21.0,18.66,-27.06,-13.98,-0.088585466,0.7230489,9.78989,-0.008552114,-0.013439035,-0.005497787,-0.07371983677148819,0.009048420935869217,-2.521317720413208,1020.1865,
2021.02.11 12:10:04,48.0,21.0,19.199999,-27.24,-14.099999,-0.06464344,0.6799533,9.725247,0.0061086523,0.008552114,-0.019547688,-0.06980117410421371,0.0066468738950788975,-2.5111782550811768,1020.1865,
2021.02.11 12:10:04,48.0,21.0,19.32,-27.42,-13.98,-0.06464344,0.7015011,9.667787,0.016493361,-0.005497787,-0.027488936,-0.07243210822343826,0.0066863782703876495,-2.5108330249786377,1020.1831,
2021.02.11 12:10:04,48.0,21.0,19.68,-27.119999,-14.219999,-0.090979666,0.6512229,9.639056,0.009773844,-0.01038471,-0.034208454,-0.06745535135269165,0.009438368491828442,-2.4985971450805664,1020.1831,
2021.02.11 12:10:04,48.0,21.0,19.38,-27.119999,-14.219999,-0.19393034,0.7350199,9.746795,0.016493361,-0.0030543262,-0.03481932,-0.07525414228439331,0.019894206896424294,-2.507174491882324,1020.1831,
2021.02.11 12:10:04,48.0,21.0,18.9,-27.42,-14.04,-0.260968,0.79966336,9.607931,0.023823744,-0.022602014,-0.007941248,-0.08300764858722687,0.02715504914522171,-2.5250256061553955,1020.1831,
2021.02.11 12:10:04,48.0,21.0,18.96,-27.0,-13.74,-0.09816227,0.6584055,9.773131,0.002443461,0.009162978,0.0061086523,-0.06726390868425369,0.010043758898973465,-2.515063762664795,1020.17993,
2021.02.11 12:10:04,48.0,21.0,18.96,-27.24,-13.259999,-0.12689269,0.7374141,9.504981,0.027488936,-0.010995574,-0.014660766,-0.07741989195346832,0.01334933191537857,-2.5180821418762207,1020.17993,
2021.02.11 12:10:04,48.0,21.0,19.14,-27.0,-13.38,-0.05267244,0.7445967,9.701305,-0.02565634,0.0,-0.0036651916,-0.07660091668367386,0.005429363809525967,-2.506791353225708,1020.17993,
2021.02.11 12:10:04,48.0,21.0,19.619999,-26.279999,-13.5,-0.22505496,0.7661445,9.92636,-0.004276057,6.1086525E-4,-0.025045475,-0.0770103931427002,0.02266857400536537,-2.486433744430542,1020.17993,
2021.02.11 12:10:04,48.0,21.0,19.68,-26.279999,-13.679999,-0.320823,0.81881696,9.636662,0.047036625,0.0012217305,-0.004276057,-0.08471863716840744,0.03327963501214981,-2.485806465148926,1020.1843,
2021.02.11 12:10:04,48.0,21.0,19.38,-25.98,-13.92,-0.1412579,0.7757214,9.469068,0.010995574,-6.1086525E-4,0.029932396,-0.08173003792762756,0.014916718937456608,-2.482236385345459,1020.1843,
2021.02.11 12:10:04,48.0,21.0,19.5,-26.279999,-14.219999,-0.10055647,0.7469909,9.785102,-0.03176499,0.0061086523,0.016493361,-0.07618783414363861,0.010276124812662601,-2.4848878383636475,1020.1843,
2021.02.11 12:10:04,48.0,21.0,19.5,-26.34,-14.219999,-0.12689269,0.78050977,9.821015,-0.0036651916,0.0036651916,0.0061086523,-0.07930015027523041,0.012919807806611061,-2.4859325885772705,1020.1843,
2021.02.11 12:10:04,48.0,21.0,19.32,-26.279999,-14.4,-0.16280572,0.79966336,9.651027,0.021991149,0.014049901,0.0018325958,-0.08265730738639832,0.016867663711309433,-2.489349603652954,1020.1897,
2021.02.11 12:10:05,48.0,21.0,19.199999,-26.039999,-14.82,-0.1436521,0.82599956,9.497798,0.007941248,0.005497787,0.004276057,-0.08673933893442154,0.015123626217246056,-2.4852585792541504,1020.1897,
2021.02.11 12:10:05,48.0,21.0,19.02,-25.98,-14.7,-0.12210429,0.8619126,9.7324295,-0.02565634,0.0061086523,0.016493361,-0.08832352608442307,0.012545467354357243,-2.487409830093384,1020.1897,
2021.02.11 12:10:05,48.0,21.0,19.02,-25.98,-15.12,-0.016759412,0.7733272,9.739613,-0.0030543262,-0.0030543262,0.017715093,-0.07923385500907898,0.0017207455821335316,-2.4860339164733887,1020.1897,
2021.02.11 12:10:05,48.0,21.0,18.96,-26.58,-14.94,-0.15083471,0.78769237,9.734824,0.0018325958,0.013439035,-0.004886922,-0.08072935789823532,0.015493103303015232,-2.503753185272217,1020.188,
2021.02.11 12:10:05,48.0,21.0,18.96,-26.58,-14.58,-0.059855044,0.82599956,9.615114,0.01282817,-0.005497787,-0.0036651916,-0.085694320499897,0.0062250192277133465,-2.4993486404418945,1020.188,
2021.02.11 12:10:05,48.0,21.0,19.14,-26.76,-14.34,-0.15562311,0.80924016,9.636662,-0.010995574,-0.0067195175,0.0012217305,-0.08376771956682205,0.016147665679454803,-2.5024964809417725,1020.188,
2021.02.11 12:10:05,48.0,21.0,18.84,-26.88,-14.4,-0.021547815,0.7469909,9.725247,-0.007941248,-0.0061086523,-0.010995574,-0.07665874809026718,0.002215653657913208,-2.509730100631714,1020.188,
2021.02.11 12:10:05,48.0,21.0,18.9,-26.279999,-14.099999,-0.079008654,0.79248077,9.744401,0.009162978,-0.007330383,-0.028710667,-0.0811455249786377,0.008107930421829224,-2.4979286193847656,1020.1824,
2021.02.11 12:10:05,48.0,21.0,18.84,-26.46,-13.799999,-0.11971009,0.81881696,9.603143,0.007941248,-0.002443461,-0.02321288,-0.0850532129406929,0.01246507465839386,-2.503519058227539,1020.1824,
2021.02.11 12:10:05,48.0,21.0,18.779999,-26.46,-13.559999,-0.16759412,0.7685388,9.64145,0.0061086523,-0.0061086523,-0.02076942,-0.07953180372714996,0.017380917444825172,-2.5086443424224854,1020.1824,
2021.02.11 12:10:05,48.0,21.0,19.02,-26.58,-13.44,-0.02873042,0.7326257,9.64145,-0.010995574,0.0036651916,-0.018325957,-0.07584100216627121,0.002979877172037959,-2.5013866424560547,1020.1824,
2021.02.11 12:10:05,48.0,21.0,18.9,-26.82,-13.74,-0.035913024,0.79487497,9.65821,-0.004886922,-0.012217305,-0.043982297,-0.0821148157119751,0.0037183763924986124,-2.5068719387054443,1020.17896,
2021.02.11 12:10:05,48.0,21.0,19.02,-26.4,-13.86,-0.06703765,0.7589619,9.696517,-0.007941248,0.0036651916,-0.03359759,-0.07811048626899719,0.006913470104336739,-2.4980177879333496,1020.17896,
2021.02.11 12:10:05,48.0,21.0,18.84,-26.64,-14.099999,-0.088585466,0.7302315,9.715671,-0.0036651916,0.002443461,-0.032375857,-0.07501602172851562,0.009117539040744305,-2.508488178253174,1020.17896,
2021.02.11 12:10:05,48.0,21.0,18.84,-26.88,-13.92,-0.20829555,0.79008657,9.646238,0.012217305,0.004886922,-0.0421497,-0.08170480281114578,0.0215900931507349,-2.515317916870117,1020.17896,
2021.02.11 12:10:05,48.0,21.0,19.199999,-26.76,-13.92,-0.1436521,0.7781156,9.488221,0.017715093,-0.004886922,-0.027488936,-0.08181613683700562,0.015138888731598854,-2.5017359256744385,1020.17676,
2021.02.11 12:10:05,48.0,21.0,19.8,-27.24,-13.679999,-0.045489833,0.641646,9.662998,-0.018325957,0.0030543262,-0.015271631,-0.06630430370569229,0.004707596264779568,-2.4972469806671143,1020.17676,
2021.02.11 12:10:05,48.0,21.0,19.859999,-26.88,-13.559999,-0.076614454,0.7469909,9.67018,-0.015882496,-0.0061086523,-0.027488936,-0.07709133625030518,0.007922587916254997,-2.4871413707733154,1020.17676,
2021.02.11 12:10:05,48.0,21.0,20.34,-26.519999,-13.5,-0.15801731,0.79487497,9.634268,-0.0067195175,-0.007330383,-0.035430185,-0.08230751007795334,0.01640011928975582,-2.4697165489196777,1020.17676,
2021.02.11 12:10:05,48.0,21.0,20.4,-26.519999,-13.44,-0.15562311,0.7374141,9.672575,-0.0030543262,-6.1086525E-4,-0.02443461,-0.07608062028884888,0.016087720170617104,-2.470134973526001,1020.1719,
2021.02.11 12:10:05,48.0,21.0,20.34,-26.699999,-13.799999,-0.21547815,0.7541735,9.7563715,-0.004276057,-0.005497787,-0.017715093,-0.07712846249341965,0.02208230085670948,-2.4761910438537598,1020.1719,
2021.02.11 12:10:05,48.0,21.0,20.1,-26.58,-13.86,-0.15083471,0.78769237,9.765948,-0.004276057,-0.010995574,-0.004886922,-0.08047324419021606,0.01544373482465744,-2.4765563011169434,1020.1719,
2021.02.11 12:10:05,48.0,21.0,19.8,-26.939999,-14.04,-0.035913024,0.7757214,9.516952,0.028710667,-0.018936822,0.0030543262,-0.08132907003164291,0.003773567033931613,-2.4865243434906006,1020.1719,
2021.02.11 12:10:05,48.0,21.0,19.619999,-26.82,-14.28,-0.08379706,0.7206547,9.7084875,0.008552114,-6.1086525E-4,-0.0030543262,-0.07409071922302246,0.008631105534732342,-2.4921767711639404,1020.18066,
2021.02.11 12:10:05,48.0,21.0,19.199999,-26.64,-14.099999,-0.1436521,0.7781156,9.785102,-0.007941248,-0.010995574,-0.0061086523,-0.07934494316577911,0.014679640531539917,-2.499890089035034,1020.18066,
2021.02.11 12:10:06,48.0,21.0,19.38,-26.64,-14.099999,-0.055066638,0.78290397,9.737218,0.013439035,-0.007330383,-0.0061086523,-0.08022937923669815,0.005655213724821806,-2.492117404937744,1020.18066,
2021.02.11 12:10:06,48.0,21.0,18.9,-26.519999,-13.86,-0.110133275,0.7661445,9.595961,0.026267206,-0.0067195175,-0.004886922,-0.07966609299182892,0.011476541869342327,-2.5043671131134033,1020.18066,
2021.02.11 12:10:06,48.0,21.0,18.9,-26.939999,-13.74,-0.19393034,0.80924016,9.605537,0.019547688,0.004276057,-0.0036651916,-0.08403173834085464,0.020186688750982285,-2.51389217376709,1020.1826,
2021.02.11 12:10:06,48.0,21.0,19.26,-27.06,-13.86,-0.10295067,0.7613561,9.718064,-0.005497787,0.002443461,0.002443461,-0.07818035036325455,0.010593346320092678,-2.5054807662963867,1020.1826,
2021.02.11 12:10:06,48.0,21.0,19.26,-26.939999,-13.799999,-0.059855044,0.81163436,9.718064,0.0,-0.005497787,0.005497787,-0.0833231583237648,0.006159075070172548,-2.5003745555877686,1020.1826,
2021.02.11 12:10:06,48.0,21.0,19.38,-26.46,-14.16,-0.15801731,0.842759,9.698911,0.009773844,0.004886922,-0.0036651916,-0.08666297793388367,0.016290832310914993,-2.4900898933410645,1020.1826,
2021.02.11 12:10:06,48.0,21.0,19.26,-26.22,-13.92,-0.17238252,0.81402856,9.703699,0.007941248,6.1086525E-4,0.008552114,-0.08367938548326492,0.017762750387191772,-2.490247964859009,1020.1863,
2021.02.11 12:10:06,48.0,21.0,19.14,-26.16,-13.86,-0.0047884034,0.7733272,9.701305,0.0067195175,0.0012217305,0.018936822,-0.0795455127954483,4.935833858326077E-4,-2.487875461578369,1020.1863,
2021.02.11 12:10:06,48.0,21.0,19.199999,-26.4,-13.98,-0.10534488,0.81642276,9.631873,0.010995574,0.008552114,-0.009162978,-0.08455544710159302,0.01093667559325695,-2.492622137069702,1020.1863,
2021.02.11 12:10:06,48.0,21.0,18.96,-26.519999,-13.74,-0.15083471,0.78050977,9.698911,6.1086525E-4,0.02687807,-0.01160644,-0.080291248857975,0.015550462529063225,-2.5041301250457764,1020.1863,
2021.02.11 12:10:06,48.0,21.0,19.08,-26.939999,-13.86,-0.15801731,0.79726917,9.672575,0.009162978,0.0030543262,-0.0030543262,-0.08222891390323639,0.016335180029273033,-2.5084564685821533,1020.17847,
2021.02.11 12:10:06,48.0,21.0,19.08,-26.82,-13.74,-0.15562311,0.8283938,9.607931,0.015882496,0.0018325958,0.0030543262,-0.0859958678483963,0.01619594171643257,-2.5051727294921875,1020.17847,
2021.02.11 12:10:06,48.0,21.0,19.14,-26.64,-13.559999,-0.29448682,0.8475474,9.469068,0.004886922,-0.008552114,0.0036651916,-0.08922615647315979,0.03108985535800457,-2.504343271255493,1020.17847,
2021.02.11 12:10:06,48.0,21.0,19.5,-27.0,-13.32,-0.19393034,0.79966336,9.595961,-0.040927973,-0.01160644,0.029321533,-0.08312433212995529,0.02020682953298092,-2.5005643367767334,1020.17847,
2021.02.11 12:10:06,48.0,21.0,19.74,-26.88,-13.139999,-0.05267244,0.8403648,9.911995,-0.064751714,-0.01282817,0.036651913,-0.08457915484905243,0.005313959438353777,-2.4876723289489746,1020.1692,
2021.02.11 12:10:06,48.0,21.0,19.859999,-27.18,-13.32,0.059855044,0.80205756,9.742006,-0.015882496,-0.02321288,0.027488936,-0.08214300870895386,-0.00614393875002861,-2.487414598464966,1020.1692,
2021.02.11 12:10:06,48.0,21.0,19.92,-27.3,-13.559999,0.021547815,0.7182605,9.65821,0.014660766,-0.009162978,0.021380283,-0.07423103600740433,-0.0022310325875878334,-2.4912116527557373,1020.1692,
2021.02.11 12:10:06,48.0,21.0,20.1,-27.359999,-13.5,-0.23702596,0.8403648,9.572019,0.016493361,-0.03604105,-0.009773844,-0.08754266798496246,0.024757321923971176,-2.492318868637085,1020.1692,
2021.02.11 12:10:06,48.0,21.0,20.16,-27.359999,-14.04,-0.038307227,0.7398083,9.749189,-0.019547688,-0.015271631,0.01160644,-0.0757383480668068,0.003929252736270428,-2.487320899963379,1020.1675,
2021.02.11 12:10:06,48.0,21.0,19.68,-27.0,-14.099999,-0.009576807,0.78529817,9.720459,-0.009162978,-0.012217305,0.014660766,-0.08061306178569794,9.852213552221656E-4,-2.489835262298584,1020.1675,
2021.02.11 12:10:06,48.0,21.0,19.38,-27.48,-14.5199995,-0.01436521,0.79966336,9.792285,0.0036651916,-0.018936822,-0.01038471,-0.0814816877245903,0.001466991612687707,-2.5053317546844482,1020.1675,
2021.02.11 12:10:06,48.0,21.0,18.9,-27.48,-15.059999,-0.1436521,0.81163436,9.744401,0.009162978,-0.010995574,0.005497787,-0.08309157192707062,0.01474094670265913,-2.5207266807556152,1020.1675,
2021.02.11 12:10:06,48.0,21.0,18.6,-27.3,-14.759999,-0.01436521,0.80924016,9.574412,0.023823744,-0.05681047,0.0,-0.08432062715291977,0.001500374055467546,-2.52040696144104,1020.1665,
2021.02.11 12:10:06,48.0,21.0,19.08,-27.66,-15.12,0.055066638,0.82599956,9.500193,0.021380283,-0.018936822,0.015882496,-0.08672600239515305,-0.00579630583524704,-2.5110037326812744,1020.1665,
2021.02.11 12:10:06,48.0,21.0,18.96,-26.76,-14.88,-0.05267244,0.80205756,9.856929,-0.027488936,-0.021380283,-0.0012217305,-0.08118990063667297,0.005343645811080933,-2.5034539699554443,1020.1665,
2021.02.11 12:10:07,48.0,21.0,18.779999,-26.16,-14.58,0.031124622,0.79966336,9.799467,-0.01038471,-0.017715093,0.010995574,-0.08142191916704178,-0.0031761438585817814,-2.4940688610076904,1020.1665,
2021.02.11 12:10:07,48.0,21.0,18.9,-26.46,-14.5199995,-0.016759412,0.80205756,9.68694,0.022602014,-0.007330383,-0.010995574,-0.08260927349328995,0.001730102114379406,-2.498138904571533,1020.18115,
2021.02.11 12:10:07,48.0,21.0,17.94,-26.039999,-14.28,0.038307227,0.78529817,9.581595,0.029932396,-0.018325957,0.0036651916,-0.08177559077739716,-0.003997979685664177,-2.513690948486328,1020.18115,
2021.02.11 12:10:07,48.0,21.0,18.06,-26.58,-14.219999,-0.035913024,0.81642276,9.737218,0.009773844,-0.018325957,-0.008552114,-0.08364936709403992,0.0036882057320326567,-2.5228967666625977,1020.18115,
2021.02.11 12:10:07,48.0,21.0,18.06,-26.82,-14.639999,0.033518825,0.8451532,9.679757,0.009162978,-0.021380283,-0.0036651916,-0.08709003031253815,-0.0034627614077180624,-2.5231218338012695,1020.18115,
2021.02.11 12:10:07,48.0,21.0,17.88,-26.699999,-14.759999,-0.021547815,0.8690952,9.651027,0.014049901,-0.037873644,0.0012217305,-0.08980963379144669,0.002232692902907729,-2.5265896320343018,1020.1853,
2021.02.11 12:10:07,48.0,21.0,18.3,-26.939999,-14.34,-0.0023942017,0.80205756,9.933543,0.013439035,-0.027488936,0.013439035,-0.08056756108999252,2.4102191673591733E-4,-2.5228726863861084,1020.1853,
2021.02.11 12:10:07,48.0,21.0,18.6,-26.64,-14.219999,0.33039984,0.8690952,8.966286,0.08124508,-0.07574729,0.028099801,-0.09656224399805069,-0.03683246299624443,-2.492980480194092,1020.1853,
2021.02.11 12:10:07,48.0,21.0,19.02,-26.88,-13.799999,-0.22505496,0.7182605,9.519346,-0.007941248,0.17837265,-0.01038471,-0.0752890557050705,0.023637447506189346,-2.5134549140930176,1020.1853,
2021.02.11 12:10:07,48.0,21.0,19.199999,-27.119999,-13.679999,0.019153614,0.90261406,10.266336,-0.07819075,-0.06414085,0.01038471,-0.08769413828849792,-0.001865669502876699,-2.5015735626220703,1020.18384,
2021.02.11 12:10:07,48.0,21.0,19.619999,-27.119999,-13.86,0.02873042,0.94810385,9.533711,0.049480084,-0.042760566,-0.012217305,-0.09912115335464478,-0.003013551700860262,-2.487048387527466,1020.18384,
