Time,X-cord,Y-cord,Mag_x,Mag_y,Mag_z,Acc_x,Acc_y,Acc_z,Gyro_x,Gyro_y,Gyro_z,Orn_x,Orn_y,Orn_z,Pressure,
2021.02.13 18:45:07,19.0,24.0,31.5,7.68,-31.619999,-0.2561874,0.6656084,8.729526,-0.036474153,0.048748877,-0.1291522,-0.07606806606054306,0.029338812455534935,-1.250706672668457,1015.1448,
2021.02.13 18:45:08,19.0,24.0,31.32,7.8599997,-31.56,-0.17717634,0.65124273,9.953,-0.164145,-0.064872056,-0.07173085,-0.06532833725214005,0.017799420282244682,-1.2581897974014282,1015.1448,
2021.02.13 18:45:08,19.0,24.0,31.619999,8.16,-31.56,0.047885496,0.5961744,10.312141,-0.038306747,-0.06731551,-0.019807307,-0.05774795636534691,-0.00464357016608119,-1.2669804096221924,1015.11694,
2021.02.13 18:45:08,19.0,24.0,31.8,8.22,-31.199999,0.12689656,0.50998056,9.761458,0.025834102,-0.050822154,0.0027947086,-0.05219244584441185,-0.012999022379517555,-1.2749606370925903,1015.124,
2021.02.13 18:45:08,19.0,24.0,31.74,8.34,-31.019999,0.13168511,0.5363176,9.77343,0.030721024,-0.019057164,-0.005757405,-0.05481511726975441,-0.013472971506416798,-1.2691881656646729,1015.124,
2021.02.13 18:45:08,19.0,24.0,31.92,8.34,-31.019999,-0.05506832,0.58420306,9.584282,0.034386214,-0.003785532,-0.018585576,-0.0608779601752758,0.005745627451688051,-1.2592155933380127,1015.1089,
2021.02.13 18:45:08,19.0,24.0,31.56,7.98,-31.08,-0.12450229,0.4956149,9.7135725,7.88627E-4,-0.021500623,0.0345597,-0.050974536687135696,0.012816650792956352,-1.2726988792419434,1015.1089,
2021.02.13 18:45:08,19.0,24.0,31.38,8.04,-31.32,-0.009577099,0.66321415,9.596253,0.017892854,-0.017224567,0.051663928,-0.06900202482938766,9.980036411434412E-4,-1.2567341327667236,1015.1211,
2021.02.13 18:45:08,19.0,24.0,31.619999,8.16,-31.019999,0.11253092,0.63208854,9.596253,0.0038429531,-0.003785532,0.03333797,-0.06576874107122421,-0.011726009659469128,-1.2632951736450195,1015.1218,
2021.02.13 18:45:08,19.0,24.0,31.38,7.98,-30.779999,-0.009577099,0.7110996,9.567522,-0.008985217,0.009653503,0.025396723,-0.07418788224458694,0.0010010006371885538,-1.2550272941589355,1015.1218,
2021.02.13 18:45:08,19.0,24.0,31.32,8.04,-30.599998,0.076616794,0.7446195,9.797373,-0.044415403,-0.0031746665,0.0345597,-0.07585380971431732,-0.007819977588951588,-1.2548259496688843,1015.1233,
2021.02.13 18:45:08,19.0,24.0,31.439999,7.74,-30.539999,-0.023942748,0.6081458,9.584282,-0.026089443,0.0041557164,0.021120666,-0.06336726248264313,0.0024981212336570024,-1.2719178199768066,1015.1233,
2021.02.13 18:45:08,19.0,24.0,31.38,7.56,-30.9,0.098165266,0.6296943,9.447808,-0.046247996,-0.0050072623,0.01928807,-0.06654776632785797,-0.010389895178377628,-1.2774165868759155,1015.125,
2021.02.13 18:45:08,19.0,24.0,31.38,7.5,-30.96,-0.023942748,0.5602603,9.727939,-0.04930232,-0.011115915,0.011957687,-0.05752918869256973,0.0024612306151539087,-1.2828296422958374,1015.1284,
2021.02.13 18:45:08,19.0,24.0,31.56,7.62,-31.32,0.06943397,0.6249057,9.562734,-0.0163156,-0.028831007,0.016844608,-0.06525352597236633,-0.007260764017701149,-1.2765969038009644,1015.1284,
2021.02.13 18:45:08,19.0,24.0,31.439999,8.04,-31.56,0.028731298,0.49082634,9.620196,-0.02914377,-0.030052738,-8.70483E-4,-0.0509759783744812,-0.002986551495268941,-1.274324655532837,1015.1345,
2021.02.13 18:45:08,19.0,24.0,31.619999,7.8599997,-31.619999,0.062251143,0.6440599,9.644139,-0.031587232,-0.042880908,0.0034055738,-0.0666821151971817,-0.006454726215451956,-1.2681694030761719,1015.1345,
2021.02.13 18:45:08,19.0,24.0,31.199999,7.8599997,-31.859999,0.0071828244,0.5889916,9.759064,-0.03952848,-0.036772255,-0.0039248094,-0.060280151665210724,-7.360156159847975E-4,-1.2677253484725952,1015.1299,
2021.02.13 18:45:09,19.0,24.0,31.14,8.4,-31.859999,-0.038308397,0.52674043,9.636956,-0.007152621,-0.028220143,0.005849035,-0.05460361763834953,0.003975134342908859,-1.2549970149993896,1015.1262,
2021.02.13 18:45:09,19.0,24.0,31.14,7.8599997,-31.92,0.12929083,0.48843205,9.5794935,0.0032320882,-0.05937427,0.022342395,-0.050938501954078674,-0.01349580567330122,-1.2798298597335815,1015.1262,
2021.02.13 18:45:09,19.0,24.0,30.539999,7.7999997,-31.619999,0.03351985,0.53392327,9.852441,-0.059076168,-0.07770023,0.040668353,-0.05413871258497238,-0.003402173984795809,-1.2703908681869507,1015.1245,
2021.02.13 18:45:09,19.0,24.0,30.72,7.9199996,-31.74,0.12929083,0.6273,9.696813,-0.024256848,-0.028831007,0.03211624,-0.06459561735391617,-0.013332542963325977,-1.2622367143630981,1015.1245,
2021.02.13 18:45:09,19.0,24.0,30.24,7.14,-31.619999,0.18675344,0.5650489,9.584282,0.026444968,-0.021500623,0.019898936,-0.05887646973133087,-0.019482921808958054,-1.28834068775177,1015.1343,
2021.02.13 18:45:09,19.0,24.0,30.3,7.44,-31.92,0.2466103,0.47885495,9.634562,0.024001507,-0.018446298,0.013179418,-0.04964469000697136,-0.025590835139155388,-1.2898778915405273,1015.1406,
2021.02.13 18:45:09,19.0,24.0,30.72,7.56,-32.46,0.15562786,0.57462597,9.526819,-0.024256848,0.0023231206,-0.00514654,-0.060235656797885895,-0.016334310173988342,-1.2765213251113892,1015.1406,
2021.02.13 18:45:09,19.0,24.0,30.84,7.68,-32.579998,0.11971374,0.6201172,9.840469,0.06737294,-0.031885333,0.026007587,-0.062929168343544,-0.012164848856627941,-1.2699750661849976,1015.12866,
2021.02.13 18:45:09,19.0,24.0,31.019999,7.62,-32.579998,0.26337022,0.49800915,9.471751,0.05332304,-0.036772255,0.040668353,-0.05250973254442215,-0.02779870107769966,-1.2880005836486816,1015.12866,
2021.02.13 18:45:09,19.0,24.0,30.96,7.68,-32.34,0.23942748,0.5602603,9.761458,0.020336315,-0.031274468,0.047387872,-0.05731504037976265,-0.024522922933101654,-1.280704379081726,1015.1304,
2021.02.13 18:45:09,19.0,24.0,30.9,7.2599998,-32.46,0.38787252,0.7541966,9.261055,0.08325543,-0.026998412,0.07121161,-0.08118725568056107,-0.04185764491558075,-1.2767231464385986,1015.13477,
2021.02.13 18:45:09,19.0,24.0,30.9,6.96,-32.46,0.2561874,0.65124273,9.941029,-0.013872139,-0.036772255,0.036392298,-0.06539548188447952,-0.025765011087059975,-1.293981909751892,1015.13477,
2021.02.13 18:45:09,19.0,24.0,30.96,6.8399997,-32.46,0.26337022,0.8044763,9.581888,0.01850372,-0.027609276,0.052274793,-0.08373010158538818,-0.02747933566570282,-1.282035231590271,1015.13086,
2021.02.13 18:45:09,19.0,24.0,30.9,6.42,-32.579998,0.37350687,0.6296943,9.718362,0.04293833,-0.034328792,0.043111816,-0.06465622782707214,-0.03841420263051987,-1.3140974044799805,1015.13086,
2021.02.13 18:45:09,19.0,24.0,30.599998,6.54,-32.399998,0.5219519,0.65363705,9.598648,0.022779776,-0.016002836,0.03394884,-0.06789182126522064,-0.05432414636015892,-1.310486078262329,1015.12915,
2021.02.13 18:45:09,19.0,24.0,30.3,6.3599997,-32.64,0.51955765,0.73743665,9.727939,0.005064684,0.0072100423,0.0064598997,-0.07555407285690308,-0.05335811525583267,-1.3058980703353882,1015.12744,
2021.02.13 18:45:10,19.0,24.0,29.939999,6.42,-32.64,0.29689008,0.679974,9.72315,0.0117842015,-1.2034045E-4,-0.008200866,-0.0697874128818512,-0.03052486479282379,-1.2990660667419434,1015.12744,
2021.02.13 18:45:10,19.0,24.0,30.06,6.8999996,-32.46,0.3328042,0.67757976,9.699207,0.020336315,-0.01294851,0.0034055738,-0.06970508396625519,-0.034299060702323914,-1.2874783277511597,1015.1365,
2021.02.13 18:45:10,19.0,24.0,29.64,6.42,-32.399998,0.24421602,0.65842557,9.708784,0.02094718,-0.014170242,0.007070765,-0.06769248098134995,-0.025148827582597733,-1.2971466779708862,1015.1365,
2021.02.13 18:45:10,19.0,24.0,30.0,6.2999997,-32.04,0.48124924,0.8547561,9.682447,0.014838528,-0.005618128,0.023564126,-0.08794267475605011,-0.04966239631175995,-1.2942514419555664,1015.13525,
2021.02.13 18:45:10,19.0,24.0,30.119999,6.18,-32.219997,0.40463245,0.76616794,9.641745,0.021558044,-0.005618128,0.016844608,-0.07922754436731339,-0.041942112147808075,-1.303576946258545,1015.1377,
2021.02.13 18:45:10,19.0,24.0,30.0,6.06,-32.28,0.23224466,0.76616794,9.703996,0.021558044,-0.0025638016,0.008292495,-0.07876794785261154,-0.02392832189798355,-1.3004977703094482,1015.1377,
2021.02.13 18:45:10,19.0,24.0,29.939999,6.54,-32.82,0.34956414,0.85954463,9.624985,0.02339064,0.0053774468,0.009514226,-0.08900882303714752,-0.03630245104432106,-1.2793521881103516,1015.1345,
2021.02.13 18:45:10,19.0,24.0,29.46,6.72,-33.0,0.47885495,0.7541966,9.507666,0.02216891,0.00110139,0.0076816306,-0.07905956357717514,-0.05032262206077576,-1.283473014831543,1015.1345,
2021.02.13 18:45:10,19.0,24.0,29.88,6.8399997,-33.0,0.38787252,0.75659084,9.668081,-0.008374351,0.008431774,-0.011255192,-0.0780348852276802,-0.040097370743751526,-1.2810285091400146,1015.13135,
2021.02.13 18:45:10,19.0,24.0,29.939999,6.54,-33.0,0.38308397,0.80687064,9.677659,0.0020103576,0.009042637,-0.02041817,-0.08311738818883896,-0.03956370800733566,-1.2855178117752075,1015.1306,
2021.02.13 18:45:10,19.0,24.0,30.66,6.2999997,-33.059998,0.28731298,0.7039168,9.584282,-0.0028765644,0.021870807,-0.025915958,-0.07328048348426819,-0.029968542978167534,-1.3043384552001953,1015.1306,
2021.02.13 18:45:10,19.0,24.0,31.26,6.54,-32.82,0.45491222,0.8379962,9.598648,-0.020591656,0.006599177,-0.041187588,-0.08698562532663345,-0.04735792428255081,-1.2961827516555786,1015.1289,
2021.02.13 18:45:10,19.0,24.0,31.08,6.8399997,-32.64,0.3328042,0.76137936,9.624985,-0.019980792,0.011486099,-0.062567875,-0.07889313250780106,-0.0345633439719677,-1.289397954940796,1015.1289,
2021.02.13 18:45:10,19.0,24.0,31.14,7.02,-32.82,0.31125572,0.75180227,9.663293,-0.015704734,-0.006839858,-0.048517972,-0.07760331779718399,-0.03219897672533989,-1.2847625017166138,1015.1311,
2021.02.13 18:45:10,19.0,24.0,30.72,6.8999996,-32.219997,0.26337022,0.7206767,9.636956,-0.010817813,-0.01294851,-0.048517972,-0.07461591064929962,-0.02732239104807377,-1.2868314981460571,1015.12964,
2021.02.13 18:45:10,19.0,24.0,30.179998,6.8399997,-32.34,0.23463893,0.6751855,9.624985,-0.009596081,-0.0123376455,-0.03080288,-0.07001379132270813,-0.024373281747102737,-1.2868906259536743,1015.12964,
2021.02.13 18:45:10,19.0,24.0,30.179998,6.48,-32.82,0.34477556,0.76137936,9.624985,-0.018148195,-0.008061589,-0.016142115,-0.07888970524072647,-0.035805583000183105,-1.2923046350479126,1015.1304,
2021.02.13 18:45:11,19.0,24.0,29.939999,6.6,-32.64,0.3328042,0.75180227,9.759064,-0.021202521,-0.008672453,-0.021029036,-0.07683996856212616,-0.034088850021362305,-1.2883557081222534,1015.1304,
2021.02.13 18:45:11,19.0,24.0,30.48,7.08,-32.94,0.29210153,0.69673395,9.63935,-0.0065417555,-0.008672453,-0.024694227,-0.07212170958518982,-0.030293762683868408,-1.281425952911377,1015.12524,
2021.02.13 18:45:11,19.0,24.0,30.72,7.3199997,-33.0,0.26097596,0.72546524,9.687236,-0.0034874296,-0.0025638016,-0.025915958,-0.07472223788499832,-0.02693367376923561,-1.2729296684265137,1015.1294,
2021.02.13 18:45:11,19.0,24.0,30.48,7.56,-32.579998,0.2777359,0.6943397,9.565128,0.0032320882,4.905248E-4,-0.018585576,-0.07243321090936661,-0.029028138145804405,-1.2674334049224854,1015.1294,
2021.02.13 18:45:11,19.0,24.0,30.599998,7.5,-32.34,0.3232271,0.7398309,9.632168,-0.020591656,0.0017122553,-0.013698653,-0.0766148790717125,-0.03354445844888687,-1.2685648202896118,1015.1304,
2021.02.13 18:45:11,19.0,24.0,30.359999,7.14,-32.1,0.31365,0.7039168,9.735122,0.0038429531,0.0041557164,-0.00514654,-0.07214400917291641,-0.03220725804567337,-1.2807964086532593,1015.1304,
2021.02.13 18:45:11,19.0,24.0,30.539999,7.08,-31.8,0.3519584,0.66800267,9.565128,-0.012650409,0.006599177,-0.014920384,-0.06967708468437195,-0.03677939996123314,-1.2883244752883911,1015.12744,
2021.02.13 18:45:11,19.0,24.0,30.599998,7.3199997,-31.679998,0.2753416,0.65842557,9.725544,0.008729876,-7.312057E-4,0.0021838432,-0.06757050007581711,-0.028303615748882294,-1.2811561822891235,1015.13354,
2021.02.13 18:45:11,19.0,24.0,30.66,7.2599998,-32.1,0.27294734,0.69912827,9.550762,-0.004098295,-0.0025638016,0.0021838432,-0.07304127514362335,-0.028570815920829773,-1.2779169082641602,1015.13354,
2021.02.13 18:45:11,19.0,24.0,30.359999,7.5,-32.46,0.28970724,0.74222517,9.694419,0.009951605,-0.0050072623,0.015012014,-0.07637906819581985,-0.029875028878450394,-1.2650508880615234,1015.1377,
2021.02.13 18:45:11,19.0,24.0,30.599998,7.14,-33.059998,0.2466103,0.6153286,9.759064,0.028888429,-0.017835433,0.01806634,-0.06294861435890198,-0.025264495983719826,-1.287279725074768,1015.1377,
2021.02.13 18:45:11,19.0,24.0,30.9,7.08,-33.36,0.41181526,0.6440599,9.3592205,0.005675549,-0.0031746665,0.013179418,-0.06864102184772491,-0.04397265613079071,-1.29201078414917,1015.1467,
2021.02.13 18:45:11,19.0,24.0,31.26,7.3199997,-32.94,0.3040729,0.7326481,9.660899,-0.012039543,0.0041557164,0.001572978,-0.07565423101186752,-0.03146420419216156,-1.278517246246338,1015.1399,
2021.02.13 18:45:11,19.0,24.0,31.8,7.74,-32.579998,0.30646718,0.6943397,9.517242,0.0136167975,-0.003785532,0.0064598997,-0.07278935611248016,-0.03219013288617134,-1.274774432182312,1015.1399,
2021.02.13 18:45:11,19.0,24.0,31.679998,7.8599997,-32.52,0.3232271,0.66800267,9.692024,-0.0059308903,-0.0031746665,0.0034055738,-0.06877598911523819,-0.03333744779229164,-1.2743449211120605,1015.1416,
2021.02.13 18:45:11,19.0,24.0,31.38,7.9199996,-32.28,0.30886146,0.6847626,9.553157,-0.012039543,-0.0025638016,0.00523817,-0.07151957601308823,-0.0323195718228817,-1.2677518129348755,1015.1416,
2021.02.13 18:45:11,19.0,24.0,30.72,7.56,-32.46,0.3974496,0.6488485,9.79019,-0.021202521,-0.006839858,0.0076816306,-0.06612427532672882,-0.040574442595243454,-1.279317021369934,1015.14233,
2021.02.13 18:45:12,19.0,24.0,30.42,7.3199997,-32.64,0.44294083,0.83081335,9.466963,-0.0022656992,-0.01172678,-0.013087788,-0.08743979781866074,-0.046753961592912674,-1.2666962146759033,1015.1421,
2021.02.13 18:45:12,19.0,24.0,30.179998,7.3199997,-32.1,0.27055305,0.59378016,9.701602,-0.016926466,-0.005618128,-0.028359419,-0.06110439449548721,-0.027880234643816948,-1.2824287414550781,1015.1421,
2021.02.13 18:45:12,19.0,24.0,30.359999,7.2599998,-32.579998,0.34956414,0.69912827,9.775824,-0.008985217,0.00110139,-0.021029036,-0.07134905457496643,-0.03574279695749283,-1.2783548831939697,1015.1487,
2021.02.13 18:45:12,19.0,24.0,30.24,7.3199997,-32.579998,0.35674694,0.65842557,9.569917,0.006897279,0.00110139,-0.017363844,-0.06864581257104874,-0.03726070374250412,-1.2784974575042725,1015.1487,
2021.02.13 18:45:12,19.0,24.0,30.359999,6.96,-32.64,0.32083282,0.6249057,9.663293,0.017281989,-0.01172678,-0.023472497,-0.06454260647296906,-0.03318899869918823,-1.2923314571380615,1015.14746,
2021.02.13 18:45:12,19.0,24.0,30.48,7.3199997,-33.18,0.27055305,0.65124273,9.567522,-0.0034874296,-0.0105050495,-0.026526824,-0.06793615967035294,-0.028270745649933815,-1.277167558670044,1015.14136,
2021.02.13 18:45:12,19.0,24.0,30.779999,7.56,-32.579998,0.2849187,0.6895511,9.672871,-0.0047091604,-0.01172678,0.010125091,-0.0711359828710556,-0.029446929693222046,-1.2714537382125854,1015.14136,
2021.02.13 18:45:12,19.0,24.0,30.9,7.56,-32.52,0.34477556,0.63208854,9.5483675,0.0020103576,-0.01294851,0.0064598997,-0.06605922430753708,-0.036092646420001984,-1.2793627977371216,1015.14014,
2021.02.13 18:45:12,19.0,24.0,30.42,7.98,-32.46,0.2944958,0.6249057,9.687236,-0.0059308903,-0.0019529362,-0.0039248094,-0.06438922882080078,-0.030391033738851547,-1.2626510858535767,1015.14014,
2021.02.13 18:45:12,19.0,24.0,30.24,8.04,-32.219997,0.34956414,0.67757976,9.615408,-0.012039543,0.0041557164,-0.0027030788,-0.07030554115772247,-0.036338578909635544,-1.2564809322357178,1015.1411,
2021.02.13 18:45:12,19.0,24.0,29.699999,8.04,-32.64,0.28252444,0.70870537,9.77343,0.0026212228,-0.0019529362,3.5124752E-4,-0.07235665619373322,-0.02889935113489628,-1.2459535598754883,1015.1411,
2021.02.13 18:45:12,19.0,24.0,29.64,8.4,-32.579998,0.44533512,0.6177229,9.6896305,0.009951605,-0.01172678,0.009514226,-0.06359782069921494,-0.04592765122652054,-1.2491387128829956,1015.1411,
2021.02.13 18:45:12,19.0,24.0,29.76,8.22,-32.399998,0.28252444,0.5602603,9.694419,-0.010817813,-0.024554951,0.00523817,-0.05770339071750641,-0.029134752228856087,-1.255108118057251,1015.147,
2021.02.13 18:45:12,19.0,24.0,29.88,8.22,-32.399998,0.35435268,0.679974,9.692024,-0.0132612735,-0.018446298,0.026618455,-0.06999671459197998,-0.03654498606920242,-1.247883677482605,1015.147,
2021.02.13 18:45:12,19.0,24.0,29.88,7.8599997,-32.1,0.3615355,0.7398309,9.457385,-0.0059308903,-0.044713505,0.021120666,-0.07801210880279541,-0.03820924088358879,-1.2523647546768188,1015.1433,
2021.02.13 18:45:12,19.0,24.0,30.06,7.62,-32.16,0.44294083,0.5794145,9.498088,-0.007152621,-0.041659176,0.011957687,-0.06086178869009018,-0.04660097509622574,-1.2788435220718384,1015.1387,
2021.02.13 18:45:13,19.0,24.0,30.119999,7.5,-31.98,0.43336374,0.6201172,9.680053,-0.010817813,-0.0105050495,-0.0020922134,-0.0639100894331932,-0.04473886266350746,-1.2798336744308472,1015.1387,
2021.02.13 18:45:13,19.0,24.0,29.88,7.56,-32.1,0.37829542,0.6177229,9.665688,-0.004098295,-0.0031746665,-0.005757405,-0.06377335637807846,-0.03911801055073738,-1.274023175239563,1015.14087,
2021.02.13 18:45:13,19.0,24.0,29.88,7.56,-32.52,0.39505535,0.6081458,9.735122,-0.0034874296,-0.0062289927,-0.011255192,-0.062337007373571396,-0.040558166801929474,-1.275170087814331,1015.14087,
2021.02.13 18:45:13,19.0,24.0,29.64,7.62,-32.34,0.39266106,0.6057515,9.656111,0.03377535,-0.019668028,0.010735957,-0.06259875744581223,-0.04064212366938591,-1.2712814807891846,1015.1333,
2021.02.13 18:45:13,19.0,24.0,29.58,7.98,-32.64,0.50040346,0.6105401,9.57231,0.02094718,-0.01294851,0.0034055738,-0.06360898911952972,-0.05222859978675842,-1.2628448009490967,1015.12866,
2021.02.13 18:45:13,19.0,24.0,29.88,7.7999997,-32.82,0.4668836,0.63208854,9.751882,-0.0047091604,-0.0019529362,-0.014920384,-0.0646526962518692,-0.047839730978012085,-1.2681406736373901,1015.12866,
2021.02.13 18:45:13,19.0,24.0,29.82,7.8599997,-32.399998,0.40223816,0.6464542,9.598648,0.010562471,-0.0031746665,-0.01919644,-0.06718812137842178,-0.04188120737671852,-1.2621519565582275,1015.1299,
2021.02.13 18:45:13,19.0,24.0,30.3,7.7999997,-32.46,0.3615355,0.5889916,9.648928,0.0026212228,-0.0025638016,-0.011866057,-0.06092388555407524,-0.03745146468281746,-1.2722704410552979,1015.1299,
2021.02.13 18:45:13,19.0,24.0,30.3,7.68,-32.579998,0.45970076,0.65124273,9.613013,-4.3310347E-4,-0.001342071,-0.0039248094,-0.06756561249494553,-0.047784268856048584,-1.273141860961914,1015.1377,
2021.02.13 18:45:13,19.0,24.0,30.48,7.62,-32.399998,0.45970076,0.6488485,9.677659,0.0013994923,-0.0031746665,-0.024694227,-0.06687065213918686,-0.04746555909514427,-1.2772183418273926,1015.1338,
2021.02.13 18:45:13,19.0,24.0,30.72,7.56,-32.46,0.4070267,0.6105401,9.632168,-4.3310347E-4,-0.0062289927,-0.025305092,-0.06324455887079239,-0.04223189130425453,-1.2823833227157593,1015.1338,
2021.02.13 18:45:13,19.0,24.0,30.599998,7.44,-32.34,0.5243462,0.6105401,9.58907,0.0020103576,-0.004396397,-0.032635476,-0.06348999589681625,-0.05462724715471268,-1.2886817455291748,1015.1294,
2021.02.13 18:45:13,19.0,24.0,30.599998,7.44,-32.399998,0.50040346,0.6656084,9.675264,-0.007152621,-0.0105050495,-0.054626625,-0.06859523802995682,-0.05167383328080177,-1.2832673788070679,1015.1294,
2021.02.13 18:45:13,19.0,24.0,30.24,7.7999997,-32.28,0.38068968,0.6081458,9.613013,-0.0010439687,-0.0123376455,-0.07234171,-0.06312921643257141,-0.0395808108150959,-1.2707468271255493,1015.1294,
2021.02.13 18:45:13,19.0,24.0,30.06,7.9199996,-32.76,0.3974496,0.62251145,9.555551,-0.0010439687,-0.01294851,-0.06745479,-0.06499861180782318,-0.04156962409615517,-1.2639389038085938,1015.1328,
2021.02.13 18:45:13,19.0,24.0,30.06,8.22,-32.94,0.3974496,0.6440599,9.624985,-0.013872139,-0.014170242,-0.052794028,-0.06675908714532852,-0.04127008467912674,-1.2533519268035889,1015.1328,
2021.02.13 18:45:13,19.0,24.0,30.24,8.7,-32.88,0.35435268,0.69912827,9.838076,-0.02547858,-0.011115915,-0.050961435,-0.07089842855930328,-0.036002930253744125,-1.2359001636505127,1015.13794,
2021.02.13 18:45:14,19.0,24.0,30.599998,8.58,-33.059998,0.31125572,0.62251145,9.550762,0.005064684,-0.008061589,-0.027748555,-0.06505274027585983,-0.03257809206843376,-1.2464466094970703,1015.13794,
2021.02.13 18:45:14,19.0,24.0,30.9,8.82,-32.579998,0.37111259,0.69194543,9.768641,-0.0150938695,0.0017122553,-0.014309519,-0.0706644132733345,-0.03797193244099617,-1.240411639213562,1015.1406,
2021.02.13 18:45:14,19.0,24.0,30.66,8.639999,-32.28,0.4070267,0.7039168,9.60583,0.029499294,0.0047665816,0.007070765,-0.07308407127857208,-0.04234755039215088,-1.2431303262710571,1015.1399,
2021.02.13 18:45:14,19.0,24.0,30.599998,8.34,-32.28,0.37350687,0.59378016,9.857229,0.0020103576,0.009042637,0.010125091,-0.0601222924888134,-0.03787354752421379,-1.2605972290039062,1015.1399,
2021.02.13 18:45:14,19.0,24.0,30.42,8.5199995,-32.219997,0.51955765,0.68715686,9.63935,0.034997083,0.018816482,0.02967278,-0.07106345146894455,-0.053847551345825195,-1.2500742673873901,1015.1372,
2021.02.13 18:45:14,19.0,24.0,30.42,8.16,-32.46,0.36871833,0.61293435,9.61062,0.021558044,0.038975038,0.014401148,-0.06364382803440094,-0.03834691271185875,-1.2608981132507324,1015.1372,
2021.02.13 18:45:14,19.0,24.0,30.48,8.22,-32.88,0.35914123,0.66321415,9.615408,0.019114584,0.020038212,0.04250095,-0.06881721317768097,-0.03733324259519577,-1.2541766166687012,1015.1421,
2021.02.13 18:45:14,19.0,24.0,30.48,8.22,-32.7,0.33519846,0.6273,9.632168,0.022779776,0.017594751,0.041890085,-0.0649944543838501,-0.034785859286785126,-1.2569447755813599,1015.1482,
2021.02.13 18:45:14,19.0,24.0,30.359999,7.9199996,-32.579998,0.5411061,0.7446195,9.627379,0.015449394,0.031033786,0.036392298,-0.07706911861896515,-0.05614584684371948,-1.2615208625793457,1015.1482,
2021.02.13 18:45:14,19.0,24.0,30.539999,8.099999,-32.76,0.42618093,0.71588814,9.567522,0.015449394,0.023703404,0.014401148,-0.07461193948984146,-0.04451511800289154,-1.255820631980896,1015.1411,
2021.02.13 18:45:14,19.0,24.0,31.08,7.74,-32.219997,0.31843856,0.50758624,9.093455,-0.096949816,-0.05631994,0.014401148,-0.05572689697146416,-0.03500412777066231,-1.284925937652588,1015.1411,
2021.02.13 18:45:14,19.0,24.0,30.84,7.9199996,-32.1,0.44533512,0.8044763,9.962578,-0.091452025,-0.009283319,0.004016439,-0.0804949551820755,-0.044671058654785156,-1.2598426342010498,1015.14355,
