Time,X-cord,Y-cord,Mag_x,Mag_y,Mag_z,Acc_x,Acc_y,Acc_z,Gyro_x,Gyro_y,Gyro_z,Orn_x,Orn_y,Orn_z,Pressure,
2021.02.13 18:46:26,26.0,24.0,36.48,6.8999996,-35.7,0.23224466,0.4860378,10.345661,0.04660352,0.087233394,-0.049128838,-0.04693354293704033,-0.02244473807513714,-1.3458515405654907,1015.1438,
2021.02.13 18:46:26,26.0,24.0,36.54,6.96,-35.579998,0.18196489,0.53871185,10.063137,-0.07129347,-0.053265616,0.0021838432,-0.053473420441150665,-0.018080351874232292,-1.3379602432250977,1015.1487,
2021.02.13 18:46:26,26.0,24.0,37.559998,6.8999996,-35.46,0.12929083,0.38787252,9.73991,-0.06946088,-0.022111489,0.03211624,-0.03979847580194473,-0.013273555785417557,-1.3562675714492798,1015.1487,
2021.02.13 18:46:26,26.0,24.0,37.739998,6.6,-35.28,0.08858817,0.52674043,9.6896305,-0.050524052,-0.007450723,0.029061915,-0.054305534809827805,-0.009142319671809673,-1.3514156341552734,1015.1614,
2021.02.13 18:46:26,26.0,24.0,38.16,6.54,-35.28,0.0071828244,0.5650489,9.797373,7.88627E-4,0.010264369,0.009514226,-0.0576096810400486,-7.331377128139138E-4,-1.3503029346466064,1015.1614,
2021.02.13 18:46:26,26.0,24.0,38.34,6.72,-35.28,0.009577099,0.36871833,9.61062,0.0062864143,0.0047665816,0.024785858,-0.03834689408540726,-9.96511778794229E-4,-1.363620400428772,1015.1489,
2021.02.13 18:46:27,26.0,24.0,38.219997,6.48,-35.7,0.14126222,0.4644893,9.648928,7.88627E-4,-0.006839858,0.06143777,-0.0480966754257679,-0.014639153145253658,-1.3631434440612793,1015.14453,
2021.02.13 18:46:27,26.0,24.0,38.28,6.7799997,-35.64,0.31365,0.62251145,9.653716,0.008729876,-0.011115915,0.051053062,-0.0643611028790474,-0.032478656619787216,-1.3468708992004395,1015.14453,
2021.02.13 18:46:27,26.0,24.0,38.64,6.6,-35.52,0.016759925,0.51955765,9.8787775,-4.3310347E-4,-0.006839858,0.005849035,-0.05254483222961426,-0.0016965569229796529,-1.355751633644104,1015.14014,
2021.02.13 18:46:27,26.0,24.0,38.46,6.3599997,-35.76,-0.05027977,0.3998439,9.44302,0.04782525,-0.026387546,0.03211624,-0.042316921055316925,0.005324493162333965,-1.3678306341171265,1015.14014,
2021.02.13 18:46:27,26.0,24.0,38.219997,6.3599997,-35.16,0.019154198,0.409421,9.620196,0.012395066,-0.015391972,0.06082691,-0.04253273457288742,-0.0019910375121980906,-1.3686835765838623,1015.14233,
2021.02.13 18:46:27,26.0,24.0,38.46,5.94,-34.92,-0.102953814,0.3040729,9.438231,0.00934074,0.036531575,0.07182248,-0.03220409154891968,0.010907734744250774,-1.3870896100997925,1015.13745,
2021.02.13 18:46:27,26.0,24.0,38.04,6.0,-34.62,0.22506183,0.34956414,9.469357,0.005675549,0.044472825,0.09198103,-0.036888137459754944,-0.023762909695506096,-1.3865854740142822,1015.13745,
2021.02.13 18:46:27,26.0,24.0,38.46,6.18,-34.739998,0.5506832,0.42378664,9.3831625,0.0038429531,0.026146866,0.09320277,-0.04505648836493492,-0.058621201664209366,-1.3841632604599,1015.1411,
2021.02.13 18:46:27,26.0,24.0,38.399998,5.94,-34.739998,0.2753416,0.6177229,10.309748,-0.0150938695,0.008431774,-0.013698653,-0.05982356518507004,-0.026700573042035103,-1.3714053630828857,1015.1411,
2021.02.13 18:46:27,26.0,24.0,38.04,6.12,-35.34,0.0047885496,0.41420954,9.541185,0.062486015,-0.01172678,-0.049128838,-0.043385546654462814,-5.018819938413799E-4,-1.372525930404663,1015.14307,
2021.02.13 18:46:27,26.0,24.0,38.28,5.8799996,-35.76,-0.14365649,0.35674694,9.368797,0.05332304,-0.045935236,-0.025915958,-0.03805534541606903,0.015332303009927273,-1.3807260990142822,1015.1467,
2021.02.13 18:46:27,26.0,24.0,38.34,5.4,-35.399998,-0.07901107,0.35674694,9.344854,0.04293833,-0.017835433,-0.022861632,-0.03815586864948273,0.008454833179712296,-1.3949527740478516,1015.1467,
2021.02.13 18:46:27,26.0,24.0,38.34,5.52,-35.64,-0.045491222,0.2944958,9.727939,-0.016926466,0.0023231206,-0.015531249,-0.030263621360063553,0.004676313605159521,-1.3995579481124878,1015.1472,
2021.02.13 18:46:27,26.0,24.0,38.04,5.16,-35.46,0.11492519,0.3902668,9.42626,-0.014483005,-0.0019529362,0.011957687,-0.041375380009412766,-0.012191420421004295,-1.4008090496063232,1015.1472,
2021.02.13 18:46:27,26.0,24.0,37.739998,5.16,-35.34,0.11492519,0.51955765,9.869201,-0.061519627,-0.003785532,-0.0020922134,-0.052592236548662186,-0.011644306592643261,-1.3896434307098389,1015.1504,
2021.02.13 18:46:27,26.0,24.0,37.26,5.16,-35.52,-0.011971374,0.36392978,9.818921,-0.021813387,-0.026387546,-0.010033461,-0.03704714775085449,0.0012192142894491553,-1.3985718488693237,1015.145,
2021.02.13 18:46:28,26.0,24.0,37.14,5.4,-36.059998,0.14605077,0.339987,9.802161,-0.0132612735,-0.018446298,0.007070765,-0.034667160362005234,-0.014898750931024551,-1.3966624736785889,1015.145,
2021.02.13 18:46:28,26.0,24.0,37.8,5.7599998,-36.12,0.22506183,0.46209505,9.73991,-0.0022656992,-0.024554951,0.008903361,-0.04739528149366379,-0.02310306578874588,-1.3809272050857544,1015.14966,
2021.02.13 18:46:28,26.0,24.0,37.8,5.7599998,-36.3,0.2083019,0.44294083,9.998491,0.010562471,-0.039215717,-0.02041817,-0.04426223039627075,-0.020830320194363594,-1.3830026388168335,1015.14966,
2021.02.13 18:46:28,26.0,24.0,38.399998,6.24,-36.12,0.14365649,0.40223816,9.61062,0.04416006,-0.03616139,-0.03446807,-0.04182443022727966,-0.014946569688618183,-1.3750429153442383,1015.1494,
2021.02.13 18:46:28,26.0,24.0,38.399998,6.06,-35.76,0.08140534,0.38787252,9.648928,0.03133189,-0.037993982,-0.03507894,-0.04017545282840729,-0.00843652430921793,-1.37991201877594,1015.15063,
2021.02.13 18:46:28,26.0,24.0,37.98,6.12,-36.18,0.28252444,0.45970076,9.703996,0.03133189,-0.045935236,-0.01797471,-0.047316908836364746,-0.029106013476848602,-1.3741878271102905,1015.15063,
2021.02.13 18:46:28,26.0,24.0,38.04,6.42,-36.12,0.31365,0.5961744,9.725544,0.025223237,-0.057541672,-0.025305092,-0.061191510409116745,-0.032238949090242386,-1.3561912775039673,1015.1516,
2021.02.13 18:46:28,26.0,24.0,37.86,5.7599998,-36.12,0.12450229,0.6177229,9.751882,0.04660352,-0.034939658,-0.024694227,-0.06325431168079376,-0.012766308151185513,-1.3649497032165527,1015.1516,
2021.02.13 18:46:28,26.0,24.0,38.04,5.8199997,-36.12,0.05506832,0.43096948,9.304152,0.034997083,-0.024554951,-0.008200866,-0.04628623276948929,-0.005918613635003567,-1.377829670906067,1015.1443,
2021.02.13 18:46:28,26.0,24.0,37.92,5.52,-35.76,0.20590763,0.61293435,9.385557,-0.0065417555,-0.009283319,0.069379024,-0.06519787758588791,-0.02193525619804859,-1.3723000288009644,1015.14575,
2021.02.13 18:46:28,26.0,24.0,38.04,5.2799997,-35.46,0.4668836,0.53392327,9.565128,-0.05235665,0.0029339858,0.065102965,-0.05569573491811752,-0.04877230525016785,-1.3929487466812134,1015.14575,
2021.02.13 18:46:28,26.0,24.0,37.5,5.4,-35.579998,0.50998056,0.723071,9.768641,-0.04930232,0.0017122553,0.022953263,-0.07378475368022919,-0.05215853452682495,-1.3734079599380493,1015.14526,
2021.02.13 18:46:28,26.0,24.0,37.32,5.4,-35.52,0.3519584,0.5794145,9.550762,-0.038917612,0.010264369,0.0034055738,-0.06055156886577606,-0.03683467581868172,-1.380025029182434,1015.14526,
2021.02.13 18:46:28,26.0,24.0,37.5,5.8199997,-35.82,0.27055305,0.65842557,9.857229,-0.008985217,0.009653503,0.027229318,-0.06667209416627884,-0.027440279722213745,-1.3626683950424194,1015.14355,
2021.02.13 18:46:28,26.0,24.0,36.96,6.06,-36.18,0.5961744,0.7350424,9.747093,0.041716598,-0.015391972,0.023564126,-0.07512909919023514,-0.06108822673559189,-1.354682207107544,1015.1404,
2021.02.13 18:46:28,26.0,24.0,37.14,6.06,-36.36,0.53392327,0.6368771,9.6896305,0.028277563,-0.01294851,-0.06501134,-0.06553416699171066,-0.05504687502980232,-1.3617712259292603,1015.1404,
2021.02.13 18:46:28,26.0,24.0,37.26,6.06,-36.719997,0.14605077,0.46209505,9.73991,0.014227662,-0.013559376,-0.077228636,-0.04740259051322937,-0.014993960037827492,-1.3681868314743042,1015.1355,
2021.02.13 18:46:29,26.0,24.0,37.2,5.7,-36.84,0.21548474,0.54828894,9.744699,0.02094718,-0.007450723,-0.03507894,-0.056192390620708466,-0.022109419107437134,-1.3705617189407349,1015.1355,
2021.02.13 18:46:29,26.0,24.0,37.559998,5.7599998,-36.84,0.3040729,0.5961744,9.62259,0.016671123,-0.0062289927,-0.032024607,-0.06184583157300949,-0.031589388847351074,-1.3681764602661133,1015.13696,
2021.02.13 18:46:29,26.0,24.0,37.559998,6.24,-37.02,0.33519846,0.5363176,10.046377,0.056988228,-0.033107065,-0.011866057,-0.05330394580960274,-0.03335273265838623,-1.3639713525772095,1015.1355,
2021.02.13 18:46:29,26.0,24.0,37.5,6.3599997,-37.2,0.45012367,0.51716334,9.313729,0.053933904,-0.014781106,-0.036911532,-0.05540549382567406,-0.04829147085547447,-1.3622260093688965,1015.1355,
2021.02.13 18:46:29,26.0,24.0,37.26,6.18,-36.899998,0.20590763,0.5794145,9.830893,-0.04563713,0.018205617,-0.058291815,-0.05885715410113335,-0.020941896364092827,-1.3560501337051392,1015.1438,
2021.02.13 18:46:29,26.0,24.0,37.32,6.24,-36.899998,0.2083019,0.67757976,9.792584,-0.014483005,-0.001342071,-0.032024607,-0.06906746327877045,-0.02126818522810936,-1.3458703756332397,1015.1438,
2021.02.13 18:46:29,26.0,24.0,37.2,6.42,-36.6,0.2561874,0.45970076,9.696813,0.03377535,-0.014170242,0.0034055738,-0.047355443239212036,-0.026413610205054283,-1.3616466522216797,1015.1438,
2021.02.13 18:46:29,26.0,24.0,36.66,6.12,-36.12,0.30886146,0.5889916,9.5483675,0.010562471,0.005988312,0.00523817,-0.061574872583150864,-0.03233576938509941,-1.3557831048965454,1015.1421,
2021.02.13 18:46:29,26.0,24.0,36.48,6.6,-36.059998,0.18675344,0.7302538,10.161303,0.029499294,0.0023231206,0.005849035,-0.07173074781894684,-0.018376817926764488,-1.3300081491470337,1015.1421,
2021.02.13 18:46:29,26.0,24.0,36.239998,6.72,-36.3,0.2777359,0.65842557,9.512454,0.09364014,0.006599177,0.015012014,-0.06907764822244644,-0.029188787564635277,-1.3305073976516724,1015.14844,
2021.02.13 18:46:29,26.0,24.0,36.12,6.8399997,-36.48,0.2849187,0.5865973,9.660899,0.02339064,0.007820908,0.008292495,-0.06061796844005585,-0.02948339655995369,-1.3340098857879639,1015.14844,
2021.02.13 18:46:29,26.0,24.0,36.36,6.8999996,-36.899998,0.27294734,0.6656084,9.5794935,0.035607945,0.009042637,0.015012014,-0.06934308260679245,-0.028485171496868134,-1.3253575563430786,1015.1511,
2021.02.13 18:46:29,26.0,24.0,36.18,6.6,-36.84,0.22027329,0.6344828,9.737515,1.7776179E-4,0.009653503,0.027840184,-0.06505002081394196,-0.022617241367697716,-1.3340747356414795,1015.1511,
2021.02.13 18:46:29,26.0,24.0,35.88,5.8799996,-36.84,0.2777359,0.6943397,9.629773,0.013005932,0.01392956,0.037003163,-0.0719490572810173,-0.028833379969000816,-1.346158504486084,1015.1511,
2021.02.13 18:46:29,26.0,24.0,35.82,5.2799997,-36.84,0.32801566,0.70870537,9.680053,0.0032320882,0.012096965,0.037003163,-0.07304079830646515,-0.03387277200818062,-1.3616232872009277,1015.1482,
2021.02.13 18:46:29,26.0,24.0,35.579998,4.68,-36.66,0.3232271,0.67279124,9.727939,0.006897279,0.0053774468,0.032727104,-0.06901280581951141,-0.03321446105837822,-1.379724383354187,1015.1482,
2021.02.13 18:46:29,26.0,24.0,35.82,4.92,-36.899998,0.29210153,0.69194543,9.60583,-0.0016548339,-7.312057E-4,0.03211624,-0.07187658548355103,-0.03039940819144249,-1.3709841966629028,1015.1487,
2021.02.13 18:46:30,26.0,24.0,36.18,5.16,-36.6,0.35435268,0.75180227,9.663293,-0.0065417555,-0.006839858,0.03089451,-0.07759145647287369,-0.0366535484790802,-1.3637416362762451,1015.1443,
2021.02.13 18:46:30,26.0,24.0,36.36,5.22,-36.66,0.3519584,0.71588814,9.897932,-0.0114286775,-0.024554951,0.005849035,-0.07215587794780731,-0.03554380312561989,-1.367619514465332,1015.1443,
2021.02.13 18:46:30,26.0,24.0,36.42,5.8199997,-36.78,0.2944958,0.65842557,9.536397,0.014227662,-0.0105050495,-0.0014813483,-0.06890129297971725,-0.030871432274580002,-1.3542096614837646,1015.147,
2021.02.13 18:46:30,26.0,24.0,36.54,5.8799996,-36.96,0.22027329,0.600963,9.751882,-0.0150938695,-0.0050072623,-0.003313944,-0.06153184548020363,-0.02258393168449402,-1.3575679063796997,1015.147,
2021.02.13 18:46:30,26.0,24.0,36.36,6.06,-37.32,0.37829542,0.7206767,9.641745,0.012395066,-0.001342071,-0.008200866,-0.0745495930314064,-0.039215050637722015,-1.344185709953308,1015.15625,
2021.02.13 18:46:30,26.0,24.0,35.82,6.12,-37.5,0.3423813,0.7039168,9.766247,-0.0163156,-0.008672453,-0.032024607,-0.07190803438425064,-0.03504326194524765,-1.3403596878051758,1015.1531,
2021.02.13 18:46:30,26.0,24.0,35.579998,5.8799996,-37.68,0.27055305,0.66800267,9.624985,1.7776179E-4,-0.005618128,-0.010644327,-0.06926459819078445,-0.028102053329348564,-1.3452517986297607,1015.1531,
2021.02.13 18:46:30,26.0,24.0,35.28,5.7599998,-37.38,0.2370332,0.6344828,9.682447,-0.012039543,-0.0019529362,-0.016752979,-0.06541608273983002,-0.02447582222521305,-1.349677562713623,1015.1421,
2021.02.13 18:46:30,26.0,24.0,35.28,5.7599998,-36.899998,0.31843856,0.6847626,9.744699,0.00811901,-0.004396397,-0.0075900005,-0.07011764496564865,-0.03266650810837746,-1.3483330011367798,1015.1421,
2021.02.13 18:46:30,26.0,24.0,35.399998,5.7,-36.6,0.33759275,0.6608198,9.648928,-0.004098295,-0.0031746665,-0.011255192,-0.06833788752555847,-0.034973327070474625,-1.3533334732055664,1015.1406,
2021.02.13 18:46:30,26.0,24.0,35.579998,6.0,-36.12,0.27055305,0.7039168,9.778218,-0.0010439687,-0.0031746665,-0.013087788,-0.07183688133955002,-0.027661895379424095,-1.3422521352767944,1015.14404,
2021.02.13 18:46:30,26.0,24.0,35.46,5.8199997,-36.54,0.2777359,0.65363705,9.608225,0.005064684,-0.001342071,-0.013698653,-0.06789598613977432,-0.028898008167743683,-1.3494209051132202,1015.14404,
2021.02.13 18:46:30,26.0,24.0,34.98,5.94,-37.02,0.23224466,0.6464542,9.687236,-0.010817813,0.003544851,-0.0020922134,-0.06661469489336014,-0.023969704285264015,-1.342414140701294,1015.13403,
2021.02.13 18:46:30,26.0,24.0,34.86,5.8799996,-36.84,0.32801566,0.679974,9.593859,-0.0028765644,0.0017122553,0.007070765,-0.07071646302938461,-0.03417685627937317,-1.342624306678772,1015.13403,
2021.02.13 18:46:30,26.0,24.0,34.86,6.06,-37.559998,0.22266756,0.6296943,9.847652,-0.010817813,0.0029339858,-8.70483E-4,-0.06384038180112839,-0.022607380524277687,-1.339892864227295,1015.1404,
2021.02.13 18:46:30,26.0,24.0,35.28,6.12,-37.079998,0.2944958,0.6656084,9.58907,0.005064684,0.00110139,0.0076816306,-0.06926951557397842,-0.030701961368322372,-1.3389111757278442,1015.1426,
2021.02.13 18:46:31,26.0,24.0,35.52,5.8199997,-37.32,0.27294734,0.65124273,9.754275,-0.012039543,0.0029339858,0.004016439,-0.06663990765810013,-0.02797503024339676,-1.349446415901184,1015.1426,
2021.02.13 18:46:31,26.0,24.0,35.76,5.8199997,-38.04,0.3040729,0.66800267,9.617802,0.010562471,4.905248E-4,0.004016439,-0.06930894404649734,-0.031605105847120285,-1.348235011100769,1015.14355,
2021.02.13 18:46:31,26.0,24.0,35.82,5.46,-37.38,0.26097596,0.63208854,9.730332,-0.017537331,0.007820908,-0.0069791353,-0.0648462325334549,-0.02681443840265274,-1.3617827892303467,1015.14355,
2021.02.13 18:46:31,26.0,24.0,35.52,5.46,-37.62,0.21787901,0.63208854,9.634562,-0.008985217,0.011486099,9.621128E-4,-0.06549578160047531,-0.022610461339354515,-1.3579798936843872,1015.1399,
2021.02.13 18:46:31,26.0,24.0,35.88,5.8799996,-36.96,0.36871833,0.67279124,9.675264,-0.010206947,0.0053774468,0.008903361,-0.06937529146671295,-0.03809094801545143,-1.3508232831954956,1015.1411,
2021.02.13 18:46:31,26.0,24.0,35.88,6.18,-36.54,0.2849187,0.6201172,9.648928,-0.008374351,4.905248E-4,0.001572978,-0.0641518384218216,-0.029519956558942795,-1.3461676836013794,1015.1411,
2021.02.13 18:46:31,26.0,24.0,35.94,6.06,-37.02,0.26337022,0.6488485,9.660899,-0.0010439687,-0.0050072623,-0.0027030788,-0.06703678518533707,-0.027254709973931313,-1.345639944076538,1015.1438,
2021.02.13 18:46:31,26.0,24.0,35.88,6.12,-36.84,0.2681588,0.5961744,9.761458,-0.0047091604,-0.005618128,-0.003313944,-0.060975607484579086,-0.02746427431702614,-1.3496081829071045,1015.1438,
2021.02.13 18:46:31,26.0,24.0,35.76,6.24,-37.26,0.29928434,0.63208854,9.615408,-4.3310347E-4,4.905248E-4,-0.003313944,-0.06561092287302017,-0.031115451827645302,-1.341951847076416,1015.14526,
2021.02.13 18:46:31,26.0,24.0,35.94,6.18,-36.96,0.24421602,0.60335726,9.6585045,-0.0028765644,-1.2034045E-4,-0.0063682706,-0.062368061393499374,-0.025279691442847252,-1.3463820219039917,1015.13965,
2021.02.13 18:46:31,26.0,24.0,35.88,6.2999997,-36.719997,0.3232271,0.64166564,9.598648,-0.009596081,0.01392956,-0.0045356746,-0.06671256572008133,-0.03366151452064514,-1.3416576385498047,1015.13965,
2021.02.13 18:46:31,26.0,24.0,36.059998,6.3599997,-36.84,0.27294734,0.65363705,9.70639,-0.0114286775,0.0145404255,-0.0045356746,-0.06721289455890656,-0.02811296656727791,-1.3390456438064575,1015.13306,
2021.02.13 18:46:31,26.0,24.0,36.059998,6.24,-36.84,0.24182175,0.63208854,9.660899,-4.3310347E-4,-0.0031746665,9.621128E-4,-0.06531398743391037,-0.025025751441717148,-1.3429746627807617,1015.13306,
2021.02.13 18:46:31,26.0,24.0,36.059998,6.3599997,-36.96,0.23224466,0.6105401,9.663293,-0.0047091604,-0.0050072623,0.005849035,-0.063079334795475,-0.024029070511460304,-1.341483473777771,1015.12744,
2021.02.13 18:46:31,26.0,24.0,36.36,6.6,-37.02,0.3040729,0.65363705,9.737515,-0.008985217,-1.2034045E-4,0.005849035,-0.06699255108833313,-0.031216803938150406,-1.3355849981307983,1015.136,
2021.02.13 18:46:31,26.0,24.0,36.12,6.72,-37.079998,0.24182175,0.6057515,9.574705,0.005675549,-0.0019529362,3.5124752E-4,-0.06316151469945908,-0.02525094524025917,-1.3327505588531494,1015.136,
2021.02.13 18:46:31,26.0,24.0,36.239998,6.3599997,-37.44,0.27294734,0.6249057,9.684841,-0.0150938695,0.01392956,0.0027947086,-0.0644092783331871,-0.028175486251711845,-1.3417880535125732,1015.14404,
2021.02.13 18:46:32,26.0,24.0,35.94,6.0,-37.62,0.36392978,0.6368771,9.711179,-0.0059308903,0.0023231206,0.0076816306,-0.0654422715306282,-0.03745781630277634,-1.3505077362060547,1015.14404,
2021.02.13 18:46:32,26.0,24.0,35.579998,5.64,-37.739998,0.28013015,0.6081458,9.63935,-0.0022656992,-0.0050072623,-0.003313944,-0.06297989189624786,-0.02905292622745037,-1.3575637340545654,1015.1511,
2021.02.13 18:46:32,26.0,24.0,35.64,5.7599998,-37.5,0.27294734,0.6081458,9.665688,0.0032320882,-0.004396397,-0.0069791353,-0.06281020492315292,-0.028231289237737656,-1.355082392692566,1015.15234,
2021.02.13 18:46:32,26.0,24.0,35.7,6.12,-36.899998,0.25858167,0.5985687,9.601042,0.0026212228,-0.0062289927,-8.70483E-4,-0.06224104389548302,-0.026926159858703613,-1.34715735912323,1015.15234,
2021.02.13 18:46:32,26.0,24.0,35.76,6.0,-36.96,0.2561874,0.6081458,9.725544,-4.3310347E-4,-0.0025638016,-0.010033461,-0.06242786720395088,-0.026335613802075386,-1.350197196006775,1015.1533,
2021.02.13 18:46:32,26.0,24.0,35.579998,5.94,-36.6,0.2561874,0.5985687,9.617802,0.0026212228,-0.0050072623,-0.003313944,-0.06213334947824478,-0.026630498468875885,-1.3515774011611938,1015.1533,
2021.02.13 18:46:32,26.0,24.0,35.82,5.94,-36.54,0.27294734,0.5961744,9.660899,0.0013994923,-0.003785532,0.0021838432,-0.06160735711455345,-0.02824527584016323,-1.3539618253707886,1015.14966,
2021.02.13 18:46:32,26.0,24.0,35.579998,6.0,-36.54,0.27294734,0.6177229,9.730332,-0.0047091604,0.0017122553,-0.0014813483,-0.06337431818246841,-0.028043828904628754,-1.349348545074463,1015.1465,
2021.02.13 18:46:32,26.0,24.0,35.579998,6.2999997,-36.54,0.25139886,0.57462597,9.644139,-0.007152621,-0.003785532,0.0064598997,-0.05949239805340767,-0.02606162615120411,-1.3445734977722168,1015.1465,
2021.02.13 18:46:32,26.0,24.0,35.82,6.3599997,-36.54,0.21787901,0.5794145,9.732727,-0.015704734,-7.312057E-4,0.004627304,-0.05944755673408508,-0.02238248661160469,-1.3435122966766357,1015.1421,
2021.02.13 18:46:32,26.0,24.0,35.82,6.2999997,-37.2,0.2777359,0.5961744,9.646533,0.005675549,4.905248E-4,0.008292495,-0.061697933822870255,-0.028783313930034637,-1.343806505203247,1015.1421,
2021.02.13 18:46:32,26.0,24.0,36.239998,5.7599998,-37.38,0.2753416,0.5650489,9.715967,-0.008985217,0.00110139,0.0034055738,-0.05806802958250046,-0.02833149954676628,-1.363046646118164,1015.14404,
2021.02.13 18:46:32,26.0,24.0,36.42,5.8199997,-37.2,0.2944958,0.5913859,9.725544,7.88627E-4,0.0017122553,0.005849035,-0.060704950243234634,-0.03027139976620674,-1.3608183860778809,1015.1421,
2021.02.13 18:46:32,26.0,24.0,36.36,5.7599998,-37.26,0.33759275,0.54350036,9.596253,0.013005932,0.013318695,0.001572978,-0.056541379541158676,-0.03516513481736183,-1.3669382333755493,1015.1421,
2021.02.13 18:46:32,26.0,24.0,36.36,5.58,-37.02,0.052674048,0.52913475,9.696813,0.019725451,0.01392956,0.010735957,-0.05451303347945213,-0.005432045552879572,-1.3664180040359497,1015.14014,
2021.02.13 18:46:32,26.0,24.0,35.94,5.7599998,-36.6,0.26097596,0.5889916,9.447808,0.01606026,0.010264369,0.041890085,-0.06223735585808754,-0.02761588804423809,-1.3584706783294678,1015.14014,
2021.02.13 18:46:32,26.0,24.0,36.0,5.7,-36.239998,0.44533512,0.6895511,9.809344,0.015449394,0.009653503,-0.011255192,-0.07010790705680847,-0.04536792263388634,-1.358454942703247,1015.13916,
2021.02.13 18:46:33,26.0,24.0,36.42,5.7,-36.239998,0.27294734,0.59378016,9.763853,0.00811901,0.0017122553,-0.0014813483,-0.060715656727552414,-0.027947602793574333,-1.3646235466003418,1015.1367,
2021.02.13 18:46:33,26.0,24.0,36.3,5.7,-36.059998,0.17717634,0.57223165,9.668081,0.0117842015,0.009042637,0.015622879,-0.05910884216427803,-0.018323855474591255,-1.3632819652557373,1015.1367,
2021.02.13 18:46:33,26.0,24.0,36.36,5.8799996,-36.059998,0.28013015,0.67279124,9.75667,0.011173336,0.0127078295,0.011957687,-0.0688197910785675,-0.02870377153158188,-1.3529858589172363,1015.1343,
2021.02.13 18:46:33,26.0,24.0,36.239998,5.8799996,-36.6,-0.18435916,0.5602603,8.0687065,-0.057854436,-0.095415324,0.004016439,-0.06930689513683319,0.022844688966870308,-1.3362541198730469,1015.1343,
2021.02.13 18:46:33,26.0,24.0,36.0,6.0,-36.0,0.06464542,0.47885495,10.33369,-0.11099971,-0.09175013,0.009514226,-0.04630517587065697,-0.0062557109631598,-1.3626844882965088,1015.14307,
