Time,X-cord,Y-cord,Mag_x,Mag_y,Mag_z,Acc_x,Acc_y,Acc_z,Gyro_x,Gyro_y,Gyro_z,Orn_x,Orn_y,Orn_z,Pressure,
2021.02.13 18:56:41,66.0,24.0,42.18,11.88,-27.9,0.7110996,0.7877164,9.356826,0.12907033,0.13304828,-0.0027030788,-0.08374787122011185,-0.07585214823484421,-1.2659727334976196,1015.2666,
2021.02.13 18:56:41,66.0,24.0,42.6,11.82,-27.84,0.1340794,0.5602603,9.996098,-0.055410977,-0.03616139,-0.0039248094,-0.05598429590463638,-0.013412369415163994,-1.2700505256652832,1015.2676,
2021.02.13 18:56:41,66.0,24.0,43.44,11.5199995,-27.24,0.17478207,0.5889916,9.60583,-0.029754635,-0.032496195,3.5124752E-4,-0.06122927367687225,-0.018193408846855164,-1.2806326150894165,1015.2676,
2021.02.13 18:56:41,66.0,24.0,44.46,11.58,-27.0,0.45491222,0.6057515,9.550762,-0.023645982,-0.043491773,0.045555275,-0.0632680356502533,-0.04759501293301582,-1.291025161743164,1015.27246,
2021.02.13 18:56:41,66.0,24.0,45.539997,11.88,-27.0,0.54350036,0.75659084,9.799767,-0.041361075,-0.02577668,0.01806634,-0.07693436741828918,-0.05540378764271736,-1.2865149974822998,1015.26245,
2021.02.13 18:56:41,66.0,24.0,45.539997,12.059999,-26.939999,0.27294734,0.66321415,9.749487,-0.04197194,-0.019057164,-0.014309519,-0.06789437681436539,-0.02798876166343689,-1.2815240621566772,1015.26245,
2021.02.13 18:56:41,66.0,24.0,44.94,12.54,-27.539999,0.23224466,0.5506832,9.435837,0.013005932,-0.015391972,-0.033857204,-0.05827708914875984,-0.024608073756098747,-1.2717795372009277,1015.26636,
2021.02.13 18:56:41,66.0,24.0,44.399998,12.54,-27.359999,0.23942748,0.5865973,9.718362,0.020336315,-0.006839858,-0.01919644,-0.060268301516771317,-0.024631625041365623,-1.2675589323043823,1015.26636,
2021.02.13 18:56:41,66.0,24.0,43.68,12.24,-27.779999,0.44294083,0.66321415,9.797373,-0.0150938695,0.009042637,0.0027947086,-0.06752118468284607,-0.045179400593042374,-1.2694697380065918,1015.2639,
2021.02.13 18:56:42,66.0,24.0,44.1,12.78,-27.3,0.49800915,0.6703969,9.387952,7.88627E-4,4.905248E-4,0.014401148,-0.07118958234786987,-0.05299801379442215,-1.2617793083190918,1015.2595,
2021.02.13 18:56:42,66.0,24.0,43.92,12.48,-27.18,0.20111908,0.58420306,9.869201,-0.012039543,-0.0019529362,-0.039965857,-0.05911332741379738,-0.020375637337565422,-1.2655454874038696,1015.2595,
2021.02.13 18:56:42,66.0,24.0,43.92,12.36,-27.599998,0.12689656,0.55786604,9.663293,0.010562471,-0.006839858,-0.045463648,-0.05766146257519722,-0.013131058774888515,-1.2666858434677124,1015.2588,
2021.02.13 18:56:42,66.0,24.0,44.46,12.599999,-27.18,0.3040729,0.5698374,9.941029,-0.0010439687,-7.312057E-4,0.008903361,-0.05723240226507187,-0.030578134581446648,-1.2697503566741943,1015.2588,
2021.02.13 18:56:42,66.0,24.0,44.04,12.0,-27.539999,0.4764607,0.57462597,9.514848,0.052101307,-0.0019529362,0.019898936,-0.06024399399757385,-0.050033699721097946,-1.2815052270889282,1015.26025,
2021.02.13 18:56:42,66.0,24.0,44.82,12.3,-27.84,0.21069619,0.43096948,9.469357,0.05026871,-0.005618128,-0.011866057,-0.045469388365745544,-0.022246647626161575,-1.2817925214767456,1015.2529,
2021.02.13 18:56:42,66.0,24.0,45.0,12.66,-27.84,0.339987,0.53871185,9.58907,0.025223237,-0.003785532,-0.01919644,-0.05608562007546425,-0.0354408323764801,-1.27290678024292,1015.2529,
2021.02.13 18:56:42,66.0,24.0,44.52,12.42,-28.26,0.35435268,0.6273,9.703996,-0.0022656992,-0.001342071,0.008903361,-0.064510777592659,-0.03649994730949402,-1.2702240943908691,1015.26074,
2021.02.13 18:56:42,66.0,24.0,44.219997,12.24,-28.439999,0.18914771,0.5602603,9.644139,-0.012039543,-0.0025638016,-0.01919644,-0.05801699310541153,-0.019610196352005005,-1.2714251279830933,1015.26074,
2021.02.13 18:56:42,66.0,24.0,43.68,12.179999,-28.32,0.28252444,0.57223165,9.57231,-0.008985217,-0.0025638016,0.013179418,-0.059682901948690414,-0.029506193473935127,-1.270682454109192,1015.2644,
2021.02.13 18:56:42,66.0,24.0,43.5,11.88,-28.38,0.35914123,0.5985687,9.7135725,-0.0065417555,-7.312057E-4,0.026618455,-0.06150215119123459,-0.0369563028216362,-1.2763288021087646,1015.2656,
2021.02.13 18:56:42,66.0,24.0,43.559998,11.759999,-28.32,0.41181526,0.679974,9.553157,-0.027311174,0.0053774468,0.015622879,-0.07099238783121109,-0.043081093579530716,-1.275601863861084,1015.2656,
2021.02.13 18:56:42,66.0,24.0,43.92,11.94,-28.199999,0.32083282,0.56744313,9.845258,-0.008374351,0.0053774468,0.016233744,-0.05754201486706734,-0.03257602080702782,-1.2790459394454956,1015.26636,
2021.02.13 18:56:42,66.0,24.0,44.219997,11.34,-27.96,0.3519584,0.6249057,9.826104,-0.0163156,0.005988312,0.005849035,-0.06347037106752396,-0.035803403705358505,-1.2909235954284668,1015.26636,
2021.02.13 18:56:42,66.0,24.0,44.16,11.34,-28.019999,0.45251793,0.6488485,9.732727,-0.023645982,-0.0031746665,0.011957687,-0.06649654358625412,-0.04646100476384163,-1.2912113666534424,1015.27686,
2021.02.13 18:56:42,66.0,24.0,44.52,11.28,-27.24,0.33759275,0.5698374,9.766247,0.0044538183,-0.004396397,-0.0045356746,-0.05824684724211693,-0.034553539007902145,-1.2970839738845825,1015.27,
2021.02.13 18:56:42,66.0,24.0,44.52,11.4,-27.48,0.27294734,0.5913859,9.732727,-0.0034874296,-0.005618128,-0.025915958,-0.06066419929265976,-0.02803693525493145,-1.2918099164962769,1015.27,
2021.02.13 18:56:43,66.0,24.0,44.16,12.059999,-27.48,0.32562137,0.57462597,9.660899,-0.0022656992,-0.004396397,-0.019807307,-0.05937592312693596,-0.03369232267141342,-1.2780766487121582,1015.28076,
2021.02.13 18:56:43,66.0,24.0,44.16,12.48,-27.48,0.36632404,0.6560313,9.77343,0.008729876,-0.0031746665,-0.008811731,-0.06697653234004974,-0.03746408969163895,-1.2665562629699707,1015.28076,
2021.02.13 18:56:43,66.0,24.0,43.559998,12.9,-27.72,0.31843856,0.5961744,9.771035,-4.3310347E-4,0.00110139,-0.027748555,-0.060906656086444855,-0.032578520476818085,-1.2558894157409668,1015.27954,
2021.02.13 18:56:43,66.0,24.0,43.739998,12.96,-27.48,0.2561874,0.6201172,9.445415,-0.0065417555,0.0023231206,-0.028970284,-0.06553460657596588,-0.027116291224956512,-1.2524809837341309,1015.27954,
2021.02.13 18:56:43,66.0,24.0,43.92,12.78,-27.9,0.22266756,0.5602603,9.811738,0.0117842015,4.905248E-4,-0.010033461,-0.057024434208869934,-0.022690104320645332,-1.2603033781051636,1015.27954,
2021.02.13 18:56:43,66.0,24.0,44.16,12.66,-27.599998,0.28252444,0.6153286,9.63935,-0.02547858,0.0029339858,-0.015531249,-0.06372129172086716,-0.029301103204488754,-1.2626116275787354,1015.27905,
2021.02.13 18:56:43,66.0,24.0,44.82,12.66,-28.08,0.35914123,0.66800267,9.593859,0.0038429531,-0.0019529362,-0.010644327,-0.0694674625992775,-0.03741702437400818,-1.2652089595794678,1015.27905,
2021.02.13 18:56:43,66.0,24.0,44.64,12.66,-28.08,0.21548474,0.6273,9.615408,-0.0047091604,0.0047665816,-0.010033461,-0.06513041257858276,-0.02240660786628723,-1.2628453969955444,1015.2788,
2021.02.13 18:56:43,66.0,24.0,44.579998,12.9,-28.019999,0.27294734,0.5818088,9.682447,0.00811901,-0.0050072623,-0.01797471,-0.05999308452010155,-0.02818244695663452,-1.2617294788360596,1015.28076,
2021.02.13 18:56:43,66.0,24.0,44.28,12.96,-28.32,0.28252444,0.6440599,9.775824,1.7776179E-4,-0.008672453,-0.005757405,-0.06576047092676163,-0.02889227867126465,-1.255415916442871,1015.28076,
2021.02.13 18:56:43,66.0,24.0,43.62,12.9,-28.38,0.25139886,0.5770202,9.63935,0.017892854,-0.0050072623,-0.014309519,-0.05976928398013115,-0.026074567809700966,-1.254698395729065,1015.2827,
2021.02.13 18:56:43,66.0,24.0,43.739998,13.08,-28.199999,0.31604427,0.5985687,9.670476,0.0032320882,-0.009283319,-0.005757405,-0.06178474426269531,-0.03266972675919533,-1.2525205612182617,1015.2827,
2021.02.13 18:56:43,66.0,24.0,43.739998,12.9,-28.26,0.2849187,0.6081458,9.644139,0.006897279,-0.007450723,9.621128E-4,-0.06294780969619751,-0.029534606263041496,-1.2547459602355957,1015.2759,
2021.02.13 18:56:43,66.0,24.0,43.68,12.84,-28.14,0.2657645,0.5985687,9.711179,-4.3310347E-4,-0.0031746665,-0.0027030788,-0.06153621897101402,-0.027360035106539726,-1.2559289932250977,1015.2683,
2021.02.13 18:56:43,66.0,24.0,44.1,12.84,-27.96,0.32083282,0.57462597,9.651321,-0.0034874296,-0.0031746665,0.0064598997,-0.05943562462925911,-0.03323013335466385,-1.2613201141357422,1015.2683,
2021.02.13 18:56:43,66.0,24.0,43.8,12.599999,-28.14,0.3040729,0.6488485,9.881172,-0.015704734,-1.2034045E-4,0.008903361,-0.06554005295038223,-0.030763249844312668,-1.2602711915969849,1015.2571,
2021.02.13 18:56:44,66.0,24.0,43.86,12.719999,-27.9,0.37829542,0.5794145,9.72315,-0.012650409,-7.312057E-4,-8.70483E-4,-0.05947594717144966,-0.038887061178684235,-1.263486385345459,1015.2571,
2021.02.13 18:56:44,66.0,24.0,43.92,12.719999,-27.84,0.2753416,0.6440599,9.703996,0.0013994923,-1.2034045E-4,-0.0027030788,-0.06624680757522583,-0.02836643159389496,-1.2580430507659912,1015.25415,
2021.02.13 18:56:44,66.0,24.0,43.62,12.719999,-27.9,0.29210153,0.6368771,9.73991,-0.010817813,0.00110139,-0.008811731,-0.0652661845088005,-0.029981179162859917,-1.2568796873092651,1015.2595,
2021.02.13 18:56:44,66.0,24.0,43.559998,12.9,-27.84,0.3423813,0.5770202,9.701602,0.017281989,-0.006839858,-0.003313944,-0.05936994403600693,-0.03527657315135002,-1.2571808099746704,1015.2595,
2021.02.13 18:56:44,66.0,24.0,43.379997,12.96,-27.9,0.30886146,0.6273,9.641745,-0.009596081,-0.006839858,-0.011255192,-0.064936064183712,-0.03202282264828682,-1.251045823097229,1015.26587,
2021.02.13 18:56:44,66.0,24.0,43.44,13.0199995,-27.9,0.2849187,0.60335726,9.62259,0.0044538183,-0.011115915,-0.0045356746,-0.06259282678365707,-0.029600707814097404,-1.2508853673934937,1015.26587,
2021.02.13 18:56:44,66.0,24.0,43.26,12.96,-28.56,0.30646718,0.6488485,9.749487,-4.3310347E-4,-0.0105050495,-0.0020922134,-0.06642135977745056,-0.03142383694648743,-1.248558759689331,1015.2654,
2021.02.13 18:56:44,66.0,24.0,43.079998,12.84,-28.74,0.31843856,0.6081458,9.759064,0.0026212228,-0.008061589,-0.0039248094,-0.06220249831676483,-0.032618459314107895,-1.2521454095840454,1015.2617,
2021.02.13 18:56:44,66.0,24.0,42.48,12.78,-28.859999,0.30167863,0.6368771,9.648928,-0.008985217,-0.009283319,-0.0063682706,-0.06587725877761841,-0.0312553271651268,-1.2467623949050903,1015.2617,
2021.02.13 18:56:44,66.0,24.0,42.12,12.719999,-29.099998,0.31365,0.6177229,9.751882,0.0044538183,-0.008672453,0.001572978,-0.0632268488407135,-0.03215194121003151,-1.2469100952148438,1015.2617,
2021.02.13 18:56:44,66.0,24.0,42.059998,12.9,-28.38,0.32083282,0.6249057,9.735122,-4.3310347E-4,-0.008672453,0.001572978,-0.06406821310520172,-0.032944295555353165,-1.2432582378387451,1015.2617,
2021.02.13 18:56:44,66.0,24.0,41.82,12.78,-28.68,0.2777359,0.56744313,9.620196,0.005064684,-0.004396397,0.0021838432,-0.05889182165265083,-0.02886206842958927,-1.2455859184265137,1015.2617,
2021.02.13 18:56:44,66.0,24.0,42.059998,12.66,-28.74,0.3304099,0.6249057,9.6585045,0.0038429531,-0.0025638016,0.00523817,-0.06457232683897018,-0.03419588506221771,-1.2478971481323242,1015.26733,
2021.02.13 18:56:44,66.0,24.0,42.36,12.96,-28.32,0.37590113,0.7110996,9.703996,-0.0010439687,-7.312057E-4,0.013790283,-0.07309368252754211,-0.03871737793087959,-1.2408310174942017,1015.26733,
2021.02.13 18:56:44,66.0,24.0,42.42,12.66,-28.619999,0.25858167,0.57462597,9.744699,-0.0065417555,-1.2034045E-4,0.0034055738,-0.05887918174266815,-0.026529399678111076,-1.251814842224121,1015.26465,
2021.02.13 18:56:44,66.0,24.0,42.719997,12.78,-28.32,0.3974496,0.6273,9.577099,0.01850372,-0.01172678,0.010735957,-0.0653504878282547,-0.04147620499134064,-1.2518045902252197,1015.26465,
2021.02.13 18:56:44,66.0,24.0,42.78,12.66,-28.38,0.27294734,0.600963,9.677659,0.0117842015,-0.001342071,0.007070765,-0.06199374794960022,-0.028196386992931366,-1.2532355785369873,1015.27246,
2021.02.13 18:56:45,66.0,24.0,42.54,12.42,-28.68,0.339987,0.6296943,9.701602,0.0026212228,-7.312057E-4,9.621128E-4,-0.06477565318346024,-0.03503008186817169,-1.2563695907592773,1015.26807,
2021.02.13 18:56:45,66.0,24.0,42.36,12.78,-28.56,0.2849187,0.58420306,9.6896305,0.0038429531,-0.0062289927,-0.0014813483,-0.06019272282719612,-0.029396025463938713,-1.2489296197891235,1015.26807,
2021.02.13 18:56:45,66.0,24.0,42.36,12.66,-28.74,0.41420954,0.6751855,9.584282,1.7776179E-4,-0.0050072623,-0.0045356746,-0.07026560604572296,-0.04319071024656296,-1.2491331100463867,1015.2676,
2021.02.13 18:56:45,66.0,24.0,42.36,13.139999,-28.98,0.3232271,0.63208854,9.747093,0.0013994923,-0.001342071,0.0034055738,-0.06472277641296387,-0.03314923867583275,-1.239460825920105,1015.2676,
2021.02.13 18:56:45,66.0,24.0,42.239998,13.08,-29.16,0.25858167,0.59378016,9.694419,0.0062864143,-0.007450723,-0.010033461,-0.061151571571826935,-0.026666928082704544,-1.239990472793579,1015.27,
2021.02.13 18:56:45,66.0,24.0,42.78,13.2,-29.46,0.36392978,0.6392714,9.692024,0.014227662,-0.013559376,-0.009422596,-0.06581684201955795,-0.037531778216362,-1.2411940097808838,1015.2666,
2021.02.13 18:56:45,66.0,24.0,42.84,13.259999,-29.46,0.3232271,0.66321415,9.699207,-0.0059308903,-0.004396397,-0.0069791353,-0.0682341530919075,-0.033312778919935226,-1.2379862070083618,1015.2666,
2021.02.13 18:56:45,66.0,24.0,42.54,12.9,-29.22,0.34716985,0.65363705,9.644139,0.005675549,-0.005618128,-0.0045356746,-0.0676284059882164,-0.03598247468471527,-1.2445241212844849,1015.27,
2021.02.13 18:56:45,66.0,24.0,42.48,12.78,-28.98,0.31604427,0.6344828,9.613013,1.7776179E-4,-0.0062289927,-0.003313944,-0.06587141007184982,-0.03286487236618996,-1.2470324039459229,1015.27,
2021.02.13 18:56:45,66.0,24.0,42.12,12.78,-29.039999,0.34956414,0.6105401,9.711179,0.0020103576,-0.014170242,-8.70483E-4,-0.06274665147066116,-0.03598052263259888,-1.2469505071640015,1015.27075,
2021.02.13 18:56:45,66.0,24.0,42.059998,12.719999,-28.92,0.3902668,0.6847626,9.682447,-0.0047091604,-0.006839858,-0.0014813483,-0.07054740190505981,-0.04028482362627983,-1.2446974515914917,1015.2622,
2021.02.13 18:56:45,66.0,24.0,42.36,12.9,-28.74,0.35435268,0.6440599,9.624985,-4.3310347E-4,-0.011115915,-0.011255192,-0.06677071005105972,-0.03679930046200752,-1.244476079940796,1015.2622,
2021.02.13 18:56:45,66.0,24.0,42.239998,13.0199995,-28.5,0.31365,0.64166564,9.701602,0.0026212228,-0.01294851,-0.008811731,-0.06600959599018097,-0.03231845796108246,-1.240704894065857,1015.2622,
2021.02.13 18:56:45,66.0,24.0,42.36,12.84,-28.439999,0.3974496,0.69194543,9.692024,0.009951605,-0.013559376,3.5124752E-4,-0.07121270149946213,-0.04098494350910187,-1.2447212934494019,1015.2622,
2021.02.13 18:56:45,66.0,24.0,42.12,12.78,-28.14,0.2849187,0.6344828,9.771035,0.010562471,-0.008061589,-0.011255192,-0.06481654942035675,-0.02915125899016857,-1.2451069355010986,1015.25464,
2021.02.13 18:56:45,66.0,24.0,42.059998,12.599999,-28.68,0.36632404,0.7039168,9.431048,0.02094718,-1.2034045E-4,0.004016439,-0.07444415986537933,-0.038822829723358154,-1.2449899911880493,1015.2583,
2021.02.13 18:56:45,66.0,24.0,42.36,12.84,-29.099998,0.34716985,0.63208854,9.703996,0.014838528,0.005988312,9.621128E-4,-0.06500358134508133,-0.03576071560382843,-1.2460236549377441,1015.2583,
2021.02.13 18:56:46,66.0,24.0,42.12,12.719999,-28.859999,0.35435268,0.6440599,9.591465,0.020336315,-0.008672453,0.016844608,-0.0670030415058136,-0.03692778944969177,-1.2462811470031738,1015.2593,
2021.02.13 18:56:46,66.0,24.0,42.42,12.78,-29.4,0.43096948,0.65363705,9.665688,0.008729876,-0.0019529362,0.013179418,-0.06745485216379166,-0.044558051973581314,-1.2482057809829712,1015.2593,
2021.02.13 18:56:46,66.0,24.0,42.54,12.48,-29.22,0.38308397,0.68715686,9.653716,-0.009596081,0.0047665816,0.010735957,-0.07100500166416168,-0.03966172784566879,-1.2522393465042114,1015.2605,
2021.02.13 18:56:46,66.0,24.0,42.42,12.42,-29.46,0.38068968,0.6296943,9.601042,-0.0010439687,0.0047665816,0.008292495,-0.06544096767902374,-0.039630111306905746,-1.2554538249969482,1015.2644,
2021.02.13 18:56:46,66.0,24.0,42.54,12.42,-29.699999,0.34956414,0.6560313,9.794978,-0.0114286775,0.0029339858,0.013790283,-0.0668339878320694,-0.03567295894026756,-1.2542369365692139,1015.2644,
2021.02.13 18:56:46,66.0,24.0,42.48,12.24,-29.699999,0.39266106,0.67757976,9.62259,-0.017537331,0.0017122553,0.010125091,-0.07024122774600983,-0.04078354686498642,-1.2569186687469482,1015.26685,
2021.02.13 18:56:46,66.0,24.0,42.239998,12.599999,-29.58,0.3974496,0.65842557,9.557945,-0.0065417555,-0.0050072623,0.005849035,-0.06871991604566574,-0.04155922308564186,-1.249011754989624,1015.26685,
2021.02.13 18:56:46,66.0,24.0,42.3,12.719999,-29.22,0.30167863,0.6057515,9.672871,-0.0016548339,4.905248E-4,0.0064598997,-0.06251177191734314,-0.031178010627627373,-1.248201608657837,1015.27124,
2021.02.13 18:56:46,66.0,24.0,42.239998,12.599999,-28.8,0.39505535,0.62251145,9.648928,-0.015704734,4.905248E-4,0.009514226,-0.06437305361032486,-0.04092007130384445,-1.2521001100540161,1015.27124,
2021.02.13 18:56:46,66.0,24.0,42.3,12.48,-28.859999,0.4285752,0.67279124,9.694419,-0.016926466,-7.312057E-4,0.011957687,-0.0692213624715805,-0.044179681688547134,-1.2531039714813232,1015.27124,
2021.02.13 18:56:46,66.0,24.0,42.36,12.48,-28.74,0.2753416,0.6488485,9.763853,-0.012039543,-0.0031746665,-0.011255192,-0.06633028388023376,-0.02819262444972992,-1.251275897026062,1015.2722,
2021.02.13 18:56:46,66.0,24.0,42.12,12.059999,-28.68,0.22506183,0.6249057,9.660899,-0.023035118,-0.0025638016,-0.013698653,-0.06457655876874924,-0.023291945457458496,-1.2582683563232422,1015.2722,
2021.02.13 18:56:46,66.0,24.0,42.18,12.12,-29.099998,0.44054657,0.69912827,9.821315,-0.0010439687,-0.008672453,0.013790283,-0.07099376618862152,-0.04482612386345863,-1.2586692571640015,1015.25903,
2021.02.13 18:56:46,66.0,24.0,42.059998,12.3,-28.619999,0.4189981,0.73743665,9.7135725,-0.010206947,-0.0050072623,0.013790283,-0.07570268958806992,-0.04310860112309456,-1.2517091035842896,1015.25903,
2021.02.13 18:56:46,66.0,24.0,42.0,12.54,-28.619999,0.24900457,0.6249057,9.569917,0.011173336,-0.0025638016,-0.0069791353,-0.06518439948558807,-0.02601364254951477,-1.2477314472198486,1015.25903,
2021.02.13 18:56:46,66.0,24.0,42.42,12.9,-28.439999,0.2753416,0.6153286,9.672871,0.005675549,-0.001342071,-0.008200866,-0.06350260227918625,-0.028457660228013992,-1.2449389696121216,1015.2612,
2021.02.13 18:56:47,66.0,24.0,42.36,13.139999,-28.439999,0.4189981,0.68236834,9.557945,0.015449394,-0.0019529362,0.0205098,-0.07120370119810104,-0.04380962252616882,-1.2392760515213013,1015.2612,
2021.02.13 18:56:47,66.0,24.0,42.239998,13.08,-28.98,0.29928434,0.6296943,9.680053,0.0032320882,0.0053774468,0.01806634,-0.06492824852466583,-0.03090778924524784,-1.2391562461853027,1015.2705,
2021.02.13 18:56:47,66.0,24.0,42.12,12.9,-28.98,0.3328042,0.64166564,9.684841,0.005064684,-1.2034045E-4,0.011346822,-0.06611903756856918,-0.034349896013736725,-1.2422446012496948,1015.2744,
2021.02.13 18:56:47,66.0,24.0,42.059998,12.78,-29.279999,0.37111259,0.600963,9.632168,0.005064684,-0.0050072623,0.013790283,-0.06226440519094467,-0.03850941359996796,-1.2471766471862793,1015.2744,
2021.02.13 18:56:47,66.0,24.0,42.0,12.9,-28.859999,0.39266106,0.6560313,9.591465,-0.0065417555,-0.0019529362,0.017455475,-0.06823407113552094,-0.04091574251651764,-1.2420299053192139,1015.2717,
2021.02.13 18:56:47,66.0,24.0,42.42,12.78,-28.56,0.29210153,0.6201172,9.660899,-0.013872139,-0.0025638016,0.0076816306,-0.06407121568918228,-0.03022622875869274,-1.2474192380905151,1015.2717,
2021.02.13 18:56:47,66.0,24.0,42.6,12.9,-28.74,0.37829542,0.6081458,9.629773,1.7776179E-4,-0.003785532,0.010735957,-0.06302042305469513,-0.03926374763250351,-1.2487865686416626,1015.2671,
2021.02.13 18:56:47,66.0,24.0,42.48,12.78,-28.5,0.3974496,0.6344828,9.591465,-0.009596081,-0.0050072623,0.007070765,-0.06599806249141693,-0.04141414538025856,-1.2496033906936646,1015.2666,
2021.02.13 18:56:47,66.0,24.0,42.66,12.3,-28.68,0.34716985,0.6057515,9.617802,-0.0016548339,-7.312057E-4,-0.0020922134,-0.06285841763019562,-0.036080922931432724,-1.2609670162200928,1015.2666,
2021.02.13 18:56:47,66.0,24.0,42.48,12.3,-28.439999,0.3423813,0.6177229,9.747093,-0.0163156,4.905248E-4,-0.011866057,-0.0632515400648117,-0.03511206805706024,-1.2595701217651367,1015.2539,
2021.02.13 18:56:47,66.0,24.0,42.42,12.24,-28.439999,0.3902668,0.63208854,9.545974,-0.0132612735,-1.2034045E-4,-0.011866057,-0.06606364995241165,-0.040860116481781006,-1.2602603435516357,1015.2539,
2021.02.13 18:56:47,66.0,24.0,42.54,12.12,-28.439999,0.339987,0.6081458,9.730332,-0.0077634864,0.00110139,-0.015531249,-0.0623808354139328,-0.03492673486471176,-1.2641528844833374,1015.2532,
2021.02.13 18:56:47,66.0,24.0,42.6,12.36,-28.619999,0.3040729,0.61293435,9.684841,-0.020591656,0.003544851,-0.021639902,-0.06317266821861267,-0.03138647601008415,-1.2580883502960205,1015.25684,
2021.02.13 18:56:47,66.0,24.0,42.54,12.599999,-28.68,0.30886146,0.5961744,9.565128,0.0044538183,-0.0031746665,-0.013087788,-0.06221504509449005,-0.03227914869785309,-1.2533743381500244,1015.25684,
2021.02.13 18:56:47,66.0,24.0,42.42,12.719999,-28.619999,0.339987,0.6392714,9.663293,0.0013994923,0.00110139,-0.01797471,-0.06601762771606445,-0.0351688452064991,-1.2487539052963257,1015.2571,
2021.02.13 18:56:47,66.0,24.0,42.3,12.78,-28.68,0.30886146,0.6081458,9.624985,-4.3310347E-4,-0.004396397,-0.011866057,-0.06306781619787216,-0.03207854554057121,-1.247455358505249,1015.2571,
2021.02.13 18:56:47,66.0,24.0,42.0,12.78,-28.68,0.2370332,0.5554718,9.72315,-0.0065417555,4.905248E-4,-0.014920384,-0.05704984813928604,-0.024373402819037437,-1.2467950582504272,1015.2639,
2021.02.13 18:56:48,66.0,24.0,42.18,12.78,-28.8,0.37590113,0.6057515,9.620196,0.008729876,-0.007450723,0.0021838432,-0.06283580511808395,-0.03905429691076279,-1.2483314275741577,1015.2671,
2021.02.13 18:56:48,66.0,24.0,42.18,12.78,-28.8,0.30646718,0.6057515,9.677659,-0.010206947,0.009653503,0.0027947086,-0.06247998774051666,-0.031656909734010696,-1.2467021942138672,1015.2671,
2021.02.13 18:56:48,66.0,24.0,42.12,12.9,-28.98,0.2561874,0.5243462,9.653716,1.7776179E-4,-0.003785532,-2.5961772E-4,-0.05424309894442558,-0.02653147280216217,-1.246953010559082,1015.2588,
2021.02.13 18:56:48,66.0,24.0,42.36,13.08,-28.8,0.339987,0.5818088,9.725544,-0.0034874296,-0.004396397,0.0034055738,-0.0597151517868042,-0.03494391590356827,-1.2440844774246216,1015.2588,
2021.02.13 18:56:48,66.0,24.0,42.239998,13.2,-28.68,0.33519846,0.5865973,9.510059,-0.008374351,-0.0019529362,0.005849035,-0.0615655891597271,-0.035232141613960266,-1.2399345636367798,1015.2551,
2021.02.13 18:56:48,66.0,24.0,41.879997,13.259999,-28.92,0.34477556,0.56265455,9.58907,-0.0028765644,-0.0025638016,0.0027947086,-0.05857169255614281,-0.035939574241638184,-1.2376824617385864,1015.25195,
2021.02.13 18:56:48,66.0,24.0,41.46,13.259999,-28.68,0.41420954,0.6201172,9.701602,-0.021202521,-0.003785532,3.5124752E-4,-0.06377427279949188,-0.04266904667019844,-1.233693242073059,1015.25195,
2021.02.13 18:56:48,66.0,24.0,41.46,13.139999,-28.56,0.25858167,0.5027977,9.766247,-0.0065417555,-0.0050072623,-0.0014813483,-0.051419805735349655,-0.026470892131328583,-1.2391304969787598,1015.2512,
2021.02.13 18:56:48,66.0,24.0,41.64,13.38,-28.74,0.44054657,0.5985687,9.517242,0.028888429,0.0023231206,-0.0014813483,-0.06274333596229553,-0.04625628888607025,-1.2339235544204712,1015.2512,
2021.02.13 18:56:48,66.0,24.0,41.82,13.2,-28.38,0.43336374,0.6488485,9.802161,0.02094718,0.010875233,0.017455475,-0.06603368371725082,-0.04418226704001427,-1.2370485067367554,1015.2532,
2021.02.13 18:56:48,66.0,24.0,42.36,13.2,-28.619999,0.4166038,0.6368771,9.778218,0.014838528,0.015151291,-0.036300667,-0.06498157232999802,-0.042579539120197296,-1.2408303022384644,1015.25244,
2021.02.13 18:56:48,66.0,24.0,42.18,13.0199995,-28.439999,0.49800915,0.5794145,10.393547,0.042327464,0.0041557164,-0.04729624,-0.055626191198825836,-0.047878604382276535,-1.2496790885925293,1015.25244,
2021.02.13 18:56:48,66.0,24.0,42.42,12.84,-28.32,0.45251793,0.94095,9.246689,-0.04991319,-0.032496195,-0.032024607,-0.10129126906394958,-0.04889936372637749,-1.2318629026412964,1015.2527,
