Time,X-cord,Y-cord,Mag_x,Mag_y,Mag_z,Acc_x,Acc_y,Acc_z,Gyro_x,Gyro_y,Gyro_z,Orn_x,Orn_y,Orn_z,Pressure,
2021.02.13 18:49:36,43.0,24.0,27.359999,8.16,-28.32,0.0670397,0.5961744,8.9976845,-0.11283231,-0.027609276,0.032727104,-0.06616011261940002,-0.0074506341479718685,-1.2228147983551025,1015.20386,
2021.02.13 18:49:36,43.0,24.0,27.48,7.74,-28.38,0.052674048,0.49800915,9.869201,-0.12688221,-0.03738312,0.010125091,-0.050417460501194,-0.005337164271622896,-1.2509154081344604,1015.20386,
2021.02.13 18:49:37,43.0,24.0,27.24,7.5,-28.199999,0.12689656,0.3040729,9.466963,-0.065184824,-0.016002836,0.026007587,-0.032105445861816406,-0.013403343968093395,-1.2758582830429077,1015.20215,
2021.02.13 18:49:37,43.0,24.0,27.359999,7.98,-28.08,0.1987248,0.43336374,9.675264,-0.07373693,-0.009283319,0.013179418,-0.04475155100226402,-0.02053658477962017,-1.2525126934051514,1015.20215,
2021.02.13 18:49:37,43.0,24.0,27.119999,8.34,-28.08,0.21548474,0.65363705,10.046377,-0.031587232,-0.028220143,-0.014920384,-0.06495549529790878,-0.021445710211992264,-1.2211207151412964,1015.19434,
2021.02.13 18:49:37,43.0,24.0,27.42,8.58,-28.08,-0.011971374,0.37111259,9.72315,0.014227662,-0.009894184,-0.04363105,-0.038149394094944,0.0012312231119722128,-1.2321343421936035,1015.209,
2021.02.13 18:49:37,43.0,24.0,27.18,8.639999,-28.32,0.07901107,0.27294734,9.562734,0.020336315,-0.007450723,-0.016752979,-0.028534093871712685,-0.008262205868959427,-1.23921799659729,1015.209,
2021.02.13 18:49:37,43.0,24.0,27.48,8.7,-28.32,0.011971374,0.24182175,9.577099,-0.0163156,0.024925135,-0.031413745,-0.025244614109396935,-0.0012499993899837136,-1.2412352561950684,1015.2031,
2021.02.13 18:49:37,43.0,24.0,27.539999,8.639999,-27.9,-0.026337024,0.38787252,9.620196,-0.04563713,0.037753303,3.5124752E-4,-0.040296584367752075,0.0027376736979931593,-1.2293366193771362,1015.2031,
2021.02.13 18:49:37,43.0,24.0,27.359999,8.4,-28.14,-0.045491222,0.36392978,10.091868,-0.034030695,0.024925135,0.016844608,-0.03604569658637047,0.004507679957896471,-1.238000750541687,1015.19604,
2021.02.13 18:49:37,43.0,24.0,27.779999,8.4,-28.019999,-0.05985687,0.2753416,9.72315,0.04416006,0.016983887,0.044333547,-0.02831004559993744,0.006156040821224451,-1.2492976188659668,1015.18774,
2021.02.13 18:49:37,43.0,24.0,27.24,8.5199995,-27.84,0.10774237,0.31125572,9.603436,0.029499294,0.02064908,0.0486096,-0.03239748999476433,-0.011218676343560219,-1.2417519092559814,1015.18774,
2021.02.13 18:49:37,43.0,24.0,27.48,8.58,-28.14,0.31843856,0.4932206,9.768641,0.0044538183,0.006599177,0.027229318,-0.0504206158220768,-0.03258650004863739,-1.233880639076233,1015.1858,
2021.02.13 18:49:37,43.0,24.0,27.599998,8.5199995,-27.66,0.16759923,0.4836435,9.421472,0.024001507,-0.003785532,-0.0063682706,-0.05128106102347374,-0.01778719387948513,-1.2318850755691528,1015.1858,
2021.02.13 18:49:37,43.0,24.0,27.66,8.76,-27.66,-0.04070267,0.31365,9.603436,0.005064684,-0.034939658,-0.0069791353,-0.03264828771352768,0.0042383186519145966,-1.2334048748016357,1015.1931,
2021.02.13 18:49:37,43.0,24.0,27.84,8.46,-27.9,0.11253092,-0.05027977,9.421472,-0.007152621,-0.04776783,0.0205098,0.00533629022538662,-0.011943522840738297,-1.2838588953018188,1015.1936,
2021.02.13 18:49:37,43.0,24.0,27.599998,8.28,-27.9,0.35674694,0.4740664,9.70639,-0.0865651,-0.02577668,0.026618455,-0.048768993467092514,-0.03673728555440903,-1.2476444244384766,1015.1936,
2021.02.13 18:49:37,43.0,24.0,27.18,8.7,-28.439999,0.22745611,1.0127783,9.75667,-0.081067316,0.0072100423,-0.030192014,-0.10340533405542374,-0.023308660835027695,-1.1783078908920288,1015.2009,
2021.02.13 18:49:38,43.0,24.0,27.0,8.5199995,-28.56,-0.46209505,0.2777359,10.348056,0.0038429531,-0.030052738,-0.056459222,-0.026806285604834557,0.04462560638785362,-1.223096251487732,1015.2009,
2021.02.13 18:49:38,43.0,24.0,26.88,8.94,-28.439999,-0.0047885496,0.12689656,9.505271,0.07959024,-0.024554951,0.023564126,-0.01334933191537857,5.037782830186188E-4,-1.236908197402954,1015.19946,
2021.02.13 18:49:38,43.0,24.0,26.82,9.059999,-28.26,0.5554718,0.5506832,9.510059,0.014227662,-0.016613703,0.03394884,-0.05774255469441414,-0.0583425797522068,-1.2143580913543701,1015.19165,
2021.02.13 18:49:38,43.0,24.0,27.24,8.7,-27.96,0.083799616,0.600963,9.809344,-0.0010439687,0.0029339858,-0.03874413,-0.06118563562631607,-0.008542628027498722,-1.2096376419067383,1015.19165,
2021.02.13 18:49:38,43.0,24.0,27.119999,8.46,-27.72,-0.22745611,0.24900457,9.529214,0.04660352,-0.016002836,-0.0063682706,-0.026117270812392235,0.02386481501162052,-1.2361466884613037,1015.19507,
2021.02.13 18:49:38,43.0,24.0,27.3,8.34,-27.66,0.17957062,0.46927786,9.502876,0.011173336,-0.0105050495,0.046777003,-0.0493338406085968,-0.018894199281930923,-1.2363009452819824,1015.19507,
2021.02.13 18:49:38,43.0,24.0,27.359999,7.9199996,-27.84,0.25858167,0.6057515,9.730332,-0.0077634864,-0.006839858,0.024174992,-0.06215181574225426,-0.026568548753857613,-1.2418594360351562,1015.1863,
2021.02.13 18:49:38,43.0,24.0,27.3,8.16,-27.96,-0.057462595,0.42618093,9.885961,0.00934074,-0.0123376455,0.004016439,-0.04308231174945831,0.005812480114400387,-1.23854398727417,1015.18994,
2021.02.13 18:49:38,43.0,24.0,27.24,8.04,-28.14,0.11253092,0.37829542,9.615408,0.0013994923,-0.016613703,0.028451048,-0.039319656789302826,-0.011702653020620346,-1.251064658164978,1015.18994,
2021.02.13 18:49:38,43.0,24.0,27.24,7.56,-28.019999,0.13168511,0.49082634,9.780613,-0.019980792,-0.008061589,0.028451048,-0.0501369945704937,-0.013463077135384083,-1.257827639579773,1015.1987,
2021.02.13 18:49:38,43.0,24.0,27.119999,7.7999997,-28.26,0.2849187,0.52674043,9.591465,0.016671123,-0.016002836,0.0205098,-0.05483837053179741,-0.029696708545088768,-1.2497965097427368,1015.1987,
2021.02.13 18:49:38,43.0,24.0,27.119999,7.68,-28.08,0.22745611,0.49082634,9.75667,0.005675549,-0.019057164,-0.0014813483,-0.050250742584466934,-0.023308660835027695,-1.2557724714279175,1015.19995,
2021.02.13 18:49:38,43.0,24.0,27.119999,7.9199996,-27.66,0.05506832,0.45970076,9.591465,0.02094718,-0.0123376455,-0.01797471,-0.04789067432284355,-0.005741324741393328,-1.2446047067642212,1015.20605,
2021.02.13 18:49:38,43.0,24.0,26.76,8.16,-28.08,0.102953814,0.44294083,9.629773,0.0032320882,0.00110139,-0.005757405,-0.04596199467778206,-0.01069079153239727,-1.2355117797851562,1015.20605,
2021.02.13 18:49:38,43.0,24.0,26.82,8.099999,-27.72,0.13886794,0.4932206,9.732727,0.02339064,-0.0050072623,0.004016439,-0.05062805116176605,-0.01426717545837164,-1.235809564590454,1015.20483,
2021.02.13 18:49:38,43.0,24.0,26.64,7.98,-27.779999,0.17238778,0.4764607,9.512454,-0.0022656992,-0.0050072623,9.621128E-4,-0.050038065761327744,-0.01812034100294113,-1.2394994497299194,1015.20483,
2021.02.13 18:49:38,43.0,24.0,26.76,8.04,-27.84,0.11253092,0.4836435,9.771035,0.0026212228,-0.0019529362,0.0027947086,-0.049454037100076675,-0.011516276746988297,-1.23697030544281,1015.2009,
2021.02.13 18:49:39,43.0,24.0,27.18,8.04,-27.599998,0.117319465,0.50758624,9.761458,0.045381792,-0.005618128,0.019898936,-0.05194848030805588,-0.012018062174320221,-1.2400659322738647,1015.1963,
2021.02.13 18:49:39,43.0,24.0,27.3,7.9199996,-27.84,0.24900457,0.55786604,9.452597,0.05943169,0.0072100423,0.03394884,-0.05892845615744591,-0.026336360722780228,-1.243860125541687,1015.1963,
2021.02.13 18:49:39,43.0,24.0,27.18,7.68,-28.14,0.30646718,0.600963,9.613013,-0.0114286775,-0.015391972,0.001572978,-0.06240269914269447,-0.03186965733766556,-1.2487014532089233,1015.197,
2021.02.13 18:49:39,43.0,24.0,27.3,7.5,-28.08,0.1987248,0.6656084,9.433443,0.02339064,-0.01172678,-0.0069791353,-0.07042606174945831,-0.02106287330389023,-1.2451351881027222,1015.197,
2021.02.13 18:49:39,43.0,24.0,27.42,7.5,-28.619999,0.10774237,0.45730647,9.644139,0.00934074,-0.016613703,-0.0069791353,-0.04737962782382965,-0.011171332560479641,-1.2625222206115723,1015.1929,
2021.02.13 18:49:39,43.0,24.0,27.119999,7.68,-28.56,0.25379312,0.59378016,9.553157,0.0020103576,-0.01172678,0.0076816306,-0.06205369532108307,-0.026560166850686073,-1.2457743883132935,1015.2019,
2021.02.13 18:49:39,43.0,24.0,27.24,7.9199996,-28.32,0.14844504,0.57462597,9.675264,-0.0028765644,-0.0050072623,-0.00514654,-0.05931459739804268,-0.015341533347964287,-1.2381525039672852,1015.2019,
2021.02.13 18:49:39,43.0,24.0,27.3,8.099999,-28.68,0.21069619,0.58420306,9.517242,0.011173336,-0.009283319,0.00523817,-0.06129174679517746,-0.022134749218821526,-1.233188271522522,1015.2046,
2021.02.13 18:49:39,43.0,24.0,27.18,8.4,-28.56,0.19393626,0.5411061,9.720756,-0.0065417555,-0.0062289927,-0.005757405,-0.055596593767404556,-0.019948093220591545,-1.226656198501587,1015.2046,
2021.02.13 18:49:39,43.0,24.0,27.3,8.28,-28.14,0.19633053,0.59378016,9.538791,0.0075081447,-0.0062289927,3.5124752E-4,-0.06215565279126167,-0.020579423755407333,-1.2270746231079102,1015.2029,
2021.02.13 18:49:39,43.0,24.0,27.119999,8.04,-28.08,0.20590763,0.52913475,9.730332,0.005675549,-0.0062289927,-0.003313944,-0.054314278066158295,-0.021158261224627495,-1.2398158311843872,1015.1968,
2021.02.13 18:49:39,43.0,24.0,26.939999,7.9199996,-27.9,0.1987248,0.5650489,9.6896305,-4.3310347E-4,-0.006839858,-0.003313944,-0.05823661386966705,-0.02050614356994629,-1.2383148670196533,1015.1968,
2021.02.13 18:49:39,43.0,24.0,27.0,7.7999997,-27.84,0.16759923,0.5458947,9.651321,0.0020103576,-0.0062289927,-8.70483E-4,-0.05649295449256897,-0.017363673076033592,-1.2433902025222778,1015.19556,
2021.02.13 18:49:39,43.0,24.0,26.939999,7.7999997,-28.32,0.19154198,0.56265455,9.701602,0.0026212228,-0.004396397,-2.5961772E-4,-0.05791989713907242,-0.019740771502256393,-1.2415162324905396,1015.19556,
2021.02.13 18:49:39,43.0,24.0,26.58,7.98,-28.859999,0.17717634,0.54350036,9.646533,1.7776179E-4,-0.0062289927,0.008292495,-0.05627255141735077,-0.01836477592587471,-1.231629490852356,1015.1987,
2021.02.13 18:49:39,43.0,24.0,26.82,7.8599997,-28.859999,0.2753416,0.600963,9.61062,0.0020103576,0.0023231206,0.005849035,-0.06242427974939346,-0.02864188887178898,-1.2365732192993164,1015.20337,
2021.02.13 18:49:39,43.0,24.0,26.519999,7.98,-28.68,0.22506183,0.5985687,9.675264,0.014227662,-0.005618128,-2.5961772E-4,-0.06177046522498131,-0.02325737476348877,-1.2281112670898438,1015.20337,
2021.02.13 18:49:40,43.0,24.0,26.58,7.68,-28.439999,0.14126222,0.51955765,9.620196,0.011173336,-0.0031746665,-0.0039248094,-0.05394874885678291,-0.01468286756426096,-1.242958903312683,1015.209,
2021.02.13 18:49:40,43.0,24.0,27.06,7.7999997,-27.96,0.2370332,0.6201172,9.727939,1.7776179E-4,0.012096965,0.008292495,-0.0636410340666771,-0.02436141110956669,-1.2401282787322998,1015.209,
2021.02.13 18:49:40,43.0,24.0,26.88,7.56,-27.72,0.21787901,0.5650489,9.603436,0.011173336,0.006599177,0.007070765,-0.058755356818437576,-0.02268371731042862,-1.2499878406524658,1015.2046,
2021.02.13 18:49:40,43.0,24.0,26.939999,7.02,-27.84,0.13886794,0.5458947,9.680053,0.005675549,4.905248E-4,-0.0014813483,-0.056328319013118744,-0.014344800263643265,-1.267524242401123,1015.2012,
2021.02.13 18:49:40,43.0,24.0,26.82,7.08,-27.779999,0.18196489,0.5865973,9.644139,0.005064684,4.905248E-4,0.007070765,-0.06073860079050064,-0.018865684047341347,-1.2619682550430298,1015.2012,
2021.02.13 18:49:40,43.0,24.0,27.119999,7.2,-28.019999,0.19154198,0.59378016,9.663293,0.0020103576,0.00110139,0.004016439,-0.06135779619216919,-0.01981901004910469,-1.2605382204055786,1015.2029,
2021.02.13 18:49:40,43.0,24.0,26.939999,7.2599998,-28.199999,0.15562786,0.5818088,9.680053,0.0026212228,-0.0019529362,0.004627304,-0.06002392619848251,-0.01607578434050083,-1.256211519241333,1015.2029,
2021.02.13 18:49:40,43.0,24.0,27.0,7.62,-28.08,0.17478207,0.5650489,9.656111,-0.004098295,-0.003785532,0.012568552,-0.05844102054834366,-0.01809869147837162,-1.247399091720581,1015.2029,
2021.02.13 18:49:40,43.0,24.0,26.939999,8.16,-27.779999,0.16520496,0.6105401,9.680053,-4.3310347E-4,-0.0031746665,0.013790283,-0.06297939270734787,-0.017064876854419708,-1.2253891229629517,1015.2031,
2021.02.13 18:49:40,43.0,24.0,26.88,7.98,-27.9,0.19633053,0.58420306,9.735122,-0.0059308903,-0.008672453,0.010735957,-0.05992580205202103,-0.020164506509900093,-1.2340947389602661,1015.2031,
2021.02.13 18:49:40,43.0,24.0,27.24,8.099999,-28.199999,0.16281068,0.56744313,9.677659,-0.0047091604,-0.005618128,0.008903361,-0.05855901539325714,-0.016821766272187233,-1.233773946762085,1015.1992,
2021.02.13 18:49:40,43.0,24.0,27.359999,7.68,-28.08,0.17478207,0.5913859,9.687236,-0.013872139,-0.0050072623,0.013179418,-0.060962382704019547,-0.018040554597973824,-1.2471481561660767,1015.1992,
2021.02.13 18:49:40,43.0,24.0,27.359999,7.3799996,-28.68,0.18914771,0.5818088,9.6896305,1.7776179E-4,-0.003785532,0.004627304,-0.05996108055114746,-0.019518153741955757,-1.2571853399276733,1015.19775,
2021.02.13 18:49:40,43.0,24.0,27.119999,7.74,-28.74,0.16520496,0.5818088,9.718362,-0.018148195,0.0029339858,0.0021838432,-0.059786971658468246,-0.016997622326016426,-1.2420814037322998,1015.1909,
2021.02.13 18:49:40,43.0,24.0,26.58,7.68,-28.32,0.13168511,0.5554718,9.75667,0.009951605,-0.014170242,0.024174992,-0.056865956634283066,-0.013496112078428268,-1.240058422088623,1015.1909,
2021.02.13 18:49:40,43.0,24.0,26.88,7.9199996,-28.68,0.23224466,0.5698374,9.636956,0.0013994923,-0.015391972,0.026618455,-0.05904456228017807,-0.0240947138518095,-1.2369427680969238,1015.1987,
2021.02.13 18:49:41,43.0,24.0,26.939999,8.04,-28.56,0.21787901,0.54828894,9.711179,-0.0047091604,0.00110139,0.009514226,-0.05638553202152252,-0.02243213541805744,-1.2356913089752197,1015.1987,
2021.02.13 18:49:41,43.0,24.0,26.939999,7.68,-28.32,0.18675344,0.53392327,9.675264,-0.008985217,-7.312057E-4,0.012568552,-0.055118195712566376,-0.019299756735563278,-1.2477672100067139,1015.1987,
2021.02.13 18:49:41,43.0,24.0,27.06,7.74,-28.56,0.14126222,0.531529,9.737515,-0.009596081,4.905248E-4,0.022342395,-0.05452585220336914,-0.014505990780889988,-1.245567798614502,1015.19824,
2021.02.13 18:49:41,43.0,24.0,26.519999,7.8599997,-28.38,0.24182175,0.56265455,9.696813,-0.004098295,-0.005618128,0.028451048,-0.05794172361493111,-0.0249331034719944,-1.2365872859954834,1015.19824,
2021.02.13 18:49:41,43.0,24.0,26.46,7.62,-28.56,0.2777359,0.56265455,9.636956,-0.0053200256,-0.0025638016,0.015012014,-0.05829473212361336,-0.028811901807785034,-1.2445868253707886,1015.20215,
2021.02.13 18:49:41,43.0,24.0,26.519999,7.5,-28.619999,0.1987248,0.5650489,9.675264,-0.0022656992,-0.0050072623,0.008903361,-0.05832285061478615,-0.02053658291697502,-1.2460811138153076,1015.20215,
2021.02.13 18:49:41,43.0,24.0,26.88,7.3799996,-28.74,0.20351335,0.50040346,9.574705,0.0038429531,-0.005618128,0.015622879,-0.052203793078660965,-0.021252112463116646,-1.2596298456192017,1015.2041,
2021.02.13 18:49:41,43.0,24.0,27.119999,7.2,-28.74,0.21309046,0.5650489,9.569917,-0.0022656992,-0.0019529362,0.016844608,-0.058961234986782074,-0.022263020277023315,-1.2622679471969604,1015.20435,
2021.02.13 18:49:41,43.0,24.0,27.119999,7.14,-28.56,0.21787901,0.55786604,9.751882,-0.0065417555,0.0029339858,0.010735957,-0.05712948366999626,-0.022338537499308586,-1.2662103176116943,1015.20435,
2021.02.13 18:49:41,43.0,24.0,27.3,7.14,-28.56,0.20351335,0.53392327,9.799767,-0.008374351,-1.2034045E-4,0.004627304,-0.054417744278907776,-0.020764177665114403,-1.2699724435806274,1015.20776,
2021.02.13 18:49:41,43.0,24.0,27.3,7.56,-28.08,0.21548474,0.5219519,9.555551,0.008729876,-0.006839858,0.013179418,-0.054554831236600876,-0.02254691906273365,-1.2575379610061646,1015.20776,
2021.02.13 18:49:41,43.0,24.0,27.42,7.3199997,-28.32,0.22506183,0.4956149,9.675264,-0.0077634864,-0.0031746665,0.007070765,-0.051166389137506485,-0.02325737476348877,-1.2694189548492432,1015.2063,
2021.02.13 18:49:41,43.0,24.0,27.359999,7.68,-28.38,0.18196489,0.50998056,9.656111,0.015449394,-0.0019529362,0.004627304,-0.05275590717792511,-0.01884230226278305,-1.2541606426239014,1015.20654,
2021.02.13 18:49:41,43.0,24.0,27.42,7.74,-28.439999,0.1987248,0.5027977,9.744699,-0.0059308903,0.0023231206,0.001572978,-0.051540642976760864,-0.02039029449224472,-1.2543792724609375,1015.20654,
2021.02.13 18:49:41,43.0,24.0,27.3,7.3799996,-28.32,0.19633053,0.5506832,9.617802,0.010562471,-7.312057E-4,0.007070765,-0.05718233063817024,-0.020410409197211266,-1.259950041770935,1015.21826,
2021.02.13 18:49:41,43.0,24.0,27.24,7.44,-27.9,0.14126222,0.4860378,9.703996,-0.0053200256,0.0017122553,-0.0020922134,-0.050039246678352356,-0.014556091278791428,-1.2623937129974365,1015.21826,
2021.02.13 18:49:41,43.0,24.0,27.539999,7.3199997,-27.9,0.15323359,0.505192,9.574705,1.7776179E-4,0.0047665816,0.013790283,-0.05270756781101227,-0.016002634540200233,-1.2675330638885498,1015.2085,
2021.02.13 18:49:42,43.0,24.0,27.539999,7.56,-27.72,0.24182175,0.5363176,9.7135725,-0.012650409,0.003544851,0.010735957,-0.055140163749456406,-0.024890102446079254,-1.2608639001846313,1015.2075,
2021.02.13 18:49:42,43.0,24.0,27.72,7.7999997,-27.96,0.23224466,0.5506832,9.6896305,-0.0077634864,0.0017122553,-0.008200866,-0.056754883378744125,-0.02396378293633461,-1.253025770187378,1015.2075,
2021.02.13 18:49:42,43.0,24.0,27.359999,7.8599997,-28.26,0.1699935,0.5506832,9.701602,-0.0010439687,-0.001342071,-0.011866057,-0.056692562997341156,-0.017520416527986526,-1.2446056604385376,1015.20605,
2021.02.13 18:49:42,43.0,24.0,27.06,7.8599997,-28.439999,0.10055954,0.48124924,9.613013,0.0062864143,-7.312057E-4,-0.0039248094,-0.05001777783036232,-0.010460390709340572,-1.2444736957550049,1015.20605,
2021.02.13 18:49:42,43.0,24.0,26.82,7.44,-28.619999,0.16520496,0.5027977,9.632168,-0.0053200256,0.0047665816,0.004627304,-0.052144862711429596,-0.01714969612658024,-1.255813479423523,1015.2097,
2021.02.13 18:49:42,43.0,24.0,26.64,7.56,-28.68,0.2561874,0.55307746,9.613013,-0.0053200256,0.005988312,0.0021838432,-0.05745053291320801,-0.02664375677704811,-1.248341679573059,1015.2041,
2021.02.13 18:49:42,43.0,24.0,26.82,7.62,-28.68,0.098165266,0.5027977,9.771035,-0.019980792,0.008431774,-0.013087788,-0.051410041749477386,-0.010046219453215599,-1.2479102611541748,1015.2041,
2021.02.13 18:49:42,43.0,24.0,26.76,7.74,-28.68,0.10774237,0.46209505,9.58907,0.006897279,0.0047665816,9.621128E-4,-0.048149481415748596,-0.01123548299074173,-1.246720552444458,1015.2053,
2021.02.13 18:49:42,43.0,24.0,27.359999,8.22,-28.199999,0.13168511,0.51955765,9.61062,0.0020103576,0.005988312,0.0021838432,-0.05400315299630165,-0.013701184652745724,-1.2341387271881104,1015.2053,
2021.02.13 18:49:42,43.0,24.0,27.359999,7.8599997,-28.199999,0.22266756,0.5602603,9.696813,-0.0047091604,-7.312057E-4,0.0034055738,-0.05769843980669975,-0.02295892871916294,-1.2457363605499268,1015.19727,
2021.02.13 18:49:42,43.0,24.0,27.42,7.9199996,-28.5,0.14844504,0.44772938,9.8237095,-0.0016548339,-0.007450723,-0.008200866,-0.045539695769548416,-0.015109744854271412,-1.2520312070846558,1015.2053,
2021.02.13 18:49:42,43.0,24.0,27.84,7.8599997,-28.32,0.16520496,0.505192,9.574705,0.005064684,-0.008061589,0.00523817,-0.05270647630095482,-0.0172526016831398,-1.2530534267425537,1015.2053,
2021.02.13 18:49:42,43.0,24.0,27.359999,7.44,-28.619999,0.15083931,0.52674043,9.694419,-0.007152621,-0.0025638016,-0.003313944,-0.05427446588873863,-0.01555814128369093,-1.2590810060501099,1015.2068,
2021.02.13 18:49:42,43.0,24.0,27.42,7.68,-28.32,0.17717634,0.4668836,9.682447,0.0032320882,-0.0062289927,3.5124752E-4,-0.048174213618040085,-0.01829667203128338,-1.2587655782699585,1015.2068,
2021.02.13 18:49:42,43.0,24.0,27.42,7.7999997,-28.32,0.18435916,0.5027977,9.682447,-0.0053200256,-0.0050072623,-0.0014813483,-0.05187279358506203,-0.019038252532482147,-1.2518655061721802,1015.2097,
2021.02.13 18:49:42,43.0,24.0,27.06,7.56,-28.5,0.15323359,0.50040346,9.763853,-0.0010439687,-0.0050072623,-0.0063682706,-0.05119951814413071,-0.015692677348852158,-1.2549878358840942,1015.2031,
2021.02.13 18:49:42,43.0,24.0,26.82,7.7999997,-28.5,0.23942748,0.50758624,9.5483675,0.00934074,-0.004396397,-0.0039248094,-0.0530928298830986,-0.02506997436285019,-1.2461073398590088,1015.2031,
2021.02.13 18:49:43,43.0,24.0,26.64,7.74,-28.68,0.09337672,0.45012367,9.696813,0.016671123,-1.2034045E-4,-0.013087788,-0.046384308487176895,-0.009629332460463047,-1.2464431524276733,1015.2041,
2021.02.13 18:49:43,43.0,24.0,26.76,7.74,-28.38,0.19154198,0.49082634,9.500483,0.015449394,0.015762156,0.011957687,-0.05160694569349289,-0.0201585590839386,-1.2471811771392822,1015.2041,
2021.02.13 18:49:43,43.0,24.0,27.0,8.099999,-27.96,0.20111908,0.53392327,9.6585045,-0.0059308903,0.0145404255,-0.0027030788,-0.05521196871995926,-0.020819993689656258,-1.235816478729248,1015.19556,
2021.02.13 18:49:43,43.0,24.0,27.3,7.7999997,-28.14,0.05506832,0.50040346,9.792584,0.0013994923,-0.001342071,-0.014920384,-0.05105502903461456,-0.0056234123185276985,-1.246902346611023,1015.2041,
2021.02.13 18:49:43,43.0,24.0,27.0,7.8599997,-28.14,0.13886794,0.5027977,9.498088,0.0136167975,-0.007450723,0.0027947086,-0.052881721407175064,-0.014619579538702965,-1.243172287940979,1015.2041,
2021.02.13 18:49:43,43.0,24.0,27.0,7.8599997,-27.96,0.12689656,0.51716334,9.818921,-0.019369926,-7.312057E-4,0.0021838432,-0.052617065608501434,-0.012922956608235836,-1.2430884838104248,1015.20435,
2021.02.13 18:49:43,43.0,24.0,27.06,7.68,-28.08,0.20351335,0.5865973,9.498088,0.013005932,-0.004396397,0.007070765,-0.061667051166296005,-0.021423492580652237,-1.244452714920044,1015.20435,
2021.02.13 18:49:43,43.0,24.0,26.88,8.04,-27.96,0.12929083,0.43815228,9.720756,-0.008374351,0.0029339858,-0.011255192,-0.045039426535367966,-0.01329970732331276,-1.2427388429641724,1015.2051,
2021.02.13 18:49:43,43.0,24.0,27.48,8.22,-28.08,-0.18675344,0.3974496,8.480521,-0.0010439687,-0.007450723,-0.0039248094,-0.04682057350873947,0.02201789990067482,-1.229024052619934,1015.197,
2021.02.13 18:49:43,43.0,24.0,27.06,7.9199996,-28.32,0.19633053,0.4644893,10.391152,-0.028532906,0.011486099,-0.012476923,-0.04466276243329048,-0.01889176107943058,-1.2504568099975586,1015.197,
