Time,X-cord,Y-cord,Mag_x,Mag_y,Mag_z,Acc_x,Acc_y,Acc_z,Gyro_x,Gyro_y,Gyro_z,Orn_x,Orn_y,Orn_z,Pressure,
2021.02.13 18:53:32,50.0,23.0,0.17999999,24.0,-28.92,0.15802214,0.84278476,9.680053,0.012395066,0.11716579,-0.005757405,-0.08683356642723083,-0.016323061659932137,-0.024676693603396416,1015.2512,
2021.02.13 18:53:32,50.0,23.0,-0.06,24.06,-29.46,0.12210801,0.818842,10.0368,-0.051134918,0.003544851,0.03211624,-0.08139768242835999,-0.012165430001914501,-0.011312615126371384,1015.24927,
2021.02.13 18:53:32,50.0,23.0,0.24,24.0,-29.46,0.15562786,0.7948992,9.651321,-0.009596081,-7.312057E-4,0.040057488,-0.08216559141874313,-0.016123633831739426,-0.027140317484736443,1015.25073,
2021.02.13 18:53:32,50.0,23.0,0.35999998,24.06,-29.4,0.026337024,0.72546524,9.378374,0.011173336,-7.312057E-4,0.050442196,-0.07720107585191727,-0.0028082644566893578,-0.016854222863912582,1015.25073,
2021.02.13 18:53:32,50.0,23.0,0.29999998,24.0,-28.619999,0.28731298,0.8332076,9.73991,-0.0163156,-0.014781106,0.07182248,-0.08530102670192719,-0.029489975422620773,-0.04338004067540169,1015.24927,
2021.02.13 18:53:32,50.0,23.0,0.24,23.76,-28.92,0.4764607,0.8786988,9.641745,-0.013872139,-0.030052738,0.08465065,-0.09077361971139908,-0.04937627539038658,-0.06335203349590302,1015.24927,
2021.02.13 18:53:32,50.0,23.0,-0.12,24.06,-29.039999,0.21787901,0.72546524,9.730332,-0.023035118,-0.018446298,0.050442196,-0.07440081983804703,-0.022387992590665817,-0.02026829496026039,1015.2478,
2021.02.13 18:53:32,50.0,23.0,-0.06,24.119999,-29.039999,0.19633053,0.5865973,9.416683,0.035607945,-0.031274468,-0.018585576,-0.06219954043626785,-0.020846202969551086,-0.021070368587970734,1015.2488,
2021.02.13 18:53:32,50.0,23.0,0.17999999,24.3,-29.22,0.34477556,0.90024734,9.907509,-0.0022656992,-0.014170242,-0.0069791353,-0.09056179225444794,-0.03478538244962692,-0.044533759355545044,1015.2488,
2021.02.13 18:53:32,50.0,23.0,0.53999996,24.359999,-28.859999,0.12689656,0.749408,9.850046,0.0032320882,-0.005618128,-0.024083363,-0.07592911273241043,-0.012882126495242119,-0.0344192236661911,1015.24854,
2021.02.13 18:53:32,50.0,23.0,0.78,24.359999,-28.619999,0.16520496,0.52913475,9.514848,0.03133189,-0.008061589,-0.025305092,-0.05554590001702309,-0.017361115664243698,-0.04923519119620323,1015.24854,
2021.02.13 18:53:32,50.0,23.0,0.71999997,24.3,-28.98,0.36392978,0.64166564,9.541185,0.009951605,-0.0050072623,0.010735957,-0.06710242480039597,-0.038124553859233856,-0.06954748183488846,1015.2412,
2021.02.13 18:53:32,50.0,23.0,0.53999996,24.359999,-29.519999,0.24421602,0.5219519,9.974549,-0.0034874296,-0.008061589,-0.008200866,-0.05226505175232887,-0.02447902411222458,-0.048762887716293335,1015.2434,
2021.02.13 18:53:32,50.0,23.0,0.35999998,24.72,-29.4,-0.016759925,0.5818088,9.794978,-0.0303655,-0.015391972,-0.036911532,-0.05932888388633728,0.0017110714688897133,-0.01172151044011116,1015.2434,
2021.02.13 18:53:32,50.0,23.0,0.24,24.72,-29.82,0.0047885496,0.66800267,9.593859,-0.020591656,-0.007450723,-0.033857204,-0.06951595097780228,-4.991265013813972E-4,-0.00953464675694704,1015.2446,
2021.02.13 18:53:32,50.0,23.0,0.12,24.84,-29.22,-0.08619389,0.6081458,9.536397,-0.0114286775,-0.005618128,-0.0039248094,-0.0636821910738945,0.0090381670743227,0.005407113581895828,1015.2446,
2021.02.13 18:53:32,50.0,23.0,0.48,24.48,-28.68,0.035914123,0.54828894,9.62259,-0.024256848,-0.0050072623,0.0064598997,-0.05691741406917572,-0.003732254495844245,-0.022512417286634445,1015.25415,
2021.02.13 18:53:33,50.0,23.0,0.0,24.42,-28.56,0.16281068,0.46209505,9.632168,-0.0163156,-0.016002836,0.043722678,-0.047930557280778885,-0.016901198774576187,-0.01873510517179966,1015.25586,
2021.02.13 18:53:33,50.0,23.0,0.06,24.18,-28.38,0.14365649,0.65363705,9.110215,-0.031587232,-0.01172678,0.036392298,-0.07161609828472137,-0.015767419710755348,-0.019404212012887,1015.25586,
2021.02.13 18:53:33,50.0,23.0,0.24,24.119999,-28.8,0.047885496,0.8044763,10.082292,-0.10183673,0.034088112,0.03761403,-0.07962144166231155,-0.004749429877847433,-0.014306697063148022,1015.2566,
2021.02.13 18:53:33,50.0,23.0,0.0,24.48,-28.5,0.09337672,0.6440599,10.1541195,-0.11771923,0.027979461,0.00523817,-0.06334090977907181,-0.00919568445533514,-0.009989182464778423,1015.2566,
2021.02.13 18:53:33,50.0,23.0,0.42,24.42,-28.74,0.32083282,0.6153286,9.349643,0.02094718,-0.003785532,0.03761403,-0.06567974388599396,-0.0343015231192112,-0.0534842312335968,1015.2529,
2021.02.13 18:53:33,50.0,23.0,0.59999996,24.779999,-28.199999,0.27055305,0.55786604,9.787795,0.038051408,-0.009283319,0.036392298,-0.05691279470920563,-0.027634842321276665,-0.052300360053777695,1015.24805,
2021.02.13 18:53:33,50.0,23.0,0.42,25.26,-27.84,0.12210801,0.5794145,9.651321,0.005064684,-0.0123376455,-0.012476923,-0.05995798110961914,-0.012651273049414158,-0.028716053813695908,1015.24805,
2021.02.13 18:53:33,50.0,23.0,0.59999996,25.5,-28.08,0.17957062,0.6081458,9.77343,-0.008374351,-0.016613703,-0.022250766,-0.06213381886482239,-0.018371280282735825,-0.04100662097334862,1015.2527,
2021.02.13 18:53:33,50.0,23.0,0.71999997,25.74,-27.84,0.23224466,0.6177229,9.318518,0.015449394,-0.02944187,-0.003313944,-0.06617249548435211,-0.024917759001255035,-0.0513092502951622,1015.2527,
2021.02.13 18:53:33,50.0,23.0,0.29999998,25.68,-27.96,0.05985687,0.5698374,9.780613,0.04049487,-0.028220143,-0.009422596,-0.058195050805807114,-0.006119874306023121,-0.01727854274213314,1015.2532,
2021.02.13 18:53:33,50.0,23.0,0.35999998,25.56,-27.84,0.24900457,0.66321415,9.562734,-0.012650409,-0.030663602,-0.023472497,-0.06921976804733276,-0.026033174246549606,-0.039528634399175644,1015.25244,
2021.02.13 18:53:33,50.0,23.0,0.42,25.08,-27.48,0.18196489,0.6847626,9.883567,0.0026212228,-0.020889759,-0.0014813483,-0.06916071474552155,-0.018408771604299545,-0.0343785360455513,1015.25244,
2021.02.13 18:53:33,50.0,23.0,0.53999996,25.199999,-27.48,0.13886794,0.63208854,9.404712,0.029499294,-0.034328792,-0.014920384,-0.06710154563188553,-0.014764710329473019,-0.03502945229411125,1015.25244,
2021.02.13 18:53:33,50.0,23.0,0.84,25.26,-27.48,0.105348095,0.61293435,9.763853,0.036829676,-0.036772255,-0.005757405,-0.06268996000289917,-0.010789183899760246,-0.042172420769929886,1015.25244,
2021.02.13 18:53:33,50.0,23.0,0.78,25.019999,-27.779999,0.31843856,0.62251145,9.62259,0.02216891,-0.04410264,0.014401148,-0.0645674392580986,-0.03308073803782463,-0.06338796019554138,1015.2527,
2021.02.13 18:53:33,50.0,23.0,0.29999998,25.38,-27.9,0.409421,0.6464542,9.447808,0.05026871,-0.043491773,0.03822489,-0.06825338304042816,-0.04330792650580406,-0.055328305810689926,1015.25757,
2021.02.13 18:53:33,50.0,23.0,0.12,25.199999,-27.779999,0.28252444,0.6656084,9.711179,0.017281989,-0.04410264,0.008292495,-0.06840455532073975,-0.029084498062729836,-0.034300271421670914,1015.25757,
2021.02.13 18:53:34,50.0,23.0,0.06,24.9,-27.96,0.35914123,0.7039168,9.569917,-0.010206947,-0.05631994,-2.5961772E-4,-0.07337146997451782,-0.03751054406166077,-0.04121415689587593,1015.26294,
2021.02.13 18:53:34,50.0,23.0,-0.12,24.9,-27.779999,0.2849187,0.69912827,9.656111,0.0026212228,-0.05021129,-0.008200866,-0.07224522531032562,-0.029498010873794556,-0.026052117347717285,1015.26294,
2021.02.13 18:53:34,50.0,23.0,-0.06,24.42,-27.9,0.43815228,0.7110996,9.701602,-0.0034874296,-0.039215717,0.00523817,-0.07309205085039139,-0.04513221234083176,-0.04539529234170914,1015.2656,
2021.02.13 18:53:34,50.0,23.0,0.06,24.539999,-28.08,0.44294083,0.70870537,10.08708,0.0013994923,-0.025165815,-2.5961772E-4,-0.07007615268230438,-0.04388350620865822,-0.04881175979971886,1015.2593,
2021.02.13 18:53:34,50.0,23.0,0.06,24.42,-27.96,0.50998056,0.7541966,9.687236,-0.0010439687,-0.0019529362,-0.011866057,-0.0775909274816513,-0.05259603634476662,-0.05764231085777283,1015.2593,
2021.02.13 18:53:34,50.0,23.0,-0.17999999,24.6,-28.26,0.42618093,0.68236834,9.696813,0.0038429531,-0.014170242,-0.011866057,-0.0701870322227478,-0.04392235353589058,-0.03998708352446556,1015.26196,
2021.02.13 18:53:34,50.0,23.0,-0.17999999,24.84,-28.199999,0.3519584,0.65842557,9.474146,0.03255362,-0.008672453,-0.010033461,-0.06933784484863281,-0.037132278084754944,-0.03242074325680733,1015.26196,
2021.02.13 18:53:34,50.0,23.0,-0.29999998,24.66,-28.5,0.5123748,0.7685622,9.727939,0.005675549,-0.003785532,0.0021838432,-0.07873320579528809,-0.05262181535363197,-0.04468672350049019,1015.2749,
2021.02.13 18:53:34,50.0,23.0,-0.42,24.42,-28.68,0.36392978,0.7110996,9.675264,-0.0077634864,-1.2034045E-4,-0.005757405,-0.07331308722496033,-0.03759672865271568,-0.024879448115825653,1015.2737,
2021.02.13 18:53:34,50.0,23.0,-0.17999999,24.24,-28.8,0.43096948,0.6464542,9.711179,0.009951605,-0.0025638016,-0.0020922134,-0.0664048120379448,-0.04434959962964058,-0.042012933641672134,1015.2737,
2021.02.13 18:53:34,50.0,23.0,0.06,23.88,-28.38,0.42618093,0.6656084,9.75667,7.88627E-4,0.00110139,0.008903361,-0.06805063039064407,-0.04365323483943939,-0.05037684738636017,1015.2637,
2021.02.13 18:53:34,50.0,23.0,-0.12,23.88,-28.56,0.3423813,0.7206767,9.62259,-0.012650409,-0.001342071,0.0021838432,-0.07470759749412537,-0.03556598722934723,-0.034507788717746735,1015.2637,
2021.02.13 18:53:34,50.0,23.0,-0.35999998,24.0,-28.859999,0.38547826,0.70631105,9.737515,-0.0053200256,-0.008672453,0.013179418,-0.07235175371170044,-0.03956625983119011,-0.03003632090985775,1015.2656,
2021.02.13 18:53:34,50.0,23.0,-0.12,24.0,-28.68,0.32083282,0.5865973,9.629773,0.055766497,-0.019668028,0.025396723,-0.060806140303611755,-0.03330444172024727,-0.03248405084013939,1015.2551,
2021.02.13 18:53:34,50.0,23.0,-0.17999999,24.18,-29.22,0.52674043,0.82602483,9.641745,0.028277563,0.0127078295,0.016233744,-0.08533640205860138,-0.05457698553800583,-0.05315660312771797,1015.2551,
2021.02.13 18:53:34,50.0,23.0,0.29999998,24.18,-29.34,0.35914123,0.80208206,9.730332,-0.02914377,0.0053774468,0.0021838432,-0.08218944817781448,-0.03689270466566086,-0.05209413543343544,1015.2422,
2021.02.13 18:53:35,50.0,23.0,0.35999998,24.18,-28.92,0.35674694,0.70631105,9.859624,0.02216891,-0.014781106,0.0021838432,-0.07146794348955154,-0.03616683557629585,-0.05363159254193306,1015.2422,
2021.02.13 18:53:35,50.0,23.0,0.12,24.0,-28.98,0.4932206,0.7829279,9.361614,0.012395066,0.0047665816,-2.5961772E-4,-0.08332253247499466,-0.052636757493019104,-0.06239023059606552,1015.24,
2021.02.13 18:53:35,50.0,23.0,0.0,24.0,-29.099998,0.5698374,0.83081335,9.555551,0.017892854,0.015762156,0.04127922,-0.0865744948387146,-0.059563636779785156,-0.06546865403652191,1015.24414,
2021.02.13 18:53:35,50.0,23.0,-0.48,24.119999,-28.92,0.36392978,0.72546524,9.61062,-0.0114286775,0.009653503,0.022342395,-0.07528914511203766,-0.03784937784075737,-0.02343306690454483,1015.24414,
2021.02.13 18:53:35,50.0,23.0,-0.29999998,24.3,-28.98,0.28252444,0.749408,9.615408,-0.024256848,0.02064908,0.0027947086,-0.07774759083986282,-0.0293740201741457,-0.020817428827285767,1015.24316,
2021.02.13 18:53:35,50.0,23.0,0.12,24.42,-29.039999,0.39266106,0.65363705,9.749487,-0.023035118,0.018816482,0.013179418,-0.06688898056745529,-0.04025329649448395,-0.04894650727510452,1015.24316,
2021.02.13 18:53:35,50.0,23.0,0.42,24.18,-28.98,0.43575802,0.7685622,9.783007,-0.020591656,0.013318695,0.021120666,-0.07832258194684982,-0.04451292008161545,-0.06472426652908325,1015.25635,
2021.02.13 18:53:35,50.0,23.0,0.48,24.0,-28.56,0.38308397,0.723071,9.613013,-0.012039543,-1.2034045E-4,0.013790283,-0.07501723617315292,-0.03982948884367943,-0.061940521001815796,1015.2544,
2021.02.13 18:53:35,50.0,23.0,0.53999996,24.0,-28.56,0.33519846,0.71588814,9.629773,0.0044538183,-0.001342071,-0.012476923,-0.07415987551212311,-0.03479450196027756,-0.05879415571689606,1015.2544,
2021.02.13 18:53:35,50.0,23.0,0.12,24.24,-28.26,0.32801566,0.72546524,9.636956,-0.0034874296,0.0029339858,-0.010644327,-0.07509445399045944,-0.034024130553007126,-0.04110477492213249,1015.25635,
2021.02.13 18:53:35,50.0,23.0,-0.35999998,24.119999,-28.26,0.29928434,0.6751855,9.63935,0.0044538183,-0.006839858,-0.0039248094,-0.06989692151546478,-0.03103821538388729,-0.01986219733953476,1015.25635,
2021.02.13 18:53:35,50.0,23.0,0.06,24.42,-28.619999,0.3423813,0.6895511,9.653716,0.0013994923,-0.008672453,-0.005757405,-0.07126280665397644,-0.035451412200927734,-0.04068196937441826,1015.25415,
2021.02.13 18:53:35,50.0,23.0,-0.06,24.18,-28.8,0.38308397,0.73743665,9.593859,-4.3310347E-4,-0.005618128,-0.008200866,-0.07665379345417023,-0.03990891948342323,-0.04136748984456062,1015.25635,
2021.02.13 18:53:35,50.0,23.0,0.0,24.18,-28.8,0.29689008,0.69673395,9.699207,-0.015704734,-1.2034045E-4,-0.013698653,-0.07167748361825943,-0.0306001715362072,-0.033645227551460266,1015.25635,
2021.02.13 18:53:35,50.0,23.0,0.48,24.72,-28.5,0.36871833,0.67279124,9.651321,-0.0053200256,-0.0025638016,-0.013087788,-0.06954659521579742,-0.038185350596904755,-0.05878300219774246,1015.2434,
2021.02.13 18:53:35,50.0,23.0,0.12,24.6,-28.38,0.37590113,0.6847626,9.648928,-0.0022656992,-0.01172678,-0.0075900005,-0.07079543173313141,-0.03893812373280525,-0.046105511486530304,1015.2434,
2021.02.13 18:53:35,50.0,23.0,-0.06,24.6,-28.08,0.34477556,0.679974,9.754275,0.0032320882,-0.008672453,-0.013698653,-0.06955446302890778,-0.03533138707280159,-0.035164911299943924,1015.251,
2021.02.13 18:53:36,50.0,23.0,-0.12,24.48,-28.619999,0.22985038,0.6656084,9.648928,-0.0034874296,-0.008672453,-0.015531249,-0.06885404884815216,-0.023816833272576332,-0.021277308464050293,1015.25146,
2021.02.13 18:53:36,50.0,23.0,-0.29999998,24.18,-28.92,0.44054657,0.71588814,9.636956,7.88627E-4,-0.016613703,-2.5961772E-4,-0.07407243549823761,-0.04568248242139816,-0.038871314376592636,1015.25146,
2021.02.13 18:53:36,50.0,23.0,0.12,24.24,-28.8,0.38068968,0.62251145,9.620196,-0.0047091604,-0.009894184,0.0021838432,-0.06456831842660904,-0.03955128788948059,-0.04828793555498123,1015.2539,
2021.02.13 18:53:36,50.0,23.0,0.59999996,24.48,-28.98,0.36871833,0.66321415,9.562734,-0.0022656992,-0.009894184,-8.70483E-4,-0.06919189542531967,-0.038538746535778046,-0.06485993415117264,1015.2539,
2021.02.13 18:53:36,50.0,23.0,0.71999997,24.66,-28.859999,0.32562137,0.65363705,9.761458,-0.023645982,4.905248E-4,0.005849035,-0.06682413816452026,-0.03334549441933632,-0.06330807507038116,1015.2505,
2021.02.13 18:53:36,50.0,23.0,0.84,24.84,-28.859999,0.33519846,0.65363705,9.586677,0.0038429531,0.0023231206,0.009514226,-0.06803501397371292,-0.03495079651474953,-0.0689954087138176,1015.24805,
2021.02.13 18:53:36,50.0,23.0,0.24,24.42,-28.859999,0.44294083,0.66800267,9.668081,-0.0053200256,0.003544851,0.022953263,-0.06891192495822906,-0.045782748609781265,-0.05916383117437363,1015.24805,
2021.02.13 18:53:36,50.0,23.0,-0.06,24.48,-28.859999,0.38787252,0.679974,9.586677,0.0062864143,0.010264369,0.024174992,-0.07075278460979462,-0.0404374822974205,-0.0418071486055851,1015.251,
2021.02.13 18:53:36,50.0,23.0,0.12,24.18,-28.619999,0.2849187,0.6344828,9.727939,-0.007152621,0.010264369,0.008903361,-0.06510265171527863,-0.02928033098578453,-0.036837656050920486,1015.251,
2021.02.13 18:53:36,50.0,23.0,0.0,24.48,-28.26,0.27055305,0.7015225,9.768641,0.0136167975,0.006599177,0.013179418,-0.0716632679104805,-0.027688998728990555,-0.029582714661955833,1015.25024,
2021.02.13 18:53:36,50.0,23.0,0.06,25.019999,-28.38,0.40463245,0.7877164,9.60583,0.028888429,0.028590327,0.036392298,-0.08174873143434525,-0.042098741978406906,-0.04599621146917343,1015.2532,
2021.02.13 18:53:36,50.0,23.0,-0.24,24.84,-28.26,0.42378664,0.71828246,9.672871,0.0136167975,0.02431427,0.01928807,-0.07405061274766922,-0.04378388077020645,-0.03710555657744408,1015.2532,
2021.02.13 18:53:36,50.0,23.0,-0.29999998,25.019999,-28.5,0.32562137,0.7446195,9.636956,-0.0022656992,-0.001342071,-0.021029036,-0.07707005739212036,-0.033775970339775085,-0.024409791454672813,1015.2517,
2021.02.13 18:53:36,50.0,23.0,-0.48,25.019999,-28.98,0.28252444,0.7350424,9.79019,0.0075081447,4.905248E-4,-0.019807307,-0.0749078169465065,-0.028849905356764793,-0.013132364489138126,1015.2517,
2021.02.13 18:53:36,50.0,23.0,-0.17999999,24.66,-29.039999,0.36632404,0.7015225,9.744699,0.0013994923,0.015151291,-0.010644327,-0.07181563973426819,-0.03757444769144058,-0.03413441777229309,1015.24805,
2021.02.13 18:53:36,50.0,23.0,0.17999999,25.14,-28.859999,0.34956414,0.7589851,9.615408,-0.0010439687,-0.008672453,-0.014920384,-0.07871914654970169,-0.036338575184345245,-0.04491666331887245,1015.2444,
2021.02.13 18:53:36,50.0,23.0,0.29999998,25.019999,-28.74,0.2370332,0.68715686,9.692024,-0.0047091604,-0.005618128,-0.028359419,-0.07075967639684677,-0.02445164881646633,-0.03713178262114525,1015.2444,
2021.02.13 18:53:37,50.0,23.0,0.29999998,24.6,-28.619999,0.28731298,0.69912827,9.70639,-0.014483005,-0.0031746665,-0.021029036,-0.07187208533287048,-0.02959175407886505,-0.04309679940342903,1015.24,
2021.02.13 18:53:37,50.0,23.0,0.12,24.539999,-28.199999,0.31604427,0.7326481,9.632168,0.005064684,-0.003785532,0.00523817,-0.07587578147649765,-0.03279956430196762,-0.03924667462706566,1015.24,
2021.02.13 18:53:37,50.0,23.0,-0.35999998,24.24,-28.26,0.24182175,0.723071,9.617802,-0.01875906,0.0041557164,-0.0045356746,-0.07501569390296936,-0.025137845426797867,-0.013328888453543186,1015.2405,
2021.02.13 18:53:37,50.0,23.0,-0.42,24.06,-27.84,0.34477556,0.70870537,9.632168,-0.0010439687,-0.0025638016,0.015622879,-0.07339776307344437,-0.03577890619635582,-0.022124532610177994,1015.24805,
2021.02.13 18:53:37,50.0,23.0,-0.17999999,24.3,-27.84,0.33759275,0.723071,9.627379,-0.0053200256,-0.003785532,0.00523817,-0.07491906732320786,-0.03505153954029083,-0.030230235308408737,1015.24805,
2021.02.13 18:53:37,50.0,23.0,-0.12,24.6,-28.14,0.25858167,0.6273,9.653716,-0.016926466,0.0017122553,9.621128E-4,-0.06486573070287704,-0.026779308915138245,-0.0240180566906929,1015.2444,
2021.02.13 18:53:37,50.0,23.0,0.0,24.48,-28.14,0.38787252,0.70631105,9.680053,-0.0053200256,-0.0031746665,0.0034055738,-0.07277835160493851,-0.04004783555865288,-0.04255389794707298,1015.2444,
2021.02.13 18:53:37,50.0,23.0,-0.24,24.42,-28.14,0.31365,0.67279124,9.615408,-0.008374351,-0.005618128,-8.70483E-4,-0.06981925666332245,-0.03260796144604683,-0.025734154507517815,1015.2483,
2021.02.13 18:53:37,50.0,23.0,-0.71999997,24.24,-28.199999,0.29210153,0.65842557,9.644139,-0.0022656992,-0.0019529362,-0.0075900005,-0.06813516467809677,-0.030278727412223816,-0.005135497078299522,1015.2566,
2021.02.13 18:53:37,50.0,23.0,-0.78,24.24,-27.779999,0.34477556,0.67279124,9.699207,-0.0047091604,-0.0025638016,9.621128E-4,-0.06921108067035675,-0.035531818866729736,-0.007943440228700638,1015.2566,
2021.02.13 18:53:37,50.0,23.0,-1.02,24.24,-28.199999,0.31604427,0.6296943,9.624985,-0.007152621,-0.0050072623,-0.0020922134,-0.06529469788074493,-0.03282402828335762,0.0036104670725762844,1015.24976,
2021.02.13 18:53:37,50.0,23.0,-1.02,24.539999,-28.56,0.31604427,0.65363705,9.694419,-0.010817813,-0.008672453,-0.0075900005,-0.06728652119636536,-0.03258910030126572,0.0033658414613455534,1015.24976,
2021.02.13 18:53:37,50.0,23.0,-0.53999996,24.359999,-28.68,0.28731298,0.6177229,9.61062,-0.0053200256,-0.009283319,-0.0039248094,-0.06415815651416779,-0.029886463657021523,-0.012132133357226849,1015.251,
2021.02.13 18:53:37,50.0,23.0,-0.59999996,24.18,-28.56,0.31365,0.66321415,9.711179,-0.020591656,0.0017122553,0.007070765,-0.06815257668495178,-0.03228660672903061,-0.012361054308712482,1015.2385,
2021.02.13 18:53:37,50.0,23.0,-0.12,24.06,-28.56,0.38068968,0.679974,9.653716,0.0044538183,-0.0025638016,0.008903361,-0.07026593387126923,-0.03941410034894943,-0.03864584490656853,1015.2385,
2021.02.13 18:53:37,50.0,23.0,0.0,24.0,-28.439999,0.2466103,0.600963,9.395134,-0.0059308903,-0.0025638016,-0.0039248094,-0.06385637819766998,-0.026242701336741447,-0.02895553782582283,1015.23926,
2021.02.13 18:53:38,50.0,23.0,-0.17999999,24.119999,-28.68,0.26097596,0.6344828,9.63935,-0.012650409,-0.004396397,-0.0014813483,-0.06570333242416382,-0.027067407965660095,-0.02297285757958889,1015.23926,
2021.02.13 18:53:38,50.0,23.0,-0.12,24.119999,-28.74,0.31125572,0.66321415,9.603436,-0.0034874296,0.0017122553,-0.0020922134,-0.06891454011201859,-0.03239952400326729,-0.031135521829128265,1015.24,
2021.02.13 18:53:38,50.0,23.0,-0.17999999,24.24,-28.38,0.31843856,0.6703969,9.660899,-0.0077634864,0.0072100423,0.004627304,-0.06924425810575485,-0.03294965624809265,-0.028871087357401848,1015.2471,
2021.02.13 18:53:38,50.0,23.0,-0.06,24.3,-28.26,0.2849187,0.6081458,9.663293,-0.008374351,0.003544851,3.5124752E-4,-0.06282347440719604,-0.029476098716259003,-0.02968892827630043,1015.2471,
2021.02.13 18:53:38,50.0,23.0,0.06,24.6,-27.9,0.31125572,0.6273,9.670476,-0.0065417555,4.905248E-4,0.004627304,-0.06474335491657257,-0.032175078988075256,-0.03631831705570221,1015.24927,
2021.02.13 18:53:38,50.0,23.0,-0.06,24.539999,-28.14,0.34716985,0.6344828,9.584282,-0.0047091604,-0.0025638016,0.0064598997,-0.06606069952249527,-0.03620700538158417,-0.0363762341439724,1015.24927,
2021.02.13 18:53:38,50.0,23.0,-0.24,24.06,-28.68,0.29210153,0.6296943,9.656111,-0.0150938695,-0.0025638016,0.0034055738,-0.0650901049375534,-0.030241211876273155,-0.02423936501145363,1015.2566,
2021.02.13 18:53:38,50.0,23.0,-0.24,24.359999,-28.859999,0.32083282,0.67279124,9.627379,-0.0150938695,0.0017122553,-0.0027030788,-0.06973110884428024,-0.033312711864709854,-0.027409762144088745,1015.2522,
2021.02.13 18:53:38,50.0,23.0,-0.53999996,24.119999,-28.92,0.1699935,0.5913859,9.660899,-0.0047091604,0.008431774,-0.010033461,-0.0611286461353302,-0.017594218254089355,0.0012041578302159905,1015.2522,
2021.02.13 18:53:38,50.0,23.0,-0.42,24.06,-29.279999,0.25379312,0.6081458,9.60583,0.009951605,4.905248E-4,-0.008200866,-0.06320369243621826,-0.026414591819047928,-0.013667242601513863,1015.25244,
2021.02.13 18:53:38,50.0,23.0,-0.17999999,24.72,-29.039999,0.25379312,0.6344828,9.730332,-0.004098295,0.016983887,0.008903361,-0.06509243696928024,-0.02607676573097706,-0.021733244881033897,1015.25244,
2021.02.13 18:53:38,50.0,23.0,-0.12,24.6,-29.16,0.36392978,0.7206767,9.534002,0.012395066,0.008431774,-0.0020922134,-0.075391985476017,-0.03815324977040291,-0.037115152925252914,1015.2417,
2021.02.13 18:53:38,50.0,23.0,0.17999999,24.84,-28.92,0.17238778,0.57223165,9.63935,0.0020103576,0.013318695,-0.0045356746,-0.059285085648298264,-0.01788184978067875,-0.02628975920379162,1015.24585,
2021.02.13 18:53:38,50.0,23.0,0.35999998,25.08,-28.56,0.24900457,0.6368771,9.711179,-0.0022656992,0.011486099,-0.0075900005,-0.06546662002801895,-0.025635408237576485,-0.04058048129081726,1015.24585,
2021.02.13 18:53:38,50.0,23.0,0.35999998,24.96,-28.08,0.2681588,0.63208854,9.624985,-0.0034874296,-0.0025638016,0.013179418,-0.06555210798978806,-0.02785349264740944,-0.042670316994190216,1015.24097,
2021.02.13 18:53:38,50.0,23.0,0.35999998,25.08,-28.08,0.25379312,0.6153286,9.550762,-0.0053200256,-0.008672453,0.013790283,-0.06431560963392258,-0.026566822081804276,-0.0411885567009449,1015.24097,
2021.02.13 18:53:38,50.0,23.0,0.48,25.08,-28.26,0.35435268,0.62251145,9.881172,-0.0150938695,0.00110139,0.009514226,-0.06287629157304764,-0.0358460396528244,-0.055624090135097504,1015.2449,
2021.02.13 18:53:39,50.0,23.0,0.53999996,25.08,-28.019999,0.45012367,0.6608198,10.532414,0.00811901,-0.009894184,0.001572978,-0.06260240077972412,-0.04271099716424942,-0.06472849100828171,1015.2461,
2021.02.13 18:53:39,50.0,23.0,0.53999996,25.08,-28.439999,0.17717634,0.4644893,10.541992,-0.056632705,0.0029339858,-0.0063682706,-0.04402618110179901,-0.016805140301585197,-0.03867179527878761,1015.2461,
