Time,X-cord,Y-cord,Mag_x,Mag_y,Mag_z,Acc_x,Acc_y,Acc_z,Gyro_x,Gyro_y,Gyro_z,Orn_x,Orn_y,Orn_z,Pressure,
2021.02.13 18:47:35,32.0,24.0,39.18,6.96,-32.579998,-0.016759925,0.68715686,8.985713,0.05820996,0.16664587,-0.1077719,-0.07632347196340561,0.0018651725258678198,-1.334262728691101,1015.15894,
2021.02.13 18:47:35,32.0,24.0,39.239998,6.66,-32.52,-0.05985687,0.53392327,9.742304,-0.09084116,-0.06731551,-0.03080288,-0.05474882200360298,0.00614393875002861,-1.357814908027649,1015.1677,
2021.02.13 18:47:35,32.0,24.0,39.36,6.8999996,-32.34,0.09577099,0.6703969,9.514848,-0.0602979,-0.055709075,0.0064598997,-0.0703381821513176,-0.010065085254609585,-1.344712734222412,1015.1677,
2021.02.13 18:47:35,32.0,24.0,39.239998,6.8999996,-32.399998,0.2561874,0.7326481,9.720756,-0.08778684,-0.02944187,0.009514226,-0.07520122081041336,-0.026348579674959183,-1.3443058729171753,1015.17236,
2021.02.13 18:47:35,32.0,24.0,39.3,6.96,-32.219997,0.16759923,0.723071,9.727939,-0.055410977,-0.027609276,0.007070765,-0.07418190687894821,-0.017226943746209145,-1.3420372009277344,1015.17236,
2021.02.13 18:47:35,32.0,24.0,39.719997,7.62,-32.34,0.22985038,0.81165916,9.663293,-0.061519627,-0.01294851,-0.0014813483,-0.08377377688884735,-0.023781443014740944,-1.3234913349151611,1015.1665,
2021.02.13 18:47:35,32.0,24.0,39.36,7.62,-32.76,-0.17478207,0.7829279,10.032011,-0.07495867,-0.0123376455,-0.016752979,-0.07787332683801651,0.017420673742890358,-1.3136591911315918,1015.16797,
2021.02.13 18:47:35,32.0,24.0,39.6,7.3799996,-32.34,-0.023942748,0.5650489,9.536397,0.03621881,-0.021500623,0.053496525,-0.059182435274124146,0.0025106649845838547,-1.3400105237960815,1015.16797,
2021.02.13 18:47:35,32.0,24.0,39.18,7.3799996,-32.16,0.14365649,0.35674694,9.428655,0.011173336,-0.01294851,0.06754643,-0.03781403973698616,-0.01523498073220253,-1.3580621480941772,1015.16626,
2021.02.13 18:47:35,32.0,24.0,38.64,7.14,-31.92,0.42618093,0.68715686,9.4142885,-0.048080593,-0.0123376455,0.07243335,-0.072787344455719,-0.04523869603872299,-1.3422900438308716,1015.16626,
2021.02.13 18:47:35,32.0,24.0,38.879997,7.14,-31.56,0.17717634,0.71588814,10.058349,-0.08045645,-0.014781106,0.03211624,-0.0710427314043045,-0.017613032832741737,-1.3388489484786987,1015.166,
2021.02.13 18:47:36,32.0,24.0,38.879997,7.2,-31.38,0.06464542,0.59378016,9.711179,-0.012650409,-0.030663602,0.040057488,-0.061066608875989914,-0.006656705867499113,-1.3424068689346313,1015.1677,
2021.02.13 18:47:36,32.0,24.0,39.3,7.2599998,-31.439999,0.14605077,0.7853221,10.094262,-0.02792204,-0.032496195,0.03822489,-0.07763437926769257,-0.014467681758105755,-1.3330645561218262,1015.1677,
2021.02.13 18:47:36,32.0,24.0,39.54,7.02,-31.56,0.13886794,0.6273,9.881172,0.05332304,-0.022722354,0.023564126,-0.06339304894208908,-0.014052867889404297,-1.350090503692627,1015.16626,
2021.02.13 18:47:36,32.0,24.0,39.6,6.72,-31.8,0.16281068,0.51955765,9.3280945,0.085698895,-0.035550527,0.0205098,-0.05563220754265785,-0.017452025786042213,-1.3636174201965332,1015.16626,
2021.02.13 18:47:36,32.0,24.0,39.42,6.48,-31.859999,-0.03351985,0.4285752,9.569917,0.0136167975,-0.014781106,-0.0027030788,-0.044753409922122955,0.003502612467855215,-1.3723390102386475,1015.1655,
2021.02.13 18:47:36,32.0,24.0,39.239998,6.54,-32.1,0.0670397,0.6273,9.565128,-0.0114286775,0.0053774468,0.035170566,-0.06548658758401871,-0.00700864614918828,-1.356023907661438,1015.16626,
2021.02.13 18:47:36,32.0,24.0,39.36,6.66,-32.399998,-0.016759925,0.50998056,9.469357,0.0038429531,0.006599177,0.026007587,-0.05380382016301155,0.0017699097516015172,-1.3603228330612183,1015.16626,
2021.02.13 18:47:36,32.0,24.0,39.059998,6.96,-32.579998,0.20351335,0.32083282,9.526819,-0.041361075,0.0023231206,0.043111816,-0.03365641087293625,-0.021358901634812355,-1.3715949058532715,1015.1692,
2021.02.13 18:47:36,32.0,24.0,38.76,7.3199997,-32.88,0.29210153,0.7996878,9.565128,-0.06762828,0.0145404255,0.027229318,-0.0833718404173851,-0.030528683215379715,-1.3259011507034302,1015.1692,
2021.02.13 18:47:36,32.0,24.0,38.7,6.96,-32.64,0.18196489,0.888276,10.204399,-0.046247996,-0.01294851,-0.046685375,-0.0868157297372818,-0.01783011481165886,-1.3285832405090332,1015.1699,
2021.02.13 18:47:36,32.0,24.0,38.7,6.8399997,-32.579998,-0.10774237,0.35914123,9.8548355,0.034386214,0.009653503,-0.017363844,-0.03642485290765762,0.01093250885605812,-1.3641653060913086,1015.1682,
2021.02.13 18:47:36,32.0,24.0,38.76,6.6,-32.64,0.39505535,0.5770202,9.306546,-4.3310347E-4,0.0127078295,0.019898936,-0.06186670809984207,-0.04242372140288353,-1.3619188070297241,1015.1682,
2021.02.13 18:47:36,32.0,24.0,39.239998,6.2999997,-32.82,0.30167863,0.6296943,9.766247,-0.04502627,0.027979461,-0.03080288,-0.06435684859752655,-0.03088010475039482,-1.366912603378296,1015.17334,
2021.02.13 18:47:36,32.0,24.0,39.48,6.6,-32.88,0.10055954,0.5961744,9.699207,-0.0053200256,0.01392956,-0.057070084,-0.06138577684760094,-0.0103674391284585,-1.3585782051086426,1015.17334,
2021.02.13 18:47:36,32.0,24.0,39.78,6.72,-32.579998,0.07901107,0.5698374,9.581888,-0.014483005,0.007820908,-0.049739704,-0.05939828231930733,-0.008245689794421196,-1.3587218523025513,1015.1709,
2021.02.13 18:47:36,32.0,24.0,40.079998,7.08,-32.28,0.08619389,0.55307746,9.742304,-0.03952848,-7.312057E-4,-0.030192014,-0.05670762062072754,-0.008847151882946491,-1.3542954921722412,1015.157,
2021.02.13 18:47:37,32.0,24.0,39.84,7.5,-32.16,0.15562786,0.58420306,9.560339,-0.034641556,-1.2034045E-4,-0.028970284,-0.06102298945188522,-0.016277050599455833,-1.3417850732803345,1015.157,
2021.02.13 18:47:37,32.0,24.0,39.42,7.56,-32.52,0.05027977,0.6105401,9.888355,-0.032198098,-0.009283319,-0.036911532,-0.061664264649152756,-0.005084701348096132,-1.3343690633773804,1015.1553,
2021.02.13 18:47:37,32.0,24.0,38.94,7.74,-32.46,0.021548472,0.48843205,9.747093,0.009951605,-0.02333322,-0.0356898,-0.050068534910678864,-0.0022107551340013742,-1.3355486392974854,1015.1553,
2021.02.13 18:47:37,32.0,24.0,38.64,7.62,-32.7,0.021548472,0.37829542,9.555551,-0.0053200256,-0.0123376455,-0.015531249,-0.03956831246614456,-0.002255070023238659,-1.3447281122207642,1015.15015,
2021.02.13 18:47:37,32.0,24.0,38.82,7.56,-32.219997,0.083799616,0.47885495,9.644139,-0.012650409,-0.0019529362,-8.70483E-4,-0.04960981756448746,-0.008688956499099731,-1.3413532972335815,1015.1443,
2021.02.13 18:47:37,32.0,24.0,39.12,7.74,-32.04,0.13886794,0.505192,9.845258,0.0020103576,-0.019668028,0.008292495,-0.051263172179460526,-0.014104124158620834,-1.3389147520065308,1015.1443,
2021.02.13 18:47:37,32.0,24.0,39.18,7.3199997,-31.98,0.20351335,0.4956149,9.660899,0.028888429,-0.015391972,0.005849035,-0.0512448325753212,-0.021062560379505157,-1.3508974313735962,1015.1448,
2021.02.13 18:47:37,32.0,24.0,39.18,6.8399997,-31.74,0.15562786,0.45012367,9.514848,0.03255362,-0.01294851,-0.010644327,-0.04726594686508179,-0.016354858875274658,-1.3646284341812134,1015.1448,
2021.02.13 18:47:37,32.0,24.0,38.879997,7.14,-32.04,0.07901107,0.45970076,9.565128,0.0136167975,-0.014170242,-0.0039248094,-0.04802148789167404,-0.008260137401521206,-1.3532036542892456,1015.1443,
2021.02.13 18:47:37,32.0,24.0,39.059998,7.2,-32.04,0.098165266,0.45012367,9.672871,-0.0047091604,-0.0105050495,0.024174992,-0.04649871215224266,-0.010148165747523308,-1.35427725315094,1015.1467,
2021.02.13 18:47:37,32.0,24.0,38.82,7.14,-32.28,0.24182175,0.52913475,9.517242,-0.0065417555,-0.0105050495,0.035170566,-0.05552242323756218,-0.02540333941578865,-1.350710153579712,1015.1467,
2021.02.13 18:47:37,32.0,24.0,38.64,7.62,-32.399998,0.16041641,0.4644893,9.761458,-0.02242425,-0.01172678,0.016844608,-0.04754173383116722,-0.016432171687483788,-1.342005729675293,1015.1467,
2021.02.13 18:47:37,32.0,24.0,38.76,7.3799996,-32.16,0.117319465,0.50040346,9.668081,-0.0028765644,-0.014170242,0.022342395,-0.05170835927128792,-0.012134125456213951,-1.3446305990219116,1015.1467,
2021.02.13 18:47:37,32.0,24.0,38.52,7.44,-32.219997,0.14365649,0.43815228,9.694419,7.88627E-4,-0.013559376,0.023564126,-0.04516065493226051,-0.014817389659583569,-1.3473443984985352,1015.14746,
2021.02.13 18:47:37,32.0,24.0,38.46,7.74,-32.16,0.20111908,0.5985687,9.500483,0.00934074,-0.0105050495,0.03333797,-0.06290680915117264,-0.02116619236767292,-1.3279399871826172,1015.14966,
2021.02.13 18:47:37,32.0,24.0,38.94,7.7999997,-32.46,0.11971374,0.4836435,9.730332,0.0044538183,-0.008061589,0.017455475,-0.049660101532936096,-0.012302529066801071,-1.336764931678772,1015.14966,
2021.02.13 18:47:37,32.0,24.0,38.879997,7.62,-32.88,0.20590763,0.5123748,9.471751,0.019114584,-0.0050072623,0.023564126,-0.05402963235974312,-0.02173570729792118,-1.3391255140304565,1015.14966,
2021.02.13 18:47:38,32.0,24.0,39.18,7.5,-32.64,0.117319465,0.505192,9.8548355,-0.02242425,0.007820908,0.01928807,-0.051214903593063354,-0.011904198676347733,-1.3438407182693481,1015.14966,
2021.02.13 18:47:38,32.0,24.0,39.36,7.7999997,-33.059998,0.2561874,0.6273,9.708784,0.015449394,-0.004396397,0.03211624,-0.06449951976537704,-0.026381056755781174,-1.330681562423706,1015.14526,
2021.02.13 18:47:38,32.0,24.0,39.48,7.74,-32.64,0.2083019,0.49800915,9.651321,0.030110158,-0.0050072623,0.021120666,-0.05154239386320114,-0.021579382941126823,-1.3417332172393799,1015.15405,
2021.02.13 18:47:38,32.0,24.0,39.48,7.8599997,-32.7,0.16041641,0.5219519,9.984126,0.033164486,-0.016002836,0.01806634,-0.052223898470401764,-0.01606576330959797,-1.33707594871521,1015.15405,
2021.02.13 18:47:38,32.0,24.0,39.36,7.62,-33.059998,0.21548474,0.6895511,9.567522,0.05943169,-0.017224567,0.022342395,-0.07192949950695038,-0.022518716752529144,-1.3284406661987305,1015.1626,
2021.02.13 18:47:38,32.0,24.0,39.239998,7.08,-32.46,0.17957062,0.60335726,9.893144,0.028277563,-0.018446298,-2.5961772E-4,-0.06090196222066879,-0.01814902387559414,-1.348555326461792,1015.155,
2021.02.13 18:47:38,32.0,24.0,38.7,7.02,-32.399998,0.22027329,0.6656084,9.596253,0.048436116,-0.016613703,0.021120666,-0.06923218816518784,-0.0229500625282526,-1.3420121669769287,1015.155,
2021.02.13 18:47:38,32.0,24.0,38.94,6.8999996,-32.7,0.2777359,0.6656084,9.560339,-0.0010439687,0.006599177,-0.0069791353,-0.06948045641183853,-0.029042672365903854,-1.3470336198806763,1015.1538,
2021.02.13 18:47:38,32.0,24.0,38.879997,6.96,-32.46,0.15562786,0.5913859,9.644139,-0.012039543,0.0127078295,-0.010644327,-0.06123611703515053,-0.01613564044237137,-1.348755121231079,1015.1538,
2021.02.13 18:47:38,32.0,24.0,39.239998,7.02,-32.579998,0.16759923,0.56265455,9.596253,-0.013872139,0.0072100423,0.00523817,-0.05855676904320717,-0.01746329292654991,-1.3514292240142822,1015.155,
2021.02.13 18:47:38,32.0,24.0,39.48,6.8999996,-32.46,0.13886794,0.56744313,9.665688,-0.014483005,0.02675773,0.005849035,-0.05863361805677414,-0.014366116374731064,-1.3549727201461792,1015.155,
2021.02.13 18:47:38,32.0,24.0,38.879997,6.8399997,-32.219997,0.15083931,0.5602603,9.778218,-0.0047091604,0.009653503,0.024174992,-0.05722739174962044,-0.015424828976392746,-1.3548462390899658,1015.15405,
2021.02.13 18:47:38,32.0,24.0,38.879997,7.08,-32.219997,0.17238778,0.56265455,9.651321,0.010562471,0.035309844,0.03394884,-0.05822301656007767,-0.017859673127532005,-1.3488519191741943,1015.1531,
2021.02.13 18:47:38,32.0,24.0,38.579998,7.2,-32.28,0.2466103,0.6177229,9.596253,0.0117842015,-0.004396397,0.022342395,-0.06426141411066055,-0.025692947208881378,-1.341535210609436,1015.1531,
2021.02.13 18:47:38,32.0,24.0,38.219997,7.02,-32.46,0.15802214,0.5985687,9.718362,-0.012650409,0.0047665816,0.0021838432,-0.06150570511817932,-0.01625872775912285,-1.3434371948242188,1015.1543,
2021.02.13 18:47:38,32.0,24.0,38.64,6.96,-32.399998,0.17957062,0.65363705,9.636956,0.010562471,-0.0019529362,0.004627304,-0.06771065294742584,-0.018631383776664734,-1.343212604522705,1015.1543,
2021.02.13 18:47:38,32.0,24.0,38.76,6.66,-32.28,0.035914123,0.5123748,9.775824,-0.0150938695,0.00110139,-0.003313944,-0.052364181727170944,-0.0036737530026584864,-1.3596566915512085,1015.1548,
2021.02.13 18:47:39,32.0,24.0,38.7,6.48,-32.28,0.22266756,0.71828246,9.735122,0.041105732,-0.022111489,0.040057488,-0.0736299380660057,-0.02286861278116703,-1.3518961668014526,1015.16064,
2021.02.13 18:47:39,32.0,24.0,39.059998,6.2999997,-32.52,0.1987248,0.600963,9.474146,0.03133189,-0.018446298,0.015622879,-0.06333313137292862,-0.02097241021692753,-1.3650270700454712,1015.16064,
2021.02.13 18:47:39,32.0,24.0,39.059998,6.2999997,-32.52,0.08619389,0.65363705,9.797373,-0.024256848,0.0072100423,-0.0027030788,-0.06661425530910492,-0.008797426708042622,-1.3597811460494995,1015.1655,
2021.02.13 18:47:39,32.0,24.0,38.579998,6.2999997,-32.7,0.15083931,0.6656084,9.73991,0.0044538183,-0.0105050495,0.008903361,-0.06822400540113449,-0.015485487878322601,-1.3572850227355957,1015.1655,
2021.02.13 18:47:39,32.0,24.0,38.879997,6.2999997,-32.52,0.18435916,0.5770202,9.488511,0.009951605,-0.0105050495,0.005849035,-0.06072628125548363,-0.019427280873060226,-1.3657479286193848,1015.15845,
2021.02.13 18:47:39,32.0,24.0,38.7,6.3599997,-32.28,0.11492519,0.6057515,9.620196,-0.017537331,0.0017122553,9.621128E-4,-0.06287915259599686,-0.011945673264563084,-1.3603943586349487,1015.15405,
2021.02.13 18:47:39,32.0,24.0,38.64,6.24,-32.28,0.20351335,0.6847626,9.749487,-0.023035118,-7.312057E-4,0.010735957,-0.07010538876056671,-0.020871231332421303,-1.35955011844635,1015.15405,
2021.02.13 18:47:39,32.0,24.0,39.12,6.42,-31.92,0.13886794,0.60335726,9.5794935,-0.0065417555,-0.003785532,0.0021838432,-0.06289457529783249,-0.014495360665023327,-1.3622019290924072,1015.15454,
2021.02.13 18:47:39,32.0,24.0,39.059998,6.2999997,-32.34,0.17238778,0.5865973,9.644139,-0.0150938695,-0.004396397,-0.0020922134,-0.060739703476428986,-0.017872972413897514,-1.366557240486145,1015.15454,
2021.02.13 18:47:39,32.0,24.0,39.3,6.0,-32.7,0.15562786,0.6488485,9.613013,-0.014483005,-0.004396397,-0.005757405,-0.06738585978746414,-0.0161878764629364,-1.3690519332885742,1015.16016,
2021.02.13 18:47:39,32.0,24.0,39.42,6.24,-32.46,0.16520496,0.6153286,9.737515,-0.004098295,-0.006839858,-0.014920384,-0.06309857964515686,-0.016964195296168327,-1.3676583766937256,1015.1658,
2021.02.13 18:47:39,32.0,24.0,39.12,6.18,-32.7,0.18914771,0.6249057,9.591465,0.0075081447,-0.0105050495,-0.012476923,-0.06504769623279572,-0.019717862829566002,-1.366384506225586,1015.1658,
2021.02.13 18:47:39,32.0,24.0,38.879997,6.0,-32.46,0.16041641,0.5961744,9.79019,-0.0065417555,-0.0050072623,-0.015531249,-0.060811832547187805,-0.016383957117795944,-1.372391939163208,1015.17114,
2021.02.13 18:47:39,32.0,24.0,38.579998,6.2999997,-32.7,0.102953814,0.6081458,9.768641,0.0038429531,-0.009283319,-0.015531249,-0.06217121332883835,-0.010538824833929539,-1.3608427047729492,1015.17114,
2021.02.13 18:47:39,32.0,24.0,38.28,5.58,-33.0,0.22506183,0.6344828,9.529214,0.019114584,-0.014781106,-0.009422596,-0.06646629422903061,-0.0236137006431818,-1.376132845878601,1015.16724,
2021.02.13 18:47:39,32.0,24.0,38.82,5.52,-33.18,0.11013664,0.5913859,9.732727,-0.0059308903,-0.0062289927,-0.017363844,-0.060684118419885635,-0.011315629817545414,-1.3818360567092896,1015.15967,
2021.02.13 18:47:40,32.0,24.0,39.059998,5.7599998,-33.059998,0.16041641,0.61293435,9.6896305,0.015449394,-0.011115915,0.010125091,-0.06316392868757248,-0.016553960740566254,-1.3764656782150269,1015.15967,
2021.02.13 18:47:40,32.0,24.0,39.18,5.8199997,-32.76,0.25858167,0.6201172,9.701602,-0.0132612735,4.905248E-4,-0.0045356746,-0.06380961835384369,-0.026647193357348442,-1.3776780366897583,1015.16016,
2021.02.13 18:47:40,32.0,24.0,39.42,6.42,-32.579998,0.1699935,0.65124273,9.608225,0.008729876,0.00110139,-0.008811731,-0.06766564399003983,-0.01769065298140049,-1.3599096536636353,1015.16016,
2021.02.13 18:47:40,32.0,24.0,39.059998,6.2999997,-32.7,0.18914771,0.58420306,9.692024,-0.010817813,0.0023231206,-0.011866057,-0.06019240617752075,-0.019513333216309547,-1.3668358325958252,1015.157,
2021.02.13 18:47:40,32.0,24.0,38.64,6.18,-32.76,0.21309046,0.6703969,9.644139,0.005064684,-7.312057E-4,-0.008811731,-0.0693848729133606,-0.022091737017035484,-1.3610742092132568,1015.1648,
2021.02.13 18:47:40,32.0,24.0,38.879997,6.06,-32.52,0.22745611,0.6057515,9.670476,-0.016926466,0.023092538,-0.016752979,-0.06254028528928757,-0.02351633831858635,-1.3710691928863525,1015.1648,
2021.02.13 18:47:40,32.0,24.0,38.94,6.24,-32.34,0.17717634,0.6560313,9.596253,0.0032320882,0.0017122553,-0.008811731,-0.06824547797441483,-0.01846097595989704,-1.3618654012680054,1015.17285,
2021.02.13 18:47:40,32.0,24.0,38.76,6.2999997,-32.34,0.16041641,0.6249057,9.61062,-0.0114286775,-1.2034045E-4,-0.013698653,-0.06492199748754501,-0.016690028831362724,-1.3615930080413818,1015.17285,
2021.02.13 18:47:40,32.0,24.0,38.82,6.42,-32.28,0.12210801,0.61293435,9.534002,-0.008374351,0.0023231206,-0.010644327,-0.06419569998979568,-0.012806933373212814,-1.3587514162063599,1015.1648,
2021.02.13 18:47:40,32.0,24.0,38.52,6.8399997,-32.64,0.20590763,0.6368771,9.72315,-0.0114286775,0.0023231206,0.0027947086,-0.06539305299520493,-0.021173883229494095,-1.3474440574645996,1015.17017,
2021.02.13 18:47:40,32.0,24.0,38.399998,6.66,-32.94,0.17957062,0.63208854,9.749487,-0.0028765644,-0.0031746665,-2.5961772E-4,-0.06473144888877869,-0.0184163860976696,-1.3505635261535645,1015.17017,
2021.02.13 18:47:40,32.0,24.0,38.28,6.7799997,-32.76,0.18675344,0.65363705,9.591465,0.0013994923,-0.0019529362,-0.0020922134,-0.0680297240614891,-0.019468335434794426,-1.3449534177780151,1015.16846,
2021.02.13 18:47:40,32.0,24.0,38.64,6.72,-33.0,0.102953814,0.5913859,9.778218,-0.008374351,0.007820908,-0.0045356746,-0.0604030005633831,-0.01052850391715765,-1.3518397808074951,1015.16846,
2021.02.13 18:47:40,32.0,24.0,38.46,6.42,-32.88,0.21548474,0.6273,9.70639,0.010562471,-0.0062289927,0.026007587,-0.0645219162106514,-0.02219664864242077,-1.3578659296035767,1015.17236,
2021.02.13 18:47:40,32.0,24.0,38.7,6.48,-32.82,0.16520496,0.6105401,9.747093,7.88627E-4,-1.2034045E-4,0.012568552,-0.0625474825501442,-0.016947530210018158,-1.3580797910690308,1015.1682,
2021.02.13 18:47:40,32.0,24.0,38.879997,6.3599997,-32.88,0.19633053,0.6153286,9.677659,0.0075081447,-0.005618128,0.009514226,-0.06348387897014618,-0.020284203812479973,-1.3618789911270142,1015.1682,
2021.02.13 18:47:40,32.0,24.0,38.7,6.42,-32.88,0.17957062,0.60335726,9.651321,0.005064684,-0.0025638016,0.00523817,-0.06242348253726959,-0.01860366016626358,-1.359924554824829,1015.1687,
2021.02.13 18:47:41,32.0,24.0,39.18,6.24,-33.239998,0.18675344,0.6560313,9.567522,0.005064684,-0.005618128,0.016233744,-0.06844841688871384,-0.019517041742801666,-1.3617931604385376,1015.1687,
2021.02.13 18:47:41,32.0,24.0,39.12,6.3599997,-33.0,0.16281068,0.6368771,9.684841,-0.010817813,-0.0031746665,0.008292495,-0.06565640866756439,-0.016809294000267982,-1.3604882955551147,1015.1692,
2021.02.13 18:47:41,32.0,24.0,38.52,6.42,-32.82,0.12689656,0.6177229,9.692024,1.7776179E-4,-0.0019529362,0.009514226,-0.06364364176988602,-0.013092136941850185,-1.356845498085022,1015.16846,
2021.02.13 18:47:41,32.0,24.0,38.879997,6.48,-32.52,0.15802214,0.6344828,9.684841,-0.004098295,-1.2034045E-4,0.010735957,-0.06541081517934799,-0.016314992681145668,-1.3571316003799438,1015.16846,
2021.02.13 18:47:41,32.0,24.0,38.64,6.12,-32.16,0.2561874,0.6751855,9.718362,-0.007152621,0.016983887,0.008903361,-0.06933976709842682,-0.026355069130659103,-1.364469051361084,1015.1609,
2021.02.13 18:47:41,32.0,24.0,38.52,5.8199997,-32.16,0.2370332,0.6201172,9.670476,-0.004098295,0.005988312,0.0076816306,-0.06401793658733368,-0.024506108835339546,-1.3747421503067017,1015.1609,
2021.02.13 18:47:41,32.0,24.0,39.239998,5.94,-32.16,0.1699935,0.6344828,9.725544,-0.014483005,-0.005618128,-0.0075900005,-0.06513655930757523,-0.01747729629278183,-1.373000979423523,1015.1592,
2021.02.13 18:47:41,32.0,24.0,38.82,6.12,-32.28,0.18196489,0.5985687,9.498088,0.0044538183,-0.0062289927,-0.005757405,-0.06292515993118286,-0.0191557127982378,-1.3684213161468506,1015.1697,
2021.02.13 18:47:41,32.0,24.0,38.76,6.66,-32.64,0.17478207,0.57462597,9.6896305,-0.026089443,0.0029339858,-0.013087788,-0.0592242032289505,-0.018036097288131714,-1.3570780754089355,1015.1697,
2021.02.13 18:47:41,32.0,24.0,38.579998,6.8399997,-32.64,0.14126222,0.6368771,9.715967,-0.0065417555,-0.001342071,-0.008811731,-0.06544899195432663,-0.014538157731294632,-1.3461493253707886,1015.1697,
2021.02.13 18:47:41,32.0,24.0,38.64,6.66,-32.82,0.19633053,0.5770202,9.646533,-0.0065417555,-0.0019529362,-0.008811731,-0.05973279848694801,-0.020349636673927307,-1.3563323020935059,1015.1697,
2021.02.13 18:47:41,32.0,24.0,38.82,6.8399997,-32.7,0.17478207,0.6560313,9.70639,-0.016926466,0.0041557164,-0.013087788,-0.06747402995824814,-0.01800496131181717,-1.3466782569885254,1015.1633,
2021.02.13 18:47:41,32.0,24.0,39.12,6.66,-32.7,0.15802214,0.60335726,9.617802,-0.0077634864,-7.312057E-4,-0.013087788,-0.06264285743236542,-0.016428692266345024,-1.3559283018112183,1015.156,
2021.02.13 18:47:41,32.0,24.0,39.54,6.48,-32.76,0.1987248,0.5458947,9.929058,-0.02670031,0.0023231206,-0.016142115,-0.054913230240345,-0.020011795684695244,-1.3689311742782593,1015.156,
2021.02.13 18:47:41,32.0,24.0,39.48,6.48,-32.46,-0.12450229,0.48124924,9.663293,0.014838528,0.009042637,-0.0069791353,-0.049756549298763275,0.012883329764008522,-1.3660297393798828,1015.156,
2021.02.13 18:47:41,32.0,24.0,39.18,6.3599997,-32.34,0.2466103,0.6440599,9.641745,0.0136167975,-0.0031746665,0.024174992,-0.06667827069759369,-0.025571776553988457,-1.3629796504974365,1015.156,
2021.02.13 18:47:41,32.0,24.0,38.7,6.54,-32.219997,0.22985038,0.679974,9.632168,0.005675549,0.011486099,0.019898936,-0.07045716792345047,-0.023858260363340378,-1.3531413078308105,1015.15625,
2021.02.13 18:47:42,32.0,24.0,38.7,6.3599997,-32.28,0.026337024,0.53392327,9.684841,0.014227662,0.0017122553,0.0064598997,-0.05507383868098259,-0.002719400217756629,-1.3643958568572998,1015.1565,
2021.02.13 18:47:42,32.0,24.0,38.52,6.24,-32.46,0.17717634,0.58420306,9.615408,0.0117842015,0.00110139,0.014401148,-0.0606721006333828,-0.01842420920729637,-1.3652750253677368,1015.1565,
2021.02.13 18:47:42,32.0,24.0,38.94,6.06,-32.88,0.0670397,0.5985687,8.454185,-0.0047091604,-0.022722354,0.001572978,-0.07068130373954773,-0.007929598912596703,-1.3610408306121826,1015.1614,
2021.02.13 18:47:42,32.0,24.0,39.059998,5.8799996,-32.34,0.026337024,0.50758624,9.37598,-0.09389549,-0.086863205,0.010125091,-0.05408386513590813,-0.0028089815750718117,-1.3787224292755127,1015.1614,
