Time,X-cord,Y-cord,Mag_x,Mag_y,Mag_z,Acc_x,Acc_y,Acc_z,Gyro_x,Gyro_y,Gyro_z,Orn_x,Orn_y,Orn_z,Pressure,
2021.02.13 18:48:52,39.0,24.0,19.5,-3.72,-23.76,0.1987248,0.4956149,9.850046,-0.06640655,0.10678107,-0.043020185,-0.05026338994503021,-0.020172275602817535,-1.697351098060608,1015.1904,
2021.02.13 18:48:52,39.0,24.0,19.859999,-3.72,-23.699999,0.2561874,0.67279124,9.924269,-0.114664905,-0.0031746665,-0.039965857,-0.06766648590564728,-0.025808505713939667,-1.6751896142959595,1015.1904,
2021.02.13 18:48:52,39.0,24.0,19.68,-3.36,-23.58,-0.21309046,0.19393626,9.510059,-0.095728084,-0.019668028,-0.0069791353,-0.020384807139635086,0.02240310236811638,-1.7195723056793213,1015.1875,
2021.02.13 18:48:52,39.0,24.0,19.26,-3.06,-24.06,0.2753416,0.7015225,9.79019,-0.09633894,-0.034939658,0.051053062,-0.07150521874427795,-0.028116822242736816,-1.6395626068115234,1015.1985,
2021.02.13 18:48:52,39.0,24.0,18.9,-3.0,-24.0,0.11971374,0.6057515,9.730332,-0.0077634864,-0.028220143,0.010125091,-0.062169015407562256,-0.012302529066801071,-1.649702787399292,1015.1985,
2021.02.13 18:48:52,39.0,24.0,18.18,-2.58,-23.82,0.10774237,0.38068968,9.730332,0.017281989,-0.036772255,0.026618455,-0.039101675152778625,-0.011072383262217045,-1.6602829694747925,1015.19385,
2021.02.13 18:48:53,39.0,24.0,18.119999,-3.0,-23.699999,0.39266106,0.48124924,9.4932995,0.01850372,-0.034939658,0.07121161,-0.05060701444745064,-0.04133835434913635,-1.6667174100875854,1015.19385,
2021.02.13 18:48:53,39.0,24.0,18.359999,-3.0,-23.82,0.25139886,0.52913475,9.780613,-0.015704734,-0.02944187,0.05532912,-0.05402986332774162,-0.025698134675621986,-1.6620302200317383,1015.198,
2021.02.13 18:48:53,39.0,24.0,18.42,-3.1799998,-24.06,0.33759275,0.56744313,9.811738,0.022779776,-0.037993982,0.049831335,-0.0577346533536911,-0.03439346328377724,-1.665320634841919,1015.20435,
2021.02.13 18:48:53,39.0,24.0,18.539999,-3.6,-24.24,0.028731298,0.4764607,9.742304,0.02461237,-0.016613703,0.038835756,-0.04886721819639206,-0.0029491190798580647,-1.6997979879379272,1015.20435,
2021.02.13 18:48:53,39.0,24.0,18.359999,-3.54,-24.359999,0.34716985,0.4956149,9.91948,0.011173336,-0.030663602,0.07243335,-0.04989178478717804,-0.03498451039195061,-1.6927611827850342,1015.2053,
2021.02.13 18:48:53,39.0,24.0,18.66,-3.54,-24.3,0.3974496,0.44294083,9.569917,0.039884,0.0127078295,0.07121161,-0.04621192067861557,-0.0415072925388813,-1.694844365119934,1015.2053,
2021.02.13 18:48:53,39.0,24.0,18.24,-3.6599998,-24.06,0.6105401,0.6751855,9.225141,0.05454477,0.036531575,0.07609854,-0.07290054112672806,-0.0660858228802681,-1.670990228652954,1015.2046,
2021.02.13 18:48:53,39.0,24.0,18.42,-3.54,-23.76,0.409421,0.7015225,9.29218,0.012395066,0.020038212,0.029061915,-0.07528030127286911,-0.04403233155608177,-1.663379192352295,1015.20483,
2021.02.13 18:48:53,39.0,24.0,18.6,-3.54,-23.64,0.29210153,0.7709565,10.115811,-0.051134918,0.009653503,-0.016752979,-0.07603440433740616,-0.02886771783232689,-1.6626572608947754,1015.20483,
2021.02.13 18:48:53,39.0,24.0,18.3,-3.6,-23.64,0.34716985,0.5770202,9.483723,0.015449394,0.0053774468,-0.028359419,-0.06072773411870003,-0.0365905798971653,-1.6851742267608643,1015.2007,
2021.02.13 18:48:53,39.0,24.0,18.84,-3.3,-23.939999,0.25858167,0.5770202,9.79019,-0.008374351,0.008431774,-0.022250766,-0.058850035071372986,-0.02640618570148945,-1.6689096689224243,1015.2007,
2021.02.13 18:48:53,39.0,24.0,18.66,-3.3,-24.06,0.339987,0.6608198,9.754275,0.025834102,-0.013559376,-0.031413745,-0.06760239601135254,-0.03484107553958893,-1.6584299802780151,1015.1926,
2021.02.13 18:48:53,39.0,24.0,18.9,-2.82,-24.06,0.22027329,0.43336374,9.648928,0.034997083,-0.0050072623,-0.062567875,-0.044871315360069275,-0.02282482013106346,-1.6609407663345337,1015.1897,
2021.02.13 18:48:53,39.0,24.0,18.96,-2.82,-23.88,0.28970724,0.4166038,9.598648,0.0117842015,-0.021500623,-0.044241916,-0.04335539788007736,-0.030172929167747498,-1.6624274253845215,1015.1897,
2021.02.13 18:48:53,39.0,24.0,18.96,-3.3,-23.699999,0.27294734,0.5363176,9.737515,0.005675549,-0.027609276,-0.05523749,-0.05500030517578125,-0.02802315354347229,-1.6735031604766846,1015.18726,
2021.02.13 18:48:53,39.0,24.0,19.14,-3.24,-23.88,0.09337672,0.4764607,9.663293,0.014227662,-0.0105050495,-0.063789606,-0.04926404729485512,-0.009662732481956482,-1.677222728729248,1015.18726,
2021.02.13 18:48:53,39.0,24.0,18.779999,-3.6599998,-24.0,0.03351985,0.38068968,9.560339,0.009951605,0.0023231206,-0.04240932,-0.03979841619729996,-0.0035061214584857225,-1.7132105827331543,1015.18555,
2021.02.13 18:48:54,39.0,24.0,18.48,-3.72,-24.18,0.25379312,0.52674043,9.567522,0.0032320882,0.0017122553,0.0064598997,-0.05498022958636284,-0.02652030624449253,-1.69637131690979,1015.1848,
2021.02.13 18:48:54,39.0,24.0,18.359999,-3.12,-24.359999,0.16520496,0.4189981,9.591465,-0.010817813,0.003544851,-0.0069791353,-0.043650250881910324,-0.017222460359334946,-1.6804901361465454,1015.1848,
2021.02.13 18:48:54,39.0,24.0,18.24,-3.3,-24.359999,0.18675344,0.3998439,9.596253,-0.046247996,0.011486099,0.024174992,-0.041634704917669296,-0.019458621740341187,-1.6930121183395386,1015.1821,
2021.02.13 18:48:54,39.0,24.0,18.66,-3.3,-24.24,0.23942748,0.57223165,9.852441,-0.055410977,0.009653503,0.019898936,-0.0579979307949543,-0.024296553805470467,-1.6700390577316284,1015.1821,
2021.02.13 18:48:54,39.0,24.0,19.14,-3.6599998,-23.88,0.12450229,0.5123748,9.663293,-0.021202521,0.0029339858,0.008903361,-0.05296880379319191,-0.012883330695331097,-1.6937822103500366,1015.1763,
2021.02.13 18:48:54,39.0,24.0,19.26,-3.8999999,-23.82,0.20351335,0.39266106,9.665688,-0.01875906,-0.0025638016,0.024785858,-0.04059291258454323,-0.021052129566669464,-1.7188557386398315,1015.17676,
2021.02.13 18:48:54,39.0,24.0,19.199999,-3.8999999,-23.699999,0.36392978,0.47885495,9.624985,-0.021813387,-0.0062289927,0.017455475,-0.04967481642961502,-0.03779293969273567,-1.707146167755127,1015.17676,
2021.02.13 18:48:54,39.0,24.0,18.9,-4.02,-23.82,0.2083019,0.4189981,9.725544,-0.034641556,-0.001342071,-0.0063682706,-0.04304574429988861,-0.021414747461676598,-1.7246233224868774,1015.17944,
2021.02.13 18:48:54,39.0,24.0,18.96,-3.72,-24.06,0.20590763,0.44533512,9.720756,-0.0114286775,-0.019057164,0.0064598997,-0.045770544558763504,-0.02117909863591194,-1.7052905559539795,1015.17944,
2021.02.13 18:48:54,39.0,24.0,18.779999,-3.72,-24.119999,0.3040729,0.42378664,9.787795,-0.033419825,-0.0105050495,0.009514226,-0.04324958845973015,-0.031056547537446022,-1.708213448524475,1015.18066,
2021.02.13 18:48:54,39.0,24.0,18.9,-3.6599998,-24.119999,0.2561874,0.41420954,9.711179,-0.0059308903,-0.028220143,0.0021838432,-0.042612213641405106,-0.02637455239892006,-1.7057034969329834,1015.1824,
2021.02.13 18:48:54,39.0,24.0,18.9,-3.3,-24.18,0.31604427,0.42139238,9.663293,-0.0065417555,-0.020278895,-0.003313944,-0.04355666786432266,-0.03269399330019951,-1.6857061386108398,1015.1824,
2021.02.13 18:48:54,39.0,24.0,18.66,-3.0,-24.119999,0.29210153,0.4644893,9.62259,-0.014483005,-0.007450723,-0.025915958,-0.04821110516786575,-0.030346492305397987,-1.6665613651275635,1015.18994,
2021.02.13 18:48:54,39.0,24.0,18.6,-2.76,-24.06,0.19633053,0.40463245,9.766247,-0.021202521,-0.0050072623,-0.028359419,-0.04139968752861023,-0.02010026015341282,-1.6636903285980225,1015.18994,
2021.02.13 18:48:54,39.0,24.0,18.48,-2.52,-24.0,0.25379312,0.44533512,9.8548355,0.005675549,-0.014781106,-0.014920384,-0.04514383524656296,-0.02574746496975422,-1.6469215154647827,1015.18164,
2021.02.13 18:48:54,39.0,24.0,18.539999,-2.6399999,-24.119999,0.2466103,0.41420954,9.598648,0.024001507,-0.0123376455,-0.016142115,-0.04311194270849228,-0.025686539709568024,-1.6551175117492676,1015.1819,
2021.02.13 18:48:54,39.0,24.0,18.539999,-3.1799998,-24.06,0.11492519,0.36871833,9.749487,0.011173336,-0.0062289927,-0.0039248094,-0.03779861330986023,-0.011787273921072483,-1.691175937652588,1015.1819,
2021.02.13 18:48:55,39.0,24.0,18.84,-3.1799998,-24.0,0.22506183,0.40463245,9.61062,0.026444968,-0.008672453,0.008903361,-0.042066268622875214,-0.023413756862282753,-1.6830588579177856,1015.1863,
2021.02.13 18:48:55,39.0,24.0,18.9,-3.24,-24.359999,0.22506183,0.42139238,9.596253,0.0032320882,0.003544851,0.017455475,-0.043871939182281494,-0.023448796942830086,-1.6827397346496582,1015.1863,
2021.02.13 18:48:55,39.0,24.0,19.26,-3.54,-23.88,0.32801566,0.5650489,9.778218,-0.0028765644,0.0047665816,0.024174992,-0.057689912617206573,-0.033532969653606415,-1.6798515319824219,1015.18945,
2021.02.13 18:48:55,39.0,24.0,19.32,-3.1799998,-24.18,0.2849187,0.48124924,9.732727,0.033164486,-0.015391972,0.009514226,-0.049385134130716324,-0.029265934601426125,-1.6709084510803223,1015.19385,
2021.02.13 18:48:55,39.0,24.0,19.08,-3.48,-24.3,0.3040729,0.51716334,9.543579,0.037440542,-0.019057164,0.010735957,-0.05410931259393692,-0.03185074403882027,-1.6809215545654297,1015.19385,
2021.02.13 18:48:55,39.0,24.0,19.26,-3.4199998,-24.3,0.1699935,0.40463245,9.617802,-4.3310347E-4,-0.005618128,0.010125091,-0.04203984513878822,-0.01767304167151451,-1.6926183700561523,1015.19336,
2021.02.13 18:48:55,39.0,24.0,18.96,-3.12,-24.48,0.28970724,0.5123748,9.634562,-0.015704734,0.005988312,0.038835756,-0.05310690775513649,-0.030060525983572006,-1.6643394231796265,1015.19336,
2021.02.13 18:48:55,39.0,24.0,18.96,-3.12,-24.3,0.38308397,0.5985687,9.711179,-0.0150938695,0.003544851,0.03333797,-0.061511486768722534,-0.03942728787660599,-1.654377818107605,1015.1975,
2021.02.13 18:48:55,39.0,24.0,19.02,-3.3,-24.359999,0.28252444,0.53871185,9.747093,0.0013994923,-0.004396397,0.0076816306,-0.05518966540694237,-0.028977394104003906,-1.6709880828857422,1015.1924,
2021.02.13 18:48:55,39.0,24.0,18.72,-3.4199998,-24.42,0.19154198,0.44772938,9.660899,0.008729876,-0.005618128,0.013179418,-0.04630226269364357,-0.019823919981718063,-1.6901938915252686,1015.1924,
2021.02.13 18:48:55,39.0,24.0,18.84,-3.48,-24.3,0.34956414,0.5123748,9.598648,0.025834102,0.00110139,0.036392298,-0.05329401418566704,-0.03640197217464447,-1.6828464269638062,1015.1907,
2021.02.13 18:48:55,39.0,24.0,18.779999,-3.54,-24.48,0.37350687,0.52674043,9.656111,-0.0065417555,0.01392956,0.013179418,-0.05445530265569687,-0.03866160660982132,-1.6840890645980835,1015.1907,
2021.02.13 18:48:55,39.0,24.0,18.6,-3.54,-24.6,0.2681588,0.57223165,9.838076,0.005675549,0.0053774468,0.0027947086,-0.058078013360500336,-0.027250492945313454,-1.6812324523925781,1015.18384,
2021.02.13 18:48:55,39.0,24.0,18.539999,-3.78,-24.84,0.18675344,0.47167215,9.574705,0.031942755,-0.003785532,0.005849035,-0.04921318218111992,-0.01950240321457386,-1.7051740884780884,1015.1929,
2021.02.13 18:48:55,39.0,24.0,18.539999,-3.84,-25.019999,0.22266756,0.4070267,9.577099,-0.0114286775,0.020038212,0.016233744,-0.04246297478675842,-0.023245813325047493,-1.7158743143081665,1015.1929,
2021.02.13 18:48:55,39.0,24.0,18.48,-3.8999999,-25.199999,0.2944958,0.55307746,9.553157,-0.004098295,0.003544851,0.011957687,-0.05780278518795967,-0.0308173056691885,-1.6984899044036865,1015.188,
2021.02.13 18:48:56,39.0,24.0,18.42,-3.84,-25.199999,0.25379312,0.49082634,9.794978,0.0026212228,-0.0062289927,-0.003313944,-0.05005134642124176,-0.025904739275574684,-1.706258773803711,1015.188,
2021.02.13 18:48:56,39.0,24.0,18.66,-3.84,-24.48,0.2849187,0.4740664,9.562734,0.01606026,-0.007450723,-0.0020922134,-0.049511875957250595,-0.0297858789563179,-1.7067772150039673,1015.1909,
2021.02.13 18:48:56,39.0,24.0,18.84,-3.84,-24.539999,0.27294734,0.4956149,9.703996,-0.008985217,-0.001342071,-0.0020922134,-0.05100879818201065,-0.028119901195168495,-1.7037651538848877,1015.19385,
2021.02.13 18:48:56,39.0,24.0,19.14,-3.84,-24.119999,0.339987,0.51955765,9.672871,7.88627E-4,-0.0050072623,-0.0020922134,-0.05362825095653534,-0.03513404726982117,-1.6991660594940186,1015.19385,
2021.02.13 18:48:56,39.0,24.0,18.9,-4.08,-24.119999,0.22027329,0.46927786,9.744699,-0.0132612735,4.905248E-4,-0.024083363,-0.048107802867889404,-0.022600574418902397,-1.7207005023956299,1015.1821,
2021.02.13 18:48:56,39.0,24.0,19.199999,-3.84,-24.18,0.16520496,0.4836435,9.792584,-0.0053200256,-0.0019529362,-0.013698653,-0.04934164136648178,-0.01686881296336651,-1.7055951356887817,1015.1821,
2021.02.13 18:48:56,39.0,24.0,18.72,-3.72,-24.0,0.31843856,0.505192,9.660899,0.005064684,4.905248E-4,0.00523817,-0.0522165447473526,-0.03294965252280235,-1.69805908203125,1015.1826,
2021.02.13 18:48:56,39.0,24.0,18.24,-3.6,-23.88,0.2561874,0.5411061,9.675264,0.0032320882,4.905248E-4,-0.0063682706,-0.055849019438028336,-0.026472410187125206,-1.6915282011032104,1015.1736,
2021.02.13 18:48:56,39.0,24.0,18.72,-3.06,-23.58,0.2083019,0.47885495,9.830893,0.0038429531,0.0041557164,-0.005757405,-0.04865983501076698,-0.021185334771871567,-1.6708487272262573,1015.1736,
2021.02.13 18:48:56,39.0,24.0,18.42,-2.82,-23.64,0.20351335,0.45491222,9.569917,0.019725451,0.00110139,3.5124752E-4,-0.04748917371034622,-0.021262742578983307,-1.661119818687439,1015.17676,
2021.02.13 18:48:56,39.0,24.0,18.9,-3.0,-24.18,0.26337022,0.54350036,9.684841,-0.0016548339,-0.005618128,0.014401148,-0.05603918805718422,-0.027187367901206017,-1.6560226678848267,1015.17676,
2021.02.13 18:48:56,39.0,24.0,19.14,-2.82,-24.48,0.2944958,0.5363176,9.620196,0.0038429531,-0.0025638016,0.010735957,-0.05566545948386192,-0.03060268796980381,-1.645449161529541,1015.17896,
2021.02.13 18:48:56,39.0,24.0,19.02,-2.8799999,-24.779999,0.18435916,0.48843205,9.555551,-0.0065417555,0.007820908,0.0021838432,-0.05106107518076897,-0.019291017204523087,-1.6542394161224365,1015.18066,
2021.02.13 18:48:56,39.0,24.0,19.199999,-3.36,-24.72,0.27294734,0.5458947,9.6585045,-0.0077634864,-0.0062289927,0.019898936,-0.056437037885189056,-0.02825227566063404,-1.6705821752548218,1015.18066,
2021.02.13 18:48:56,39.0,24.0,19.14,-3.4199998,-24.0,0.22027329,0.505192,9.675264,-0.0059308903,-0.0019529362,0.008292495,-0.05215393379330635,-0.022762710228562355,-1.6814758777618408,1015.1804,
2021.02.13 18:48:56,39.0,24.0,19.02,-3.36,-24.18,0.1987248,0.4764607,9.603436,1.7776179E-4,-0.003785532,0.008903361,-0.04956232011318207,-0.02069013938307762,-1.6819208860397339,1015.1804,
2021.02.13 18:48:56,39.0,24.0,19.14,-3.6599998,-23.699999,0.31843856,0.5650489,9.771035,-0.004098295,-0.004396397,0.011957687,-0.05773404985666275,-0.032578520476818085,-1.6869966983795166,1015.1853,
2021.02.13 18:48:57,39.0,24.0,18.84,-3.6,-23.699999,0.22745611,0.51955765,9.77343,-0.0022656992,4.905248E-4,-0.0014813483,-0.053095877170562744,-0.02326870523393154,-1.6919736862182617,1015.18677,
2021.02.13 18:48:57,39.0,24.0,18.66,-3.3,-24.0,0.1987248,0.4668836,9.613013,0.0117842015,-0.0025638016,0.0027947086,-0.04851938784122467,-0.02066953480243683,-1.6826425790786743,1015.18677,
2021.02.13 18:48:57,39.0,24.0,18.539999,-3.54,-23.64,0.28252444,0.49082634,9.670476,1.7776179E-4,-1.2034045E-4,0.010735957,-0.05069002881646156,-0.02920684404671192,-1.6932450532913208,1015.1907,
2021.02.13 18:48:57,39.0,24.0,18.66,-3.36,-24.3,0.29210153,0.5363176,9.703996,7.88627E-4,0.00110139,0.00523817,-0.05518658831715584,-0.03009207546710968,-1.675970435142517,1015.1907,
2021.02.13 18:48:57,39.0,24.0,18.48,-3.24,-24.24,0.26337022,0.49800915,9.670476,-0.009596081,-0.005618128,-0.0027030788,-0.05143340304493904,-0.02722773142158985,-1.6757683753967285,1015.18994,
2021.02.13 18:48:57,39.0,24.0,18.359999,-3.36,-24.06,0.23942748,0.50758624,9.574705,0.008729876,-0.008672453,0.001572978,-0.05294715240597725,-0.0250010397285223,-1.6814782619476318,1015.187,
2021.02.13 18:48:57,39.0,24.0,18.779999,-2.9399998,-23.939999,0.20590763,0.5027977,9.70639,-0.019369926,-0.006839858,-2.5961772E-4,-0.05174281448125839,-0.021210432052612305,-1.6596931219100952,1015.187,
2021.02.13 18:48:57,39.0,24.0,18.48,-2.82,-23.519999,0.25858167,0.51955765,9.696813,-0.007152621,-0.008672453,0.004016439,-0.05351008102297783,-0.02666034735739231,-1.6535788774490356,1015.1853,
2021.02.13 18:48:57,39.0,24.0,19.02,-2.3999999,-23.64,0.31365,0.49800915,9.636956,-0.0047091604,-0.007450723,-0.0063682706,-0.05160381272435188,-0.03253509849309921,-1.631895899772644,1015.1853,
2021.02.13 18:48:57,39.0,24.0,19.02,-2.58,-23.76,0.22506183,0.52674043,9.63935,-0.004098295,-0.0025638016,-0.013087788,-0.05457567051053047,-0.023343997076153755,-1.6373658180236816,1015.18604,
2021.02.13 18:48:57,39.0,24.0,19.08,-2.82,-24.24,0.2466103,0.46927786,9.744699,0.0075081447,-0.007450723,-0.0069791353,-0.04810469597578049,-0.025301724672317505,-1.655658483505249,1015.1887,
2021.02.13 18:48:57,39.0,24.0,19.38,-3.12,-24.42,0.28252444,0.4644893,9.60583,0.0075081447,-0.007450723,-2.5961772E-4,-0.04829644784331322,-0.029403289780020714,-1.668319821357727,1015.1887,
2021.02.13 18:48:57,39.0,24.0,19.02,-3.4199998,-24.48,0.2370332,0.4860378,9.577099,-0.0034874296,0.0041557164,-2.5961772E-4,-0.05069100111722946,-0.024744948372244835,-1.6824332475662231,1015.17944,
2021.02.13 18:48:57,39.0,24.0,19.32,-3.24,-24.359999,0.28731298,0.4836435,9.720756,-0.0077634864,-0.0019529362,0.005849035,-0.049691036343574524,-0.029548048973083496,-1.6730237007141113,1015.17944,
2021.02.13 18:48:57,39.0,24.0,19.08,-3.6,-23.939999,0.24900457,0.4764607,9.77343,-0.0047091604,-0.008061589,0.011346822,-0.04869627207517624,-0.02547219581902027,-1.6948509216308594,1015.17236,
2021.02.13 18:48:57,39.0,24.0,18.84,-3.36,-23.939999,0.31604427,0.45491222,9.577099,0.0136167975,-0.008061589,0.022342395,-0.047438543289899826,-0.03298803046345711,-1.6850330829620361,1015.1792,
2021.02.13 18:48:57,39.0,24.0,18.96,-3.4199998,-23.82,0.24421602,0.45970076,9.725544,-0.007152621,0.0017122553,0.013179418,-0.047217343002557755,-0.025105508044362068,-1.688635230064392,1015.1792,
2021.02.13 18:48:58,39.0,24.0,18.48,-3.6,-24.18,0.22745611,0.5554718,9.711179,-0.004098295,0.01392956,0.022342395,-0.05712132528424263,-0.02341780997812748,-1.68783438205719,1015.18994,
2021.02.13 18:48:58,39.0,24.0,18.539999,-3.3,-24.42,0.27294734,0.45491222,9.751882,0.005064684,-0.005618128,0.012568552,-0.046596646308898926,-0.027981892228126526,-1.6839429140090942,1015.18994,
2021.02.13 18:48:58,39.0,24.0,18.6,-3.24,-24.6,0.2944958,0.6440599,9.316123,0.043549195,0.0072100423,0.036392298,-0.06898972392082214,-0.031600888818502426,-1.6520837545394897,1015.18726,
2021.02.13 18:48:58,39.0,24.0,18.6,-3.24,-24.539999,0.31125572,0.5027977,9.534002,1.7776179E-4,-7.312057E-4,0.024174992,-0.0526605062186718,-0.032635319977998734,-1.672372579574585,1015.1885,
2021.02.13 18:48:58,39.0,24.0,18.96,-3.1799998,-24.18,0.28970724,0.55786604,9.699207,-0.007152621,-7.312057E-4,0.014401148,-0.05742780864238739,-0.02986028976738453,-1.6630454063415527,1015.1885,
2021.02.13 18:48:58,39.0,24.0,18.779999,-3.36,-24.0,0.22027329,0.48843205,9.620196,0.010562471,-0.005618128,0.009514226,-0.05071469768881798,-0.022892963141202927,-1.6821690797805786,1015.18604,
2021.02.13 18:48:58,39.0,24.0,18.6,-3.6599998,-23.82,0.2561874,0.52913475,9.715967,0.0032320882,-0.006839858,0.015622879,-0.05438771843910217,-0.026361562311649323,-1.6943386793136597,1015.19165,
2021.02.13 18:48:58,39.0,24.0,18.779999,-3.72,-24.06,0.27294734,0.51955765,9.586677,-0.0022656992,0.00110139,0.0205098,-0.054120950400829315,-0.02846384048461914,-1.6956743001937866,1015.19165,
2021.02.13 18:48:58,39.0,24.0,18.779999,-3.72,-24.06,0.20351335,0.54828894,9.677659,-0.0047091604,4.905248E-4,0.013179418,-0.05658213421702385,-0.021026093512773514,-1.6934057474136353,1015.1914,
2021.02.13 18:48:58,39.0,24.0,19.14,-3.72,-24.18,0.22745611,0.505192,9.749487,0.0026212228,0.0041557164,0.015622879,-0.051756925880908966,-0.023325828835368156,-1.6964099407196045,1015.1914,
2021.02.13 18:48:58,39.0,24.0,19.199999,-3.54,-23.939999,0.26337022,0.53871185,9.632168,0.00811901,0.0053774468,0.022342395,-0.05584937334060669,-0.027335966005921364,-1.6825828552246094,1015.1853,
2021.02.13 18:48:58,39.0,24.0,18.9,-3.54,-23.939999,0.2849187,0.59378016,9.58907,-0.0016548339,0.008431774,0.015622879,-0.061816420406103134,-0.029704120010137558,-1.6769942045211792,1015.1853,
2021.02.13 18:48:58,39.0,24.0,19.14,-3.54,-24.119999,0.23224466,0.52913475,9.62259,-0.004098295,0.006599177,0.007070765,-0.05491752550005913,-0.024130674079060555,-1.6837446689605713,1015.18677,
2021.02.13 18:48:58,39.0,24.0,18.6,-3.6,-24.18,0.2466103,0.4932206,9.634562,-0.0016548339,0.0041557164,0.014401148,-0.0511314757168293,-0.025590835139155388,-1.694260835647583,1015.19995,
2021.02.13 18:48:58,39.0,24.0,18.359999,-4.02,-24.359999,0.29689008,0.5913859,9.636956,-0.0028765644,0.006599177,0.012568552,-0.061260614544153214,-0.03079771250486374,-1.7038390636444092,1015.19995,
2021.02.13 18:48:58,39.0,24.0,18.42,-3.9599998,-24.359999,0.28252444,0.5458947,9.512454,0.010562471,-1.2034045E-4,9.621128E-4,-0.057299282401800156,-0.029691750183701515,-1.7053520679473877,1015.19727,
2021.02.13 18:48:59,39.0,24.0,17.82,-3.54,-24.359999,0.17957062,0.5363176,9.715967,-0.009596081,-1.2034045E-4,-0.0045356746,-0.05513424798846245,-0.018479907885193825,-1.6912264823913574,1015.19727,
2021.02.13 18:48:59,39.0,24.0,18.3,-3.1799998,-24.24,0.25139886,0.5650489,9.646533,-0.004098295,0.00110139,0.0034055738,-0.058488667011260986,-0.02605516090989113,-1.6648863554000854,1015.2012,
2021.02.13 18:48:59,39.0,24.0,18.539999,-3.0,-24.18,0.21787901,0.531529,9.629773,-0.0022656992,0.0029339858,-0.0014813483,-0.05512639135122299,-0.022621700540184975,-1.6589537858963013,1015.19995,
2021.02.13 18:48:59,39.0,24.0,18.3,-3.24,-24.0,0.22985038,0.51716334,9.687236,-0.018148195,0.009653503,-0.0063682706,-0.053320445120334625,-0.023722687736153603,-1.6753642559051514,1015.19995,
2021.02.13 18:48:59,39.0,24.0,18.6,-3.72,-23.82,0.2561874,0.505192,9.718362,0.0013994923,0.021870807,-0.016142115,-0.05191848799586296,-0.026355069130659103,-1.7003755569458008,1015.1904,
2021.02.13 18:48:59,39.0,24.0,18.359999,-4.02,-23.64,0.023942748,0.49800915,9.62259,0.014227662,0.010264369,0.0027947086,-0.05170787498354912,-0.002488176105543971,-1.7214034795761108,1015.1904,
2021.02.13 18:48:59,39.0,24.0,18.66,-4.14,-23.939999,0.12450229,0.5123748,9.715967,0.012395066,0.02064908,0.008292495,-0.052682217210531235,-0.012813492678105831,-1.7218276262283325,1015.1936,
2021.02.13 18:48:59,39.0,24.0,18.9,-4.08,-23.88,0.37829542,0.6488485,9.601042,0.024001507,0.019427348,0.0205098,-0.06742629408836365,-0.039381127804517746,-1.6968892812728882,1015.18994,
2021.02.13 18:48:59,39.0,24.0,18.84,-3.72,-24.42,0.29689008,0.62251145,9.708784,0.0032320882,0.0017122553,-0.01797471,-0.06400088965892792,-0.030570005998015404,-1.6821002960205078,1015.18994,
2021.02.13 18:48:59,39.0,24.0,18.6,-3.72,-24.539999,0.24182175,0.50040346,10.082292,-0.08351078,-0.086863205,-0.005757405,-0.04957699030637741,-0.02398020215332508,-1.7015044689178467,1015.1831,
2021.02.13 18:48:59,39.0,24.0,18.359999,-3.6599998,-24.06,0.22266756,0.5698374,10.051166,0.031942755,0.018816482,0.015012014,-0.056619178503751755,-0.022149784490466118,-1.6927998065948486,1015.1831,
