Time,X-cord,Y-cord,Mag_x,Mag_y,Mag_z,Acc_x,Acc_y,Acc_z,Gyro_x,Gyro_y,Gyro_z,Orn_x,Orn_y,Orn_z,Pressure,
2021.02.13 19:01:13,79.0,14.0,31.439999,7.74,-33.059998,0.22027329,0.36392978,9.62259,-0.024256848,0.0041557164,-0.046074513,-0.037792447954416275,-0.022887270897626877,-1.2994205951690674,1015.25415,
2021.02.13 19:01:13,79.0,14.0,31.679998,7.9199996,-33.239998,0.08619389,0.48124924,9.651321,-0.06640655,-0.055098213,-0.039965857,-0.04982031509280205,-0.008930549025535583,-1.2805253267288208,1015.25415,
2021.02.13 19:01:13,79.0,14.0,31.92,8.34,-33.12,-0.076616794,0.28013015,9.656111,-0.047469728,-0.025165815,0.001572978,-0.029001612216234207,0.007934372872114182,-1.284932255744934,1015.2495,
2021.02.13 19:01:14,79.0,14.0,32.399998,8.28,-33.12,0.18914771,0.3040729,9.73991,-0.034030695,-0.01294851,0.032727104,-0.0312032513320446,-0.019417421892285347,-1.2966909408569336,1015.2495,
2021.02.13 19:01:14,79.0,14.0,32.94,8.34,-33.42,0.1699935,0.41181526,9.586677,-0.027311174,-1.2034045E-4,0.062048636,-0.042923908680677414,-0.017730409279465675,-1.2880388498306274,1015.2522,
2021.02.13 19:01:14,79.0,14.0,33.059998,7.98,-33.42,0.22985038,0.27055305,10.034406,-0.019369926,0.015762156,0.050442196,-0.026948941871523857,-0.022902222350239754,-1.3146381378173828,1015.26514,
2021.02.13 19:01:14,79.0,14.0,33.12,7.74,-33.54,0.14126222,0.38547826,9.61062,0.035607945,-0.021500623,0.08648325,-0.04008379951119423,-0.01469749677926302,-1.3075377941131592,1015.26514,
2021.02.13 19:01:14,79.0,14.0,33.36,7.7999997,-33.66,-0.03351985,0.4285752,9.534002,0.042327464,-0.004396397,0.051663928,-0.044921763241291046,0.00351580698043108,-1.2977502346038818,1015.2593,
2021.02.13 19:01:14,79.0,14.0,33.54,7.68,-33.48,0.07422252,0.2944958,9.632168,0.041105732,-0.020278895,0.058383446,-0.03056376986205578,-0.007705539930611849,-1.3190799951553345,1015.2593,
2021.02.13 19:01:14,79.0,14.0,33.66,7.9199996,-33.3,0.28970724,0.34716985,9.126976,0.08692063,0.04080763,0.11275045,-0.03800032287836075,-0.03173121064901352,-1.313291311264038,1015.25195,
2021.02.13 19:01:14,79.0,14.0,34.26,7.8599997,-32.52,-0.0023942748,0.43575802,9.974549,-0.065184824,0.04630542,0.037003163,-0.04365922883152962,2.4003838188946247E-4,-1.306428074836731,1015.24756,
2021.02.13 19:01:14,79.0,14.0,33.84,7.7999997,-32.399998,0.083799616,0.53871185,9.73991,-0.06335222,0.0395859,0.043111816,-0.05525139719247818,-0.00860352348536253,-1.2975623607635498,1015.24756,
2021.02.13 19:01:14,79.0,14.0,33.899998,7.9199996,-31.98,0.26097596,0.47885495,9.675264,0.011173336,0.0053774468,0.051663928,-0.04943440109491348,-0.026966983452439308,-1.3054126501083374,1015.24414,
2021.02.13 19:01:14,79.0,14.0,33.899998,7.8599997,-31.439999,0.043096945,0.43575802,9.6585045,0.033164486,0.0023231206,0.03822489,-0.04508548974990845,-0.004462042823433876,-1.3051303625106812,1015.24414,
2021.02.13 19:01:14,79.0,14.0,33.239998,7.56,-32.04,-0.11971374,0.4166038,9.818921,0.01606026,-0.03982658,9.621128E-4,-0.04240009933710098,0.01219154428690672,-1.3053910732269287,1015.24414,
2021.02.13 19:01:14,79.0,14.0,33.66,7.5,-32.04,-0.12210801,0.35435268,9.718362,7.88627E-4,-0.037993982,0.0205098,-0.036443162709474564,0.012564009055495262,-1.3155421018600464,1015.2529,
2021.02.13 19:01:14,79.0,14.0,33.36,7.14,-32.52,0.11492519,0.409421,9.672871,0.042327464,-0.02577668,0.08159633,-0.04229850322008133,-0.011880628764629364,-1.3242592811584473,1015.2529,
2021.02.13 19:01:14,79.0,14.0,32.76,6.66,-32.76,0.34956414,0.5770202,9.452597,0.028277563,-0.02333322,0.10358747,-0.060926370322704315,-0.03696390986442566,-1.3235952854156494,1015.2561,
2021.02.13 19:01:14,79.0,14.0,32.88,6.72,-32.7,0.31843856,0.56744313,9.727939,0.013005932,-0.011115915,0.076709405,-0.058234140276908875,-0.032722748816013336,-1.3240127563476562,1015.2561,
2021.02.13 19:01:14,79.0,14.0,32.579998,6.54,-32.7,0.19633053,0.4764607,9.624985,0.01606026,-0.034939658,0.049220465,-0.04945183917880058,-0.020395182073116302,-1.3313404321670532,1015.25757,
2021.02.13 19:01:15,79.0,14.0,32.76,6.48,-32.7,0.18435916,0.46209505,9.651321,0.01606026,-0.01294851,0.01806634,-0.04783369228243828,-0.019099637866020203,-1.3353900909423828,1015.25854,
2021.02.13 19:01:15,79.0,14.0,33.059998,6.48,-33.239998,0.25858167,0.56265455,9.478934,-0.0016548339,-0.009894184,0.012568552,-0.05926685407757759,-0.027272850275039673,-1.3287348747253418,1015.25854,
2021.02.13 19:01:15,79.0,14.0,32.94,6.6,-33.239998,0.21309046,0.5458947,9.833286,0.022779776,-0.027609276,0.009514226,-0.05544506385922432,-0.021666929125785828,-1.3264100551605225,1015.25195,
2021.02.13 19:01:15,79.0,14.0,32.94,6.6,-33.36,0.13886794,0.52674043,9.665688,1.7776179E-4,-0.025165815,-0.010033461,-0.05443645268678665,-0.014366116374731064,-1.325101375579834,1015.25195,
2021.02.13 19:01:15,79.0,14.0,32.579998,6.24,-33.12,0.13168511,0.4836435,9.651321,0.005675549,4.905248E-4,-0.013698653,-0.05006510391831398,-0.013643410988152027,-1.3369603157043457,1015.2549,
2021.02.13 19:01:15,79.0,14.0,32.64,6.2999997,-32.76,0.19633053,0.54350036,9.648928,0.0032320882,0.0041557164,-2.5961772E-4,-0.05625646188855171,-0.020344587042927742,-1.3323462009429932,1015.2539,
2021.02.13 19:01:15,79.0,14.0,32.579998,6.06,-32.94,0.22745611,0.57223165,9.778218,-4.3310347E-4,0.0053774468,0.009514226,-0.05843861401081085,-0.023257315158843994,-1.3372994661331177,1015.2539,
2021.02.13 19:01:15,79.0,14.0,32.7,5.8199997,-32.94,0.20351335,0.53392327,9.696813,-0.0022656992,-0.001342071,-0.0045356746,-0.054994095116853714,-0.020984573289752007,-1.3474220037460327,1015.2556,
2021.02.13 19:01:15,79.0,14.0,32.34,5.46,-32.88,0.19154198,0.5506832,9.555551,-0.0053200256,0.00110139,-0.014920384,-0.0575544536113739,-0.02004241943359375,-1.3529077768325806,1015.2556,
2021.02.13 19:01:15,79.0,14.0,32.16,5.46,-33.059998,0.083799616,0.51716334,9.696813,1.7776179E-4,-1.2034045E-4,-0.0069791353,-0.05328086391091347,-0.008641759864985943,-1.3524760007858276,1015.26074,
2021.02.13 19:01:15,79.0,14.0,32.16,5.46,-33.0,0.20351335,0.5818088,9.680053,-0.0059308903,-0.034328792,-0.013087788,-0.06001843884587288,-0.02102089673280716,-1.3495359420776367,1015.2595,
2021.02.13 19:01:15,79.0,14.0,32.1,5.2799997,-33.12,0.2657645,0.6057515,9.727939,-0.008374351,-0.0019529362,-0.010644327,-0.062165819108486176,-0.02731292136013508,-1.3538464307785034,1015.2595,
2021.02.13 19:01:15,79.0,14.0,32.399998,6.06,-33.6,0.15562786,0.54350036,9.634562,0.0026212228,-0.0025638016,-0.013087788,-0.05634447559714317,-0.016151677817106247,-1.3350328207015991,1015.2532,
2021.02.13 19:01:15,79.0,14.0,32.52,5.94,-34.02,0.14844504,0.57223165,9.72315,0.019114584,0.0029339858,-0.015531249,-0.058777857571840286,-0.015265989117324352,-1.3361018896102905,1015.2532,
2021.02.13 19:01:15,79.0,14.0,32.579998,5.7599998,-33.84,0.18914771,0.61293435,9.61062,7.88627E-4,-7.312057E-4,-0.025915958,-0.06367821991443634,-0.019678574055433273,-1.3385813236236572,1015.24976,
2021.02.13 19:01:15,79.0,14.0,32.52,6.0,-33.6,0.17957062,0.6440599,9.641745,0.010562471,-0.004396397,-0.008200866,-0.06668847799301147,-0.018622133880853653,-1.3286601305007935,1015.2529,
2021.02.13 19:01:15,79.0,14.0,33.0,5.94,-33.3,0.12450229,0.55786604,9.648928,0.00934074,0.00110139,-0.0027030788,-0.057747289538383484,-0.012902509421110153,-1.340779423713684,1015.2529,
2021.02.13 19:01:16,79.0,14.0,33.12,5.8799996,-32.7,0.22506183,0.72546524,9.581888,0.005675549,-0.011115915,-2.5961772E-4,-0.0755472183227539,-0.023483935743570328,-1.331319808959961,1015.2473,
2021.02.13 19:01:16,79.0,14.0,33.059998,6.06,-32.94,0.17478207,0.5865973,9.581888,0.0062864143,-0.004396397,0.009514226,-0.06113293766975403,-0.01823885552585125,-1.3367489576339722,1015.2473,
2021.02.13 19:01:16,79.0,14.0,32.88,6.12,-32.76,0.09337672,0.54350036,9.768641,-0.013872139,-0.006839858,0.008903361,-0.055577412247657776,-0.009558532387018204,-1.336767554283142,1015.2407,
2021.02.13 19:01:16,79.0,14.0,32.399998,5.7599998,-32.7,0.24182175,0.531529,9.720756,0.013005932,-0.009283319,0.015622879,-0.0546085461974144,-0.024871716275811195,-1.348880648612976,1015.24023,
2021.02.13 19:01:16,79.0,14.0,32.16,5.52,-33.059998,0.20351335,0.6153286,9.677659,-0.013872139,-0.007450723,0.022953263,-0.06348291039466858,-0.021026095375418663,-1.3445016145706177,1015.24023,
2021.02.13 19:01:16,79.0,14.0,32.399998,5.58,-32.82,0.17717634,0.51716334,9.797373,-0.0163156,-0.0025638016,0.013179418,-0.05272836983203888,-0.018082095310091972,-1.353857398033142,1015.24194,
2021.02.13 19:01:16,79.0,14.0,32.52,5.4,-33.0,0.16520496,0.52913475,9.775824,0.0026212228,-0.0031746665,0.017455475,-0.05406640097498894,-0.01689773052930832,-1.3580148220062256,1015.24194,
2021.02.13 19:01:16,79.0,14.0,32.7,6.0,-33.3,0.33759275,0.6296943,9.541185,-0.035252422,0.006599177,0.019898936,-0.0658608227968216,-0.0353679284453392,-1.3359382152557373,1015.2439,
2021.02.13 19:01:16,79.0,14.0,33.059998,6.0,-33.239998,0.16520496,0.4644893,9.895537,0.01606026,0.009653503,0.012568552,-0.04689831659197807,-0.016693344339728355,-1.3505204916000366,1015.24,
2021.02.13 19:01:16,79.0,14.0,32.76,6.0,-32.88,0.17478207,0.5865973,9.586677,-0.034030695,0.01392956,-0.016752979,-0.0611024871468544,-0.01822974905371666,-1.3365312814712524,1015.24,
2021.02.13 19:01:16,79.0,14.0,32.46,6.2999997,-33.18,0.1340794,0.5243462,9.785401,0.0032320882,0.0029339858,-0.0020922134,-0.0535283237695694,-0.013701124116778374,-1.3311337232589722,1015.2534,
2021.02.13 19:01:16,79.0,14.0,31.98,6.0,-32.94,0.22506183,0.60335726,9.680053,-0.0053200256,0.0047665816,-0.003313944,-0.062232647091150284,-0.023245874792337418,-1.3314037322998047,1015.2534,
2021.02.13 19:01:16,79.0,14.0,31.26,6.12,-32.88,0.035914123,0.5506832,9.814133,0.0038429531,0.0053774468,-0.00514654,-0.05605209618806839,-0.003659412730485201,-1.3227916955947876,1015.25806,
2021.02.13 19:01:16,79.0,14.0,30.96,6.24,-33.36,0.15562786,0.55786604,9.6896305,-0.0059308903,0.00110139,-0.014920384,-0.0575026199221611,-0.01605989784002304,-1.3185042142868042,1015.25073,
2021.02.13 19:01:16,79.0,14.0,30.9,5.8799996,-33.6,0.14844504,0.5411061,9.517242,0.01606026,-0.0019529362,0.008903361,-0.05678730830550194,-0.015596219338476658,-1.3289682865142822,1015.25073,
2021.02.13 19:01:16,79.0,14.0,30.96,5.52,-33.78,0.17957062,0.5985687,9.744699,0.011173336,0.003544851,0.008903361,-0.06133759394288063,-0.018425432965159416,-1.3362553119659424,1015.24414,
2021.02.13 19:01:17,79.0,14.0,31.26,5.4,-34.2,0.19154198,0.57223165,9.802161,0.005064684,-0.0025638016,0.007070765,-0.05830082297325134,-0.019538303837180138,-1.3445639610290527,1015.24414,
2021.02.13 19:01:17,79.0,14.0,31.14,5.2799997,-34.14,0.16041641,0.5650489,9.651321,-0.0163156,-0.006839858,-8.70483E-4,-0.05847145617008209,-0.01661965623497963,-1.3464113473892212,1015.24,
2021.02.13 19:01:17,79.0,14.0,31.199999,5.04,-33.719997,0.12929083,0.5458947,9.62259,-0.0047091604,-0.007450723,0.0076816306,-0.056664686650037766,-0.013435369357466698,-1.3556127548217773,1015.24,
2021.02.13 19:01:17,79.0,14.0,31.26,5.46,-33.719997,0.17957062,0.59378016,9.73991,-0.0053200256,0.0029339858,0.0064598997,-0.06087793782353401,-0.018434489145874977,-1.3407249450683594,1015.24,
2021.02.13 19:01:17,79.0,14.0,31.32,5.8799996,-33.36,0.19393626,0.5961744,9.847652,0.014227662,0.0017122553,-0.0039248094,-0.06045425683259964,-0.01969110779464245,-1.33010733127594,1015.2422,
2021.02.13 19:01:17,79.0,14.0,31.56,5.64,-33.54,0.2777359,0.6249057,9.62259,0.005675549,-0.001342071,-0.011255192,-0.06482354551553726,-0.028854891657829285,-1.337071418762207,1015.2422,
2021.02.13 19:01:17,79.0,14.0,31.08,5.94,-33.36,0.12929083,0.5865973,9.75667,0.01606026,-0.009894184,-0.01919644,-0.06004515290260315,-0.01325075700879097,-1.3250269889831543,1015.2461,
2021.02.13 19:01:17,79.0,14.0,31.26,5.7599998,-33.54,0.11013664,0.5650489,9.646533,0.011173336,-0.011115915,-0.026526824,-0.05850467458367348,-0.011416729539632797,-1.3323705196380615,1015.2483,
2021.02.13 19:01:17,79.0,14.0,31.019999,5.52,-33.42,0.15083931,0.6153286,9.718362,-4.3310347E-4,-0.01294851,-0.025915958,-0.06322407722473145,-0.015519817359745502,-1.3346078395843506,1015.2483,
2021.02.13 19:01:17,79.0,14.0,30.779999,5.7,-33.3,0.11253092,0.59378016,9.584282,0.0075081447,-0.0123376455,-0.013087788,-0.06187020242214203,-0.011740654706954956,-1.3278307914733887,1015.2527,
2021.02.13 19:01:17,79.0,14.0,31.32,5.8199997,-33.66,0.09577099,0.5554718,9.775824,0.00934074,-0.003785532,-0.0075900005,-0.05675722286105156,-0.009796405211091042,-1.3320577144622803,1015.2527,
2021.02.13 19:01:17,79.0,14.0,31.439999,5.94,-33.42,0.12210801,0.62251145,9.80695,-0.0077634864,-1.2034045E-4,0.00523817,-0.06338661164045334,-0.01245052833110094,-1.3241442441940308,1015.2622,
2021.02.13 19:01:17,79.0,14.0,31.32,5.94,-33.42,0.12210801,0.62251145,9.7135725,-0.004098295,-0.003785532,0.014401148,-0.06399419903755188,-0.01257020328193903,-1.3226968050003052,1015.26807,
2021.02.13 19:01:17,79.0,14.0,31.679998,6.0,-33.719997,0.17478207,0.5961744,9.648928,-0.004098295,-0.008061589,0.021120666,-0.061698056757450104,-0.018112163990736008,-1.3269658088684082,1015.26807,
2021.02.13 19:01:17,79.0,14.0,31.439999,5.8199997,-33.6,0.15083931,0.62251145,9.720756,7.88627E-4,-0.0050072623,0.03089451,-0.06394440680742264,-0.015515996143221855,-1.3277517557144165,1015.26685,
2021.02.13 19:01:17,79.0,14.0,31.56,5.64,-33.6,0.15802214,0.59378016,9.744699,-0.0028765644,0.00110139,0.021120666,-0.06085043400526047,-0.016214795410633087,-1.3370981216430664,1015.26685,
2021.02.13 19:01:17,79.0,14.0,31.74,5.64,-33.78,0.21069619,0.5865973,9.670476,0.01850372,-0.005618128,0.021731531,-0.06057000905275345,-0.02178412489593029,-1.339923620223999,1015.26294,
2021.02.13 19:01:18,79.0,14.0,31.74,5.64,-33.719997,0.16759923,0.6153286,9.6896305,7.88627E-4,4.905248E-4,0.014401148,-0.06340920925140381,-0.01729503646492958,-1.3360159397125244,1015.2561,
2021.02.13 19:01:18,79.0,14.0,32.219997,5.94,-33.78,0.18675344,0.6057515,9.62259,0.0136167975,-0.005618128,0.018677205,-0.06285621970891953,-0.01940537802875042,-1.3317497968673706,1015.2561,
2021.02.13 19:01:18,79.0,14.0,31.92,6.2999997,-33.899998,0.16520496,0.58420306,9.634562,0.005064684,0.00110139,3.5124752E-4,-0.060553159564733505,-0.017145436257123947,-1.3205418586730957,1015.2527,
2021.02.13 19:01:18,79.0,14.0,31.8,6.7799997,-33.899998,0.24421602,0.65363705,9.73991,0.012395066,-0.0025638016,0.009514226,-0.06698767840862274,-0.0250684916973114,-1.3023167848587036,1015.2527,
2021.02.13 19:01:18,79.0,14.0,31.859999,6.72,-33.719997,0.19633053,0.61293435,9.601042,0.012395066,-0.004396397,-0.009422596,-0.06374058872461319,-0.02044602856040001,-1.3063470125198364,1015.2444,
2021.02.13 19:01:18,79.0,14.0,31.8,6.54,-33.84,0.083799616,0.5961744,9.680053,0.005064684,-0.001342071,-0.021029036,-0.0615079402923584,-0.00865672156214714,-1.3092355728149414,1015.25195,
2021.02.13 19:01:18,79.0,14.0,31.859999,6.42,-33.899998,0.1340794,0.6249057,9.672871,0.016671123,-7.312057E-4,-0.011255192,-0.06450813263654709,-0.013860498555004597,-1.3118464946746826,1015.25195,
2021.02.13 19:01:18,79.0,14.0,31.74,6.12,-33.899998,0.19154198,0.65124273,9.617802,0.0026212228,-0.0025638016,-0.014309519,-0.06759565323591232,-0.019912727177143097,-1.318557620048523,1015.24927,
2021.02.13 19:01:18,79.0,14.0,31.8,6.0,-34.02,0.07901107,0.6392714,9.61062,-0.0053200256,-0.008672453,-0.018585576,-0.06641710549592972,-0.008221039548516273,-1.3197376728057861,1015.24927,
2021.02.13 19:01:18,79.0,14.0,31.5,5.8199997,-34.14,0.14365649,0.6488485,9.701602,0.016671123,-0.018446298,-0.00514654,-0.06677380204200745,-0.014806420542299747,-1.3242560625076294,1015.25073,
2021.02.13 19:01:18,79.0,14.0,31.8,5.94,-34.02,0.21787901,0.65124273,9.869201,-0.0065417555,-0.0019529362,-0.0027030788,-0.06587585806846619,-0.02207307703793049,-1.326278567314148,1015.2466,
2021.02.13 19:01:18,79.0,14.0,32.04,6.0,-34.26,0.16759923,0.73743665,9.543579,-0.0034874296,-0.008061589,-0.003313944,-0.07710536569356918,-0.017559660598635674,-1.3137918710708618,1015.2466,
2021.02.13 19:01:18,79.0,14.0,31.8,6.12,-34.2,0.05506832,0.5889916,9.787795,0.0062864143,-7.312057E-4,9.621128E-4,-0.06010269746184349,-0.0056261639110744,-1.3212785720825195,1015.2429,
2021.02.13 19:01:18,79.0,14.0,31.74,6.0,-34.14,0.2083019,0.7110996,9.598648,-0.008374351,-0.001342071,0.0076816306,-0.07393088191747665,-0.021697765216231346,-1.316116452217102,1015.2429,
2021.02.13 19:01:18,79.0,14.0,31.56,5.8199997,-33.96,0.16041641,0.6895511,9.720756,-0.0114286775,0.00110139,0.018677205,-0.07080772519111633,-0.016500964760780334,-1.321664810180664,1015.24243,
2021.02.13 19:01:18,79.0,14.0,31.619999,5.8799996,-33.78,0.15802214,0.69194543,9.6585045,-0.0114286775,-0.0019529362,0.016233744,-0.07150932401418686,-0.016359470784664154,-1.320000171661377,1015.24976,
2021.02.13 19:01:18,79.0,14.0,31.5,5.7599998,-33.6,0.1340794,0.65842557,9.615408,-0.010206947,4.905248E-4,0.008903361,-0.06836274266242981,-0.013943320140242577,-1.3252240419387817,1015.24976,
2021.02.13 19:01:19,79.0,14.0,31.619999,5.58,-33.54,0.14844504,0.69194543,9.624985,-0.012039543,0.0041557164,0.016233744,-0.07175858318805695,-0.015421663410961628,-1.3286975622177124,1015.25146,
2021.02.13 19:01:19,79.0,14.0,31.5,5.4,-33.42,0.11253092,0.6344828,9.682447,-0.0034874296,0.0053774468,0.021120666,-0.06543121486902237,-0.011621632613241673,-1.3383134603500366,1015.25146,
2021.02.13 19:01:19,79.0,14.0,31.5,5.4,-33.239998,0.21309046,0.66321415,9.665688,-0.0065417555,0.00110139,0.01806634,-0.06849134713411331,-0.022042501717805862,-1.3387709856033325,1015.2554,
2021.02.13 19:01:19,79.0,14.0,31.679998,5.52,-33.48,0.1699935,0.6057515,9.780613,0.0026212228,-0.0019529362,0.016844608,-0.061845578253269196,-0.01737891137599945,-1.3410429954528809,1015.24585,
2021.02.13 19:01:19,79.0,14.0,31.92,6.06,-33.12,0.16759923,0.5865973,9.565128,-0.0150938695,-0.001342071,0.0064598997,-0.06124057620763779,-0.017520109191536903,-1.3282146453857422,1015.24585,
2021.02.13 19:01:19,79.0,14.0,31.8,6.06,-33.48,0.117319465,0.5865973,9.696813,7.88627E-4,0.0047665816,0.00523817,-0.06041578948497772,-0.012098175473511219,-1.3259234428405762,1015.24536,
2021.02.13 19:01:19,79.0,14.0,31.859999,6.2999997,-33.6,0.1987248,0.6392714,9.653716,-0.010817813,-0.001342071,0.0027947086,-0.06610973179340363,-0.02058240957558155,-1.316414475440979,1015.24536,
2021.02.13 19:01:19,79.0,14.0,31.8,6.06,-33.54,0.10774237,0.6177229,9.591465,-0.007152621,-0.008061589,0.008903361,-0.06431052833795547,-0.011232677847146988,-1.3218379020690918,1015.2532,
2021.02.13 19:01:19,79.0,14.0,31.56,5.7599998,-33.54,0.16759923,0.6249057,9.778218,-0.02547858,0.007820908,0.0076816306,-0.0638117864727974,-0.01713838055729866,-1.3311052322387695,1015.25415,
2021.02.13 19:01:19,79.0,14.0,31.439999,5.52,-33.42,0.23463893,0.6464542,9.677659,-0.020591656,-0.0031746665,0.0064598997,-0.06667999178171158,-0.024240674450993538,-1.3368561267852783,1015.25415,
2021.02.13 19:01:19,79.0,14.0,31.5,5.3399997,-33.12,0.08858817,0.6057515,9.560339,-0.014483005,-0.0031746665,-0.016142115,-0.0632735937833786,-0.009265950880944729,-1.3420504331588745,1015.2556,
2021.02.13 19:01:19,79.0,14.0,31.08,5.7,-33.0,0.043096945,0.49800915,9.682447,0.0044538183,-7.312057E-4,-0.008811731,-0.05138843134045601,-0.004451008513569832,-1.3387047052383423,1015.2556,
2021.02.13 19:01:19,79.0,14.0,31.439999,6.0,-33.239998,0.12450229,0.5865973,9.672871,-0.010206947,0.00110139,0.00523817,-0.06056438013911247,-0.012870575301349163,-1.3255232572555542,1015.25073,
2021.02.13 19:01:19,79.0,14.0,31.32,6.2999997,-33.42,0.20111908,0.5794145,9.617802,-0.01875906,-7.312057E-4,0.009514226,-0.06015812233090401,-0.02090808004140854,-1.3183314800262451,1015.25586,
2021.02.13 19:01:19,79.0,14.0,31.199999,6.2999997,-33.42,0.12450229,0.57462597,9.653716,-0.009596081,-1.2034045E-4,0.004016439,-0.0594487264752388,-0.01289611030369997,-1.315627932548523,1015.25586,
2021.02.13 19:01:19,79.0,14.0,31.98,6.12,-33.6,0.17957062,0.5865973,9.804555,-0.0163156,4.905248E-4,0.009514226,-0.059747833758592606,-0.0183129720389843,-1.3277642726898193,1015.2556,
2021.02.13 19:01:20,79.0,14.0,31.8,6.12,-33.719997,0.0670397,0.4764607,9.742304,0.0026212228,-0.003785532,0.008903361,-0.04886627569794655,-0.0068811895325779915,-1.3334344625473022,1015.2556,
2021.02.13 19:01:20,79.0,14.0,32.04,6.12,-33.48,0.20590763,0.57462597,9.727939,-0.034030695,0.0145404255,3.5124752E-4,-0.05898791179060936,-0.021163465455174446,-1.3299216032028198,1015.2529,
2021.02.13 19:01:20,79.0,14.0,32.1,6.06,-33.719997,0.071828246,0.4764607,9.744699,0.0044538183,-7.312057E-4,0.011957687,-0.04885411635041237,-0.00737087382003665,-1.3374613523483276,1015.2466,
2021.02.13 19:01:20,79.0,14.0,32.16,6.24,-33.719997,0.26097596,0.5889916,9.656111,-4.3310347E-4,-0.004396397,0.004016439,-0.06089910864830017,-0.027020448818802834,-1.3268932104110718,1015.2466,
2021.02.13 19:01:20,79.0,14.0,32.04,6.18,-33.719997,0.11013664,0.48843205,9.668081,0.012395066,0.005988312,-0.010033461,-0.05047387257218361,-0.011391286738216877,-1.3331067562103271,1015.2512,
2021.02.13 19:01:20,79.0,14.0,32.1,6.3599997,-33.78,0.083799616,0.5123748,9.5794935,0.0038429531,0.010875233,-0.018585576,-0.053433679044246674,-0.008747590705752373,-1.3246145248413086,1015.2512,
2021.02.13 19:01:20,79.0,14.0,31.98,6.42,-33.6,0.11013664,0.51716334,9.670476,-0.008985217,0.009042637,-0.016752979,-0.053424227982759476,-0.011388465762138367,-1.3230469226837158,1015.25635,
2021.02.13 19:01:20,79.0,14.0,31.679998,6.48,-33.54,0.1340794,0.5411061,9.603436,-0.012039543,0.0145404255,-0.011255192,-0.05628006160259247,-0.013960698619484901,-1.3171982765197754,1015.25635,
2021.02.13 19:01:20,79.0,14.0,31.859999,6.24,-33.6,0.090982445,0.56744313,9.636956,0.0038429531,0.0145404255,-8.70483E-4,-0.05881146341562271,-0.009440713562071323,-1.3216559886932373,1015.25635,
2021.02.13 19:01:20,79.0,14.0,31.859999,6.3599997,-34.02,-0.23224466,0.33519846,9.629773,-0.007152621,0.0072100423,-0.01797471,-0.03478439524769783,0.024112680926918983,-1.331648826599121,1015.25464,
2021.02.13 19:01:20,79.0,14.0,31.92,6.12,-34.14,0.12450229,0.54350036,9.629773,-0.008985217,-0.001342071,0.027229318,-0.05637506768107414,-0.012928171083331108,-1.3281220197677612,1015.25464,
2021.02.13 19:01:20,79.0,14.0,31.74,5.8799996,-34.02,0.18914771,0.5602603,9.720756,-0.013872139,-0.007450723,0.032727104,-0.05756090581417084,-0.019455673173069954,-1.334769606590271,1015.25244,
2021.02.13 19:01:20,79.0,14.0,31.74,5.8799996,-33.84,0.08858817,0.5411061,9.715967,-0.0053200256,0.003544851,-0.009422596,-0.05563268065452576,-0.00911753997206688,-1.3339228630065918,1015.2551,
2021.02.13 19:01:20,79.0,14.0,31.439999,5.64,-33.66,-0.05506832,0.4764607,9.059936,-0.0077634864,-7.312057E-4,-0.017363844,-0.052540481090545654,0.0060781496576964855,-1.3378697633743286,1015.2551,
2021.02.13 19:01:20,79.0,14.0,31.619999,6.0,-33.84,0.0670397,0.5889916,9.90272,-0.07679126,-0.06975898,-0.0014813483,-0.05940641090273857,-0.006769723258912563,-1.3251173496246338,1015.2534,
2021.02.13 19:01:20,79.0,14.0,31.439999,6.12,-33.899998,0.009577099,0.64166564,9.110215,-0.054189242,-0.06853725,0.0205098,-0.07031748443841934,-0.001051248051226139,-1.3075010776519775,1015.2534,
