Time,X-cord,Y-cord,Mag_x,Mag_y,Mag_z,Acc_x,Acc_y,Acc_z,Gyro_x,Gyro_y,Gyro_z,Orn_x,Orn_y,Orn_z,Pressure,
2021.02.13 18:51:45,47.0,17.0,26.64,4.7999997,-37.26,0.16759923,0.8786988,9.234718,0.0032320882,0.049359746,-0.053404897,-0.09485052525997162,-0.018146827816963196,-1.2770777940750122,1015.2383,
2021.02.13 18:51:45,47.0,17.0,26.64,4.92,-37.02,0.0047885496,0.7206767,9.371192,-0.05602184,-0.030663602,-0.027748555,-0.07675233483314514,-5.109861376695335E-4,-1.2881247997283936,1015.2383,
2021.02.13 18:51:45,47.0,17.0,26.46,5.16,-37.14,0.18196489,0.6656084,9.620196,-0.055410977,-0.02577668,0.0064598997,-0.06906624883413315,-0.018912628293037415,-1.2953429222106934,1015.2417,
2021.02.13 18:51:45,47.0,17.0,26.58,5.46,-37.32,0.30167863,0.7134939,9.665688,-0.078012995,-0.006839858,0.010125091,-0.07364781200885773,-0.031201167032122612,-1.2856532335281372,1015.23584,
2021.02.13 18:51:45,47.0,17.0,26.519999,5.46,-37.38,0.2681588,0.53871185,9.680053,-0.056632705,-0.0050072623,0.004016439,-0.055573124438524246,-0.027695121243596077,-1.305423617362976,1015.23584,
2021.02.13 18:51:46,47.0,17.0,26.46,5.52,-37.559998,0.30646718,0.72546524,9.703996,-0.056632705,-0.0031746665,9.621128E-4,-0.07458356767892838,-0.031571052968502045,-1.2809984683990479,1015.2434,
2021.02.13 18:51:46,47.0,17.0,26.4,5.7,-37.32,0.2777359,0.70631105,9.778218,-0.035863288,4.905248E-4,-0.012476923,-0.0720788985490799,-0.028395893052220345,-1.276564121246338,1015.2434,
2021.02.13 18:51:46,47.0,17.0,26.039999,5.64,-37.02,0.071828246,0.5123748,9.718362,-0.0047091604,-0.0050072623,-0.024694227,-0.052672140300273895,-0.007390848360955715,-1.2906339168548584,1015.24,
2021.02.13 18:51:46,47.0,17.0,25.859999,5.46,-37.26,0.17238778,0.5219519,9.620196,-0.0059308903,0.012096965,-0.011866057,-0.05419401824474335,-0.017917443066835403,-1.29714834690094,1015.23535,
2021.02.13 18:51:46,47.0,17.0,25.98,5.46,-36.96,0.13886794,0.44772938,9.608225,-0.004098295,-0.0031746665,0.015012014,-0.04656001180410385,-0.014452021569013596,-1.3071342706680298,1015.23535,
2021.02.13 18:51:46,47.0,17.0,25.859999,5.22,-36.96,0.12929083,0.46209505,9.692024,-0.012039543,0.006599177,0.029061915,-0.04763755574822426,-0.013339129276573658,-1.3126522302627563,1015.2383,
2021.02.13 18:51:46,47.0,17.0,25.74,4.68,-36.719997,0.25858167,0.5506832,9.876384,0.04660352,0.010264369,0.06876816,-0.055680856108665466,-0.026175836101174355,-1.325640082359314,1015.2383,
2021.02.13 18:51:46,47.0,17.0,25.92,4.98,-36.3,0.45012367,0.679974,9.44302,0.072870724,0.008431774,0.07182248,-0.0718027874827385,-0.04763128608465195,-1.306316614151001,1015.2302,
2021.02.13 18:51:46,47.0,17.0,25.92,4.98,-36.54,0.21787901,0.46927786,9.608225,0.017281989,0.005988312,0.023564126,-0.048789963126182556,-0.022672416642308235,-1.3243539333343506,1015.2295,
2021.02.13 18:51:46,47.0,17.0,25.98,4.92,-36.54,0.31125572,0.61293435,9.636956,0.025834102,0.008431774,0.0345597,-0.06348391622304916,-0.03228691220283508,-1.3124347925186157,1015.2295,
2021.02.13 18:51:46,47.0,17.0,26.46,5.2799997,-37.079998,0.27055305,0.65842557,9.474146,0.013005932,0.018205617,-0.0014813483,-0.06935734301805496,-0.028549227863550186,-1.2950432300567627,1015.22217,
2021.02.13 18:51:46,47.0,17.0,26.76,5.22,-37.26,0.17478207,0.5243462,9.699207,-0.013872139,0.013318695,-0.009422596,-0.0539994016289711,-0.018018292263150215,-1.3141733407974243,1015.22217,
2021.02.13 18:51:46,47.0,17.0,26.46,5.22,-37.44,0.27294734,0.61293435,9.529214,-0.023035118,0.011486099,-0.0027030788,-0.06420686095952988,-0.028635386377573013,-1.3026463985443115,1015.22876,
2021.02.13 18:51:46,47.0,17.0,26.22,5.16,-37.32,0.25379312,0.66800267,9.663293,-0.04075021,0.009653503,-0.012476923,-0.06899433583021164,-0.0262575913220644,-1.2957838773727417,1015.23267,
2021.02.13 18:51:46,47.0,17.0,26.34,5.3399997,-37.02,0.08619389,0.56744313,9.869201,-0.021202521,-0.006839858,-0.024694227,-0.057430945336818695,-0.008733402006328106,-1.2985740900039673,1015.23267,
2021.02.13 18:51:46,47.0,17.0,26.039999,5.16,-37.44,0.17478207,0.6177229,9.601042,-0.0114286775,-0.003785532,0.011957687,-0.0642399862408638,-0.01820247992873192,-1.29635751247406,1015.23486,
2021.02.13 18:51:47,47.0,17.0,26.4,5.1,-36.899998,0.20351335,0.6392714,9.783007,-0.018148195,0.0041557164,0.013790283,-0.06523823738098145,-0.02079974114894867,-1.3028087615966797,1015.23486,
2021.02.13 18:51:47,47.0,17.0,26.58,5.3399997,-37.32,0.2753416,0.7015225,9.684841,0.031942755,-0.004396397,0.010735957,-0.07227972149848938,-0.028422504663467407,-1.2901122570037842,1015.23047,
2021.02.13 18:51:47,47.0,17.0,26.279999,4.92,-37.26,0.22266756,0.5865973,9.680053,0.012395066,-0.004396397,-8.70483E-4,-0.06050858646631241,-0.022998664528131485,-1.3139008283615112,1015.2263,
2021.02.13 18:51:47,47.0,17.0,26.34,5.04,-36.84,0.1699935,0.63208854,9.761458,0.016671123,-0.004396397,0.008903361,-0.0646534338593483,-0.017413005232810974,-1.30377995967865,1015.2263,
2021.02.13 18:51:47,47.0,17.0,26.099998,5.04,-36.899998,0.21787901,0.6177229,9.526819,0.019725451,-0.011115915,0.013790283,-0.06473290175199509,-0.022866083309054375,-1.303481101989746,1015.23,
2021.02.13 18:51:47,47.0,17.0,25.859999,5.04,-36.3,0.20111908,0.5865973,9.70639,7.88627E-4,-0.004396397,0.010125091,-0.06034780293703079,-0.020717309787869453,-1.3069581985473633,1015.23,
2021.02.13 18:51:47,47.0,17.0,25.92,5.04,-36.3,0.25379312,0.65842557,9.60583,-0.0034874296,-0.003785532,0.007070765,-0.06841351836919785,-0.026414591819047928,-1.2999111413955688,1015.22925,
2021.02.13 18:51:47,47.0,17.0,25.859999,4.98,-36.0,0.24900457,0.6943397,9.629773,-0.016926466,-1.2034045E-4,-0.008200866,-0.07195489853620529,-0.025852020829916,-1.2975316047668457,1015.2324,
2021.02.13 18:51:47,47.0,17.0,25.8,5.04,-36.239998,0.16281068,0.64166564,9.560339,-0.013872139,0.0017122553,-0.008811731,-0.06700726598501205,-0.01702815666794777,-1.2967445850372314,1015.2324,
2021.02.13 18:51:47,47.0,17.0,25.859999,4.98,-36.84,0.2657645,0.64166564,9.646533,0.012395066,-0.011115915,0.011346822,-0.06639477610588074,-0.027543293312191963,-1.3032183647155762,1015.23193,
2021.02.13 18:51:47,47.0,17.0,25.859999,5.04,-36.96,0.28252444,0.6273,9.553157,0.0062864143,-0.005618128,-0.0069791353,-0.06554145365953445,-0.029565317556262016,-1.3027793169021606,1015.23193,
2021.02.13 18:51:47,47.0,17.0,26.039999,5.22,-37.079998,0.14126222,0.58420306,9.672871,0.009951605,-0.011115915,-0.010644327,-0.06031635403633118,-0.014602921903133392,-1.2984683513641357,1015.23535,
2021.02.13 18:51:47,47.0,17.0,26.22,5.46,-37.26,0.2466103,0.6392714,9.488511,0.012395066,-0.009894184,-0.0020922134,-0.06724889576435089,-0.025984561070799828,-1.2877631187438965,1015.23267,
2021.02.13 18:51:47,47.0,17.0,26.22,5.04,-37.079998,0.21787901,0.5985687,9.768641,1.7776179E-4,-0.003785532,-0.005757405,-0.061182811856269836,-0.022300224751234055,-1.3084423542022705,1015.23267,
2021.02.13 18:51:47,47.0,17.0,26.22,4.92,-36.78,0.25379312,0.66800267,9.490906,0.016671123,-0.006839858,-0.0069791353,-0.07024254649877548,-0.02673429250717163,-1.3037689924240112,1015.2285,
2021.02.13 18:51:47,47.0,17.0,25.98,4.68,-37.14,0.13886794,0.5770202,9.895537,0.005675549,-0.004396397,-0.011255192,-0.05823948234319687,-0.014032470062375069,-1.3191593885421753,1015.2285,
2021.02.13 18:51:47,47.0,17.0,26.279999,4.56,-36.719997,0.29210153,0.6608198,9.47654,0.030721024,-0.005618128,0.0027947086,-0.06958655267953873,-0.03081389330327511,-1.3191337585449219,1015.22925,
2021.02.13 18:51:48,47.0,17.0,26.279999,4.98,-36.66,0.14605077,0.61293435,9.845258,-0.016926466,0.0023231206,-0.008200866,-0.06216973811388016,-0.014833543449640274,-1.3077120780944824,1015.22705,
2021.02.13 18:51:48,47.0,17.0,26.519999,5.4,-37.26,0.18914771,0.63208854,9.665688,0.012395066,-0.0031746665,3.5124752E-4,-0.06528964638710022,-0.0195664893835783,-1.2924572229385376,1015.22705,
2021.02.13 18:51:48,47.0,17.0,26.82,5.46,-37.14,0.20111908,0.62251145,9.711179,-0.0114286775,-0.0062289927,-0.0020922134,-0.06400129199028015,-0.02070709876716137,-1.2956081628799438,1015.2368,
2021.02.13 18:51:48,47.0,17.0,26.58,5.46,-37.559998,0.24421602,0.679974,9.555551,0.010562471,-0.006839858,0.0076816306,-0.07101725041866302,-0.025551941245794296,-1.2859150171279907,1015.2368,
2021.02.13 18:51:48,47.0,17.0,26.64,5.4,-37.62,0.16281068,0.61293435,9.670476,7.88627E-4,0.0029339858,0.005849035,-0.06328840553760529,-0.016834259033203125,-1.2942427396774292,1015.2422,
2021.02.13 18:51:48,47.0,17.0,25.92,5.2799997,-37.62,0.20111908,0.68236834,9.687236,0.00811901,-0.001342071,0.019898936,-0.07030868530273438,-0.020758263766765594,-1.284060001373291,1015.25073,
2021.02.13 18:51:48,47.0,17.0,25.74,5.16,-37.8,0.3040729,0.69912827,9.675264,-0.010206947,0.0041557164,0.021120666,-0.0720985010266304,-0.031417522579431534,-1.2883775234222412,1015.25073,
2021.02.13 18:51:48,47.0,17.0,25.98,4.8599997,-37.739998,0.18435916,0.67757976,9.687236,-0.007152621,0.0047665816,0.010735957,-0.06981929391622543,-0.01902884617447853,-1.2987645864486694,1015.2356,
2021.02.13 18:51:48,47.0,17.0,26.34,4.74,-37.62,0.21069619,0.66321415,9.553157,1.7776179E-4,-0.001342071,0.01928807,-0.06929555535316467,-0.02205156348645687,-1.3085073232650757,1015.2356,
2021.02.13 18:51:48,47.0,17.0,27.0,4.38,-37.26,0.2777359,0.6608198,9.828498,-0.012039543,-0.007450723,0.019898936,-0.06710733473300934,-0.02825070545077324,-1.3323355913162231,1015.2302,
2021.02.13 18:51:48,47.0,17.0,27.0,4.62,-36.84,0.27055305,0.65363705,9.58907,0.006897279,-0.0019529362,9.621128E-4,-0.06803252547979355,-0.02820724807679653,-1.324009656906128,1015.2385,
2021.02.13 18:51:48,47.0,17.0,27.06,4.7999997,-36.84,0.22027329,0.749408,9.603436,-0.0016548339,0.0029339858,-0.009422596,-0.07785718142986298,-0.022932900115847588,-1.304766058921814,1015.2385,
2021.02.13 18:51:48,47.0,17.0,26.699999,4.56,-37.26,0.21069619,0.6488485,9.653716,0.0117842015,-0.011115915,-0.0014813483,-0.06709542870521545,-0.02182193286716938,-1.3213226795196533,1015.2339,
2021.02.13 18:51:48,47.0,17.0,26.82,4.62,-37.2,0.32083282,0.7015225,9.61062,0.005675549,-0.007450723,-0.0014813483,-0.0728248581290245,-0.033370766788721085,-1.3179047107696533,1015.2339,
2021.02.13 18:51:48,47.0,17.0,26.82,4.62,-37.2,0.24900457,0.7446195,9.6896305,-0.0016548339,-0.0025638016,-0.011866057,-0.07667109370231628,-0.025692392140626907,-1.3102744817733765,1015.2351,
2021.02.13 18:51:48,47.0,17.0,26.46,4.44,-37.2,0.17478207,0.6943397,9.672871,0.019114584,-0.008672453,-0.0020922134,-0.07164760679006577,-0.018067339435219765,-1.3162988424301147,1015.22974,
2021.02.13 18:51:48,47.0,17.0,26.58,4.68,-36.54,0.22027329,0.68236834,9.63935,0.0020103576,-0.003785532,-0.0020922134,-0.07065359503030777,-0.02284749038517475,-1.313754916191101,1015.22974,
2021.02.13 18:51:49,47.0,17.0,26.22,4.7999997,-36.78,0.20111908,0.70870537,9.703996,0.01850372,-0.007450723,0.013179418,-0.07288730889558792,-0.020722422748804092,-1.302188754081726,1015.2322,
2021.02.13 18:51:49,47.0,17.0,25.98,4.5,-36.899998,0.30167863,0.72546524,9.545974,0.005064684,-7.312057E-4,0.0027947086,-0.07581347972154617,-0.031592197716236115,-1.3107788562774658,1015.2322,
2021.02.13 18:51:49,47.0,17.0,25.92,4.62,-36.84,0.16520496,0.6895511,9.665688,0.00934074,-0.0050072623,0.009514226,-0.07120907306671143,-0.01709023490548134,-1.3060259819030762,1015.2368,
2021.02.13 18:51:49,47.0,17.0,25.859999,4.68,-37.32,0.3040729,0.723071,9.680053,0.0032320882,-0.005618128,0.016844608,-0.07452191412448883,-0.031401995569467545,-1.304028868675232,1015.2334,
2021.02.13 18:51:49,47.0,17.0,25.92,4.2,-37.44,0.26337022,0.74222517,9.574705,-0.0010439687,-0.003785532,0.011346822,-0.07733551412820816,-0.027499940246343613,-1.315749168395996,1015.2334,
2021.02.13 18:51:49,47.0,17.0,26.099998,4.38,-37.26,0.2657645,0.74701375,9.79019,-0.0034874296,-0.0031746665,0.008292495,-0.07612677663564682,-0.027139335870742798,-1.3129832744598389,1015.2324,
2021.02.13 18:51:49,47.0,17.0,26.279999,4.3199997,-37.8,0.28731298,0.74222517,9.675264,0.008729876,-0.0062289927,-0.0014813483,-0.07653012126684189,-0.02968689799308777,-1.3159171342849731,1015.2324,
2021.02.13 18:51:49,47.0,17.0,26.34,4.02,-37.739998,0.20111908,0.6943397,9.553157,0.0117842015,-0.006839858,0.001572978,-0.0725381076335907,-0.02104952186346054,-1.3285359144210815,1015.2388,
2021.02.13 18:51:49,47.0,17.0,26.279999,4.38,-37.68,0.28970724,0.76137936,9.775824,-4.3310347E-4,-1.2034045E-4,0.00523817,-0.07769303768873215,-0.029626401141285896,-1.3126827478408813,1015.2366,
2021.02.13 18:51:49,47.0,17.0,26.519999,4.3199997,-38.04,0.2944958,0.7685622,9.462174,0.02216891,-0.004396397,0.0034055738,-0.08100771903991699,-0.031113436445593834,-1.3125011920928955,1015.2366,
2021.02.13 18:51:49,47.0,17.0,26.099998,4.14,-37.62,0.18435916,0.6847626,9.816526,-0.0059308903,-0.0031746665,-0.005757405,-0.06963104754686356,-0.018778281286358833,-1.3253835439682007,1015.2385,
2021.02.13 18:51:49,47.0,17.0,26.22,4.14,-37.44,0.2753416,0.7589851,9.541185,0.014838528,-0.004396397,0.007070765,-0.07934825122356415,-0.028850208967924118,-1.318547010421753,1015.2385,
2021.02.13 18:51:49,47.0,17.0,26.279999,4.38,-37.14,0.28731298,0.72785956,9.694419,-0.0016548339,0.00110139,-0.00514654,-0.07490689307451248,-0.029628273099660873,-1.3173930644989014,1015.23804,
2021.02.13 18:51:49,47.0,17.0,26.279999,4.38,-37.2,0.24421602,0.7350424,9.58907,-4.3310347E-4,-0.0019529362,-0.0069791353,-0.07647987455129623,-0.025462660938501358,-1.3136565685272217,1015.2429,
2021.02.13 18:51:49,47.0,17.0,26.76,4.7999997,-36.96,0.2370332,0.7350424,9.727939,0.0013994923,-0.007450723,-0.005757405,-0.07539433240890503,-0.02436141110956669,-1.3052573204040527,1015.2429,
2021.02.13 18:51:49,47.0,17.0,27.0,5.2799997,-37.38,0.1987248,0.7134939,9.617802,0.010562471,-0.0050072623,-0.011255192,-0.07403332740068436,-0.020659247413277626,-1.2906575202941895,1015.2366,
2021.02.13 18:51:50,47.0,17.0,27.0,4.7999997,-37.739998,0.28731298,0.76137936,9.711179,-0.0077634864,-0.003785532,0.005849035,-0.07820823043584824,-0.029577171429991722,-1.3043646812438965,1015.2366,
2021.02.13 18:51:50,47.0,17.0,27.119999,4.74,-37.38,0.2777359,0.749408,9.636956,0.0020103576,-0.007450723,0.0021838432,-0.07757570594549179,-0.028811901807785034,-1.3087135553359985,1015.2346,
2021.02.13 18:51:50,47.0,17.0,27.24,4.74,-37.8,0.22985038,0.71828246,9.598648,0.0013994923,0.0047665816,-0.008811731,-0.07467108964920044,-0.02394154667854309,-1.3103913068771362,1015.2329,
2021.02.13 18:51:50,47.0,17.0,26.939999,4.3199997,-37.68,0.22027329,0.7589851,9.70639,-0.008374351,0.017594751,-0.008811731,-0.07801558077335358,-0.02268974296748638,-1.3174313306808472,1015.2329,
2021.02.13 18:51:50,47.0,17.0,26.82,4.62,-37.44,0.2370332,0.75180227,9.514848,0.014838528,-0.001342071,0.0064598997,-0.07882542163133621,-0.02490677498281002,-1.306768536567688,1015.2383,
2021.02.13 18:51:50,47.0,17.0,26.58,4.5,-37.62,0.2777359,0.7302538,9.866806,-0.0150938695,0.003544851,0.0027947086,-0.07384733110666275,-0.02814107947051525,-1.3156219720840454,1015.2383,
2021.02.13 18:51:50,47.0,17.0,26.279999,4.44,-37.44,0.23942748,0.76137936,9.507666,0.0117842015,0.00110139,0.005849035,-0.079884834587574,-0.025177251547574997,-1.3066744804382324,1015.24,
2021.02.13 18:51:50,47.0,17.0,26.519999,4.74,-37.44,0.16759923,0.7398309,9.711179,-0.0059308903,0.0047665816,0.0027947086,-0.07602527737617493,-0.017256667837500572,-1.30020010471344,1015.2361,
2021.02.13 18:51:50,47.0,17.0,26.34,4.5,-37.14,0.28013015,0.7326481,9.665688,-4.3310347E-4,-7.312057E-4,0.015012014,-0.0756225511431694,-0.028973804786801338,-1.312706708908081,1015.2361,
2021.02.13 18:51:50,47.0,17.0,26.279999,4.7999997,-37.26,0.26337022,0.7853221,9.660899,-0.0028765644,-0.001342071,0.010125091,-0.08108039945363998,-0.027254709973931313,-1.2942947149276733,1015.2212,
2021.02.13 18:51:50,47.0,17.0,26.099998,4.2599998,-37.079998,0.30646718,0.77574503,9.632168,1.7776179E-4,0.003544851,0.004016439,-0.0803229883313179,-0.03180631995201111,-1.3142246007919312,1015.2212,
2021.02.13 18:51:50,47.0,17.0,25.98,4.02,-37.079998,0.23224466,0.7350424,9.562734,-0.0028765644,-0.003785532,0.010735957,-0.07669192552566528,-0.024281658232212067,-1.3229542970657349,1015.2278,
2021.02.13 18:51:50,47.0,17.0,26.039999,4.2,-37.5,0.22506183,0.749408,9.749487,-0.0132612735,-0.005618128,0.004627304,-0.07669519633054733,-0.023080380633473396,-1.3157150745391846,1015.2263,
2021.02.13 18:51:50,47.0,17.0,25.859999,4.14,-37.32,0.27294734,0.77574503,9.553157,1.7776179E-4,-0.005618128,-2.5961772E-4,-0.08099232614040375,-0.02856365777552128,-1.3134100437164307,1015.2263,
2021.02.13 18:51:50,47.0,17.0,26.039999,4.62,-37.86,0.24900457,0.7398309,9.6585045,-0.008374351,-0.0019529362,-0.0063682706,-0.07642432302236557,-0.025775153189897537,-1.3018114566802979,1015.2263,
2021.02.13 18:51:50,47.0,17.0,25.92,4.3199997,-37.62,0.21069619,0.7637737,9.696813,0.008729876,-0.004396397,-0.010033461,-0.07858467847108841,-0.02172497846186161,-1.3071653842926025,1015.2263,
2021.02.13 18:51:50,47.0,17.0,25.98,3.9599998,-37.32,0.21309046,0.7829279,9.603436,7.88627E-4,-0.001342071,-0.00514654,-0.0813259705901146,-0.022185340523719788,-1.317732334136963,1015.2334,
2021.02.13 18:51:51,47.0,17.0,26.46,3.8999999,-37.32,0.19393626,0.7302538,9.644139,0.014227662,-0.0025638016,0.0034055738,-0.07556051760911942,-0.020106524229049683,-1.3305234909057617,1015.2329,
2021.02.13 18:51:51,47.0,17.0,26.34,3.6599998,-36.96,0.29689008,0.749408,9.584282,0.0013994923,-0.001342071,0.0021838432,-0.07799532264471054,-0.030966866761446,-1.3397126197814941,1015.2329,
2021.02.13 18:51:51,47.0,17.0,26.4,4.2599998,-36.84,0.21548474,0.7398309,9.653716,-0.0065417555,-0.001342071,-0.0014813483,-0.07646841555833817,-0.02231772243976593,-1.3184890747070312,1015.2285,
2021.02.13 18:51:51,47.0,17.0,26.46,4.5,-36.96,0.20351335,0.7326481,9.624985,0.0026212228,-0.0031746665,-8.70483E-4,-0.07595598697662354,-0.02114112861454487,-1.3106802701950073,1015.2285,
2021.02.13 18:51:51,47.0,17.0,26.22,4.68,-37.14,0.25858167,0.7398309,9.730332,-0.0150938695,-0.0031746665,0.0021838432,-0.07586077600717545,-0.026568550616502762,-1.3042001724243164,1015.2207,
2021.02.13 18:51:51,47.0,17.0,26.4,4.5,-36.719997,0.22745611,0.7733508,9.565128,0.0044538183,-0.0025638016,-2.5961772E-4,-0.0806528776884079,-0.023775244131684303,-1.3060368299484253,1015.22705,
2021.02.13 18:51:51,47.0,17.0,26.64,4.2,-36.84,0.1987248,0.679974,9.603436,-0.007152621,0.0029339858,-0.0039248094,-0.07067222893238068,-0.02069014124572277,-1.3291760683059692,1015.22705,
2021.02.13 18:51:51,47.0,17.0,26.699999,4.2599998,-36.84,0.2083019,0.72785956,9.818921,-0.010817813,-0.004396397,3.5124752E-4,-0.07397635281085968,-0.021211156621575356,-1.3237686157226562,1015.22925,
2021.02.13 18:51:51,47.0,17.0,26.88,4.3199997,-37.02,0.27055305,0.7446195,9.641745,-0.0065417555,-0.006839858,-0.003313944,-0.0770455077290535,-0.028053229674696922,-1.3217586278915405,1015.22925,
2021.02.13 18:51:51,47.0,17.0,27.0,4.14,-37.2,0.21787901,0.7206767,9.656111,-0.0034874296,-0.0031746665,-0.005757405,-0.07447726279497147,-0.02256002090871334,-1.3294589519500732,1015.229,
2021.02.13 18:51:51,47.0,17.0,27.119999,4.62,-37.079998,0.18196489,0.7039168,9.701602,-0.007152621,-0.001342071,0.0076816306,-0.07241714000701904,-0.01875397004187107,-1.315662145614624,1015.2329,
2021.02.13 18:51:51,47.0,17.0,27.0,4.38,-37.14,0.2681588,0.749408,9.680053,-4.3310347E-4,-0.005618128,0.015622879,-0.07723413407802582,-0.027695121243596077,-1.3201403617858887,1015.2329,
2021.02.13 18:51:51,47.0,17.0,26.76,4.14,-37.14,0.2083019,0.7302538,9.768641,-0.0150938695,-7.312057E-4,9.621128E-4,-0.07459921389818192,-0.021320298314094543,-1.3269468545913696,1015.2368,
2021.02.13 18:51:51,47.0,17.0,26.279999,4.5,-37.38,0.21309046,0.71828246,9.478934,0.013005932,-0.0050072623,0.011957687,-0.07561314105987549,-0.022476639598608017,-1.3089795112609863,1015.2368,
2021.02.13 18:51:51,47.0,17.0,26.16,4.02,-37.26,0.21548474,0.6847626,9.763853,-0.009596081,-0.0025638016,0.0205098,-0.0700007826089859,-0.022066060453653336,-1.331711769104004,1015.2329,
2021.02.13 18:51:51,47.0,17.0,26.16,4.38,-37.079998,0.32083282,0.77574503,9.715967,-0.0016548339,-0.0031746665,0.0205098,-0.0796300545334816,-0.03300919756293297,-1.3120073080062866,1015.239,
2021.02.13 18:51:51,47.0,17.0,26.46,4.7999997,-36.899998,0.1987248,0.69673395,9.567522,-4.3310347E-4,-0.0025638016,0.0064598997,-0.07267888635396957,-0.020767785608768463,-1.3044570684432983,1015.239,
2021.02.13 18:51:52,47.0,17.0,26.46,4.8599997,-36.96,0.28970724,0.7541966,9.720756,-0.009596081,-0.0019529362,0.013790283,-0.07739686220884323,-0.029794136062264442,-1.3002407550811768,1015.2405,
2021.02.13 18:51:52,47.0,17.0,26.34,5.22,-37.079998,0.27294734,0.72785956,9.62259,0.0013994923,0.00110139,0.004016439,-0.07546670734882355,-0.02835766412317753,-1.2884399890899658,1015.2405,
2021.02.13 18:51:52,47.0,17.0,26.519999,5.4,-37.559998,0.20590763,0.7015225,9.680053,-0.0010439687,-0.0031746665,3.5124752E-4,-0.07232816517353058,-0.021268125623464584,-1.2838817834854126,1015.2356,
2021.02.13 18:51:52,47.0,17.0,26.34,5.3399997,-37.62,0.19633053,0.70870537,9.766247,-0.010206947,-0.0050072623,-2.5961772E-4,-0.0724252462387085,-0.02010026015341282,-1.2833350896835327,1015.23975,
2021.02.13 18:51:52,47.0,17.0,26.699999,4.92,-37.559998,0.31843856,0.7446195,9.715967,-0.0016548339,-0.004396397,9.621128E-4,-0.07644833624362946,-0.0327630378305912,-1.3014650344848633,1015.23975,
2021.02.13 18:51:52,47.0,17.0,26.58,4.8599997,-37.62,0.23942748,0.679974,9.57231,0.00934074,-0.0062289927,-0.005757405,-0.07089429348707199,-0.02500729262828827,-1.3058534860610962,1015.23804,
2021.02.13 18:51:52,47.0,17.0,26.16,4.44,-37.62,0.17478207,0.6943397,9.73991,-0.008985217,-0.0019529362,-0.0063682706,-0.07115628570318222,-0.017943011596798897,-1.313163161277771,1015.23804,
2021.02.13 18:51:52,47.0,17.0,26.16,4.2599998,-37.26,0.30886146,0.7877164,9.593859,0.009951605,0.0029339858,0.001572978,-0.08188033103942871,-0.03218254819512367,-1.3125628232955933,1015.2388,
2021.02.13 18:51:52,47.0,17.0,26.22,4.5,-37.14,0.19154198,0.7015225,9.768641,0.0020103576,0.011486099,-0.017363844,-0.07167691737413406,-0.019605329260230064,-1.312756061553955,1015.24756,
2021.02.13 18:51:52,47.0,17.0,26.519999,4.38,-37.44,0.22506183,0.7637737,9.522031,0.02094718,0.009653503,0.001572978,-0.08001759648323059,-0.0236315056681633,-1.3101332187652588,1015.24756,
2021.02.13 18:51:52,47.0,17.0,26.699999,4.38,-37.14,0.16520496,0.7206767,9.711179,0.010562471,0.01392956,-0.0045356746,-0.07406458258628845,-0.017010191455483437,-1.3172171115875244,1015.24097,
2021.02.13 18:51:52,47.0,17.0,26.64,4.3199997,-37.14,0.2657645,0.7948992,9.62259,0.016671123,0.010875233,0.0021838432,-0.08238920569419861,-0.02761179208755493,-1.312713861465454,1015.24097,
2021.02.13 18:51:52,47.0,17.0,26.76,4.2599998,-37.14,0.102953814,0.71588814,9.601042,7.88627E-4,0.007820908,-0.0020922134,-0.07442160695791245,-0.010722780600190163,-1.3189325332641602,1015.2446,
2021.02.13 18:51:52,47.0,17.0,26.46,4.2,-36.54,0.2083019,0.7829279,9.6896305,0.0038429531,0.0029339858,0.0076816306,-0.08060688525438309,-0.021494094282388687,-1.3164323568344116,1015.2495,
2021.02.13 18:51:52,47.0,17.0,26.82,4.38,-36.78,0.1699935,0.7206767,9.680053,0.012395066,0.009042637,0.0021838432,-0.07430115342140198,-0.017559411004185677,-1.3190637826919556,1015.2495,
2021.02.13 18:51:52,47.0,17.0,26.82,4.5,-36.899998,0.20351335,0.5698374,9.115005,-0.034030695,-0.08503061,0.013790283,-0.06241964176297188,-0.02232358232140541,-1.3310737609863281,1015.2385,
2021.02.13 18:51:53,47.0,17.0,26.939999,4.92,-36.96,0.41181526,0.81644773,10.501289,0.042327464,0.036531575,0.013790283,-0.07753193378448486,-0.039195600897073746,-1.3062727451324463,1015.2385,
