Time,X-cord,Y-cord,Mag_x,Mag_y,Mag_z,Acc_x,Acc_y,Acc_z,Gyro_x,Gyro_y,Gyro_z,Orn_x,Orn_y,Orn_z,Pressure,
2021.02.13 19:02:46,79.0,22.0,-9.3,29.34,-40.62,0.37829542,0.57462597,9.28021,-0.0132612735,0.15198511,-0.096165456,-0.061789363622665405,-0.04074111580848694,0.2356214076280594,1015.25146,
2021.02.13 19:02:46,79.0,22.0,-9.54,29.4,-40.44,0.2657645,0.38787252,9.775824,-0.04869146,0.01392956,-0.032024607,-0.039641279727220535,-0.02717920020222664,0.26582756638526917,1015.25146,
2021.02.13 19:02:46,79.0,22.0,-8.76,29.279999,-40.02,0.20590763,0.38547826,9.735122,-0.12443875,-0.021500623,-0.022861632,-0.039567138999700546,-0.02114785462617874,0.25107112526893616,1015.2676,
2021.02.13 19:02:46,79.0,22.0,-7.98,29.22,-39.66,0.15323359,0.33519846,9.543579,-0.09817154,-0.01172678,-0.0020922134,-0.03510397672653198,-0.01605481654405594,0.23550429940223694,1015.2676,
2021.02.13 19:02:46,79.0,22.0,-7.8599997,29.16,-39.18,0.28731298,0.2083019,9.730332,-0.08900857,0.003544851,0.03089451,-0.021394889801740646,-0.029518984258174896,0.21976113319396973,1015.2622,
2021.02.13 19:02:46,79.0,22.0,-7.3799996,29.34,-38.7,0.25379312,0.33759275,9.818921,-0.10611279,-0.015391972,0.029061915,-0.03435685485601425,-0.025841599330306053,0.2050972431898117,1015.27075,
2021.02.13 19:02:46,79.0,22.0,-7.3799996,29.76,-39.18,0.2657645,0.3304099,9.926663,-0.095728084,-0.008061589,0.031505376,-0.033260900527238846,-0.026766397058963776,0.20105478167533875,1015.27075,
2021.02.13 19:02:46,79.0,22.0,-7.62,30.179998,-39.3,0.29928434,0.35674694,9.699207,-0.072515205,-1.2034045E-4,0.028451048,-0.03674699366092682,-0.030846789479255676,0.19988879561424255,1015.2732,
2021.02.13 19:02:47,79.0,22.0,-7.56,30.66,-39.36,0.15083931,0.21787901,9.778218,-0.02242425,-0.0062289927,0.017455475,-0.022275740280747414,-0.01542482990771532,0.2170056849718094,1015.2732,
2021.02.13 19:02:47,79.0,22.0,-7.56,30.779999,-39.18,0.14126222,0.3328042,9.454991,-0.017537331,-0.024554951,0.005849035,-0.035180337727069855,-0.014939380809664726,0.21365295350551605,1015.2722,
2021.02.13 19:02:47,79.0,22.0,-7.98,30.84,-38.879997,0.17478207,0.25139886,9.715967,-4.3310347E-4,-0.020889759,0.0205098,-0.02586486004292965,-0.017987217754125595,0.22477012872695923,1015.26855,
2021.02.13 19:02:47,79.0,22.0,-8.16,30.9,-38.34,0.1987248,0.20111908,9.387952,-0.019980792,-0.03860485,0.014401148,-0.02141503430902958,-0.02116490714251995,0.22761784493923187,1015.26855,
2021.02.13 19:02:47,79.0,22.0,-8.16,30.96,-38.1,0.17478207,0.009577099,9.677659,-0.010206947,-0.03860485,0.053496525,-9.894473478198051E-4,-0.018058402463793755,0.23649662733078003,1015.2617,
2021.02.13 19:02:47,79.0,22.0,-8.28,30.9,-38.399998,0.28731298,0.52913475,9.529214,-0.04319367,-0.037993982,0.050442196,-0.055445533245801926,-0.030141621828079224,0.21251171827316284,1015.2617,
2021.02.13 19:02:47,79.0,22.0,-8.34,30.779999,-38.399998,0.16520496,0.5554718,9.895537,-0.04930232,-0.01172678,0.046777003,-0.05606692284345627,-0.016693344339728355,0.22990313172340393,1015.2573,
2021.02.13 19:02:47,79.0,22.0,-8.22,30.9,-38.399998,0.028731298,0.15323359,9.924269,0.038051408,-0.009894184,0.045555275,-0.01543899904936552,-0.0028950462583452463,0.2520322799682617,1015.2634,
2021.02.13 19:02:47,79.0,22.0,-8.5199995,30.9,-38.52,0.26337022,0.2466103,9.340066,0.07897938,0.007820908,0.06388123,-0.026386870071291924,-0.028190426528453827,0.22878167033195496,1015.2634,
2021.02.13 19:02:47,79.0,22.0,-8.5199995,30.9,-38.34,0.33519846,0.35674694,9.720756,0.024001507,0.0047665816,0.07976373,-0.03666127100586891,-0.03446909785270691,0.21917381882667542,1015.2605,
2021.02.13 19:02:47,79.0,22.0,-8.4,31.199999,-38.579998,0.32083282,0.4764607,9.778218,0.026444968,0.021870807,0.05899431,-0.048662085086107254,-0.03279920667409897,0.21247339248657227,1015.2605,
2021.02.13 19:02:47,79.0,22.0,-8.4,31.32,-38.76,0.102953814,0.29210153,9.682447,0.022779776,0.0053774468,0.013790283,-0.03015729784965515,-0.010632636025547981,0.24115365743637085,1015.2527,
2021.02.13 19:02:47,79.0,22.0,-7.98,31.32,-38.76,0.16041641,0.31604427,9.390346,0.05332304,0.027368596,0.01806634,-0.03363869711756706,-0.017081458121538162,0.2207154482603073,1015.2549,
2021.02.13 19:02:47,79.0,22.0,-7.8599997,31.32,-38.82,0.30886146,0.4285752,9.701602,0.017892854,0.0145404255,0.039446626,-0.04412468522787094,-0.03182538226246834,0.1979302018880844,1015.2549,
2021.02.13 19:02:47,79.0,22.0,-7.9199996,31.08,-38.7,0.20351335,0.42378664,9.670476,0.02094718,0.0127078295,0.03211624,-0.04378502443432808,-0.021041708067059517,0.2135998159646988,1015.26196,
2021.02.13 19:02:47,79.0,22.0,-8.099999,30.9,-39.0,0.12210801,0.2681588,9.749487,0.016671123,0.016373022,-0.01797471,-0.027495823800563812,-0.012523903511464596,0.23376251757144928,1015.26196,
2021.02.13 19:02:47,79.0,22.0,-7.98,30.96,-39.239998,0.14844504,0.42378664,9.768641,0.010562471,0.022481674,-0.017363844,-0.04335016757249832,-0.015194907784461975,0.222470223903656,1015.26074,
2021.02.13 19:02:48,79.0,22.0,-8.099999,31.32,-39.6,0.16041641,0.38787252,9.766247,0.011173336,0.0029339858,-0.0063682706,-0.039689406752586365,-0.016424117609858513,0.22283151745796204,1015.25635,
2021.02.13 19:02:48,79.0,22.0,-7.8599997,31.56,-39.6,0.19633053,0.42618093,9.608225,0.0020103576,-1.2034045E-4,-0.011255192,-0.04431755095720291,-0.02043074741959572,0.20867247879505157,1015.25635,
2021.02.13 19:02:48,79.0,22.0,-7.3799996,31.56,-39.54,0.15083931,0.47167215,9.601042,-0.008985217,4.905248E-4,-0.011255192,-0.049081671983003616,-0.01570943184196949,0.19924776256084442,1015.26074,
2021.02.13 19:02:48,79.0,22.0,-7.2,31.439999,-39.42,0.0670397,0.36871833,9.821315,-0.010206947,-7.312057E-4,-0.013087788,-0.03752416744828224,-0.006825833581387997,0.2076345533132553,1015.26074,
2021.02.13 19:02:48,79.0,22.0,-7.08,30.96,-39.18,0.19633053,0.37829542,9.632168,0.016671123,-0.007450723,0.013790283,-0.0392458513379097,-0.02037997543811798,0.1910029947757721,1015.2556,
2021.02.13 19:02:48,79.0,22.0,-6.96,30.9,-39.3,0.15323359,0.43336374,9.668081,0.0075081447,4.905248E-4,-0.0020922134,-0.04478856921195984,-0.015848103910684586,0.19178083539009094,1015.2612,
2021.02.13 19:02:48,79.0,22.0,-7.02,31.08,-39.3,0.062251143,0.46927786,9.682447,7.88627E-4,0.005988312,-0.009422596,-0.048427969217300415,-0.006429189350455999,0.20257173478603363,1015.2612,
2021.02.13 19:02:48,79.0,22.0,-7.2599998,31.08,-39.18,0.05506832,0.35435268,9.742304,0.021558044,0.003544851,0.001572978,-0.036355968564748764,-0.005652434658259153,0.21336853504180908,1015.2561,
2021.02.13 19:02:48,79.0,22.0,-7.02,31.32,-39.12,0.2083019,0.43336374,9.634562,0.019725451,0.0017122553,0.0021838432,-0.04493933543562889,-0.02161691151559353,0.18463121354579926,1015.2561,
2021.02.13 19:02:48,79.0,22.0,-7.2599998,31.08,-39.36,0.14605077,0.42378664,9.665688,0.01606026,0.0047665816,0.018677205,-0.0438113808631897,-0.015109080821275711,0.20058421790599823,1015.25635,
2021.02.13 19:02:48,79.0,22.0,-7.2599998,30.9,-39.48,0.076616794,0.43096948,9.629773,-0.0059308903,0.0047665816,-0.0039248094,-0.044722601771354675,-0.007956072688102722,0.20968936383724213,1015.25977,
2021.02.13 19:02:48,79.0,22.0,-7.44,30.84,-39.36,0.13647367,0.42618093,9.699207,0.005675549,4.905248E-4,0.0027947086,-0.04390718415379524,-0.014069671742618084,0.2085106372833252,1015.25977,
2021.02.13 19:02:48,79.0,22.0,-7.5,30.779999,-39.42,0.19154198,0.5123748,9.660899,-0.0114286775,-0.005618128,0.009514226,-0.05297590419650078,-0.019823921844363213,0.20180799067020416,1015.26733,
2021.02.13 19:02:48,79.0,22.0,-7.2599998,30.72,-39.3,0.18914771,0.4668836,9.711179,-0.0047091604,0.0023231206,0.008292495,-0.04803084209561348,-0.019474854692816734,0.19673824310302734,1015.26733,
2021.02.13 19:02:48,79.0,22.0,-7.2599998,30.539999,-39.54,0.105348095,0.38068968,9.766247,-0.0016548339,-0.007450723,-8.70483E-4,-0.03895815461874008,-0.010786539874970913,0.20999345183372498,1015.2644,
2021.02.13 19:02:48,79.0,22.0,-7.14,30.539999,-39.78,0.2083019,0.45012367,9.680053,0.0038429531,-0.017224567,9.621128E-4,-0.04645591601729393,-0.02151535451412201,0.191753089427948,1015.2654,
2021.02.13 19:02:48,79.0,22.0,-7.56,30.66,-40.079998,0.12210801,0.45012367,9.77343,-0.0132612735,-0.0025638016,-8.70483E-4,-0.046019747853279114,-0.012493225745856762,0.2140251100063324,1015.2654,
2021.02.13 19:02:49,79.0,22.0,-7.56,30.84,-39.719997,0.15083931,0.43336374,9.498088,0.016671123,-0.008672453,0.011957687,-0.045589055866003036,-0.015879685059189796,0.2092641443014145,1015.2615,
2021.02.13 19:02:49,79.0,22.0,-7.68,31.26,-39.54,0.105348095,0.44533512,9.840469,0.005675549,-0.004396397,0.011957687,-0.04522202908992767,-0.010705186985433102,0.2163214385509491,1015.2615,
2021.02.13 19:02:49,79.0,22.0,-7.74,31.26,-39.42,0.1699935,0.5147691,9.644139,0.010562471,-0.0050072623,0.005849035,-0.053317490965127945,-0.017624786123633385,0.20831884443759918,1015.25903,
2021.02.13 19:02:49,79.0,22.0,-7.3199997,30.599998,-39.12,0.035914123,0.3974496,9.75667,0.0044538183,-0.004396397,0.007070765,-0.04071340709924698,-0.003680964931845665,0.21948370337486267,1015.26465,
2021.02.13 19:02:49,79.0,22.0,-7.3199997,31.08,-39.42,0.17957062,0.44294083,9.636956,0.0075081447,-0.0031746665,0.014401148,-0.04592244699597359,-0.018631383776664734,0.19773966073989868,1015.26465,
2021.02.13 19:02:49,79.0,22.0,-7.8599997,30.96,-39.78,0.20111908,0.47885495,9.749487,-0.004098295,-0.004396397,0.013179418,-0.049066051840782166,-0.020625757053494453,0.2108575701713562,1015.2551,
2021.02.13 19:02:49,79.0,22.0,-7.9199996,30.96,-39.84,0.10774237,0.45970076,9.727939,-0.008374351,-0.011115915,3.5124752E-4,-0.04721770063042641,-0.011075107380747795,0.22409901022911072,1015.2551,
2021.02.13 19:02:49,79.0,22.0,-8.4,31.439999,-40.02,0.07422252,0.43815228,9.6896305,-0.004098295,0.00110139,0.0034055738,-0.04518657177686691,-0.007659845054149628,0.23897966742515564,1015.2605,
2021.02.13 19:02:49,79.0,22.0,-8.7,31.32,-39.84,0.22266756,0.49082634,9.62259,0.0013994923,-0.0062289927,0.011346822,-0.050949931144714355,-0.023135956376791,0.2292834371328354,1015.2639,
2021.02.13 19:02:49,79.0,22.0,-8.46,31.08,-39.48,0.19633053,0.49082634,9.715967,-0.0077634864,-0.004396397,0.009514226,-0.05046430230140686,-0.020204247906804085,0.2278336137533188,1015.2639,
2021.02.13 19:02:49,79.0,22.0,-8.46,31.32,-39.6,0.15323359,0.43815228,9.70639,0.0032320882,-0.008061589,0.011346822,-0.045104365795850754,-0.015785565599799156,0.23253554105758667,1015.25806,
2021.02.13 19:02:49,79.0,22.0,-8.46,31.56,-39.84,0.16520496,0.48843205,9.646533,1.7776179E-4,-0.0062289927,0.0034055738,-0.05058230459690094,-0.01712416298687458,0.22782713174819946,1015.25806,
2021.02.13 19:02:49,79.0,22.0,-8.58,31.439999,-40.2,0.15802214,0.5027977,9.522031,-4.3310347E-4,-0.0025638016,-0.0027030788,-0.05274737998843193,-0.016593899577856064,0.23176951706409454,1015.26465,
2021.02.13 19:02:49,79.0,22.0,-8.7,31.619999,-40.26,0.1340794,0.45970076,9.840469,0.006897279,-1.2034045E-4,0.010735957,-0.046677060425281525,-0.0136244622990489,0.23887647688388824,1015.2637,
2021.02.13 19:02:49,79.0,22.0,-8.82,31.56,-40.26,0.19154198,0.4860378,9.644139,0.0136167975,4.905248E-4,-0.0020922134,-0.05034470185637474,-0.019858360290527344,0.23457956314086914,1015.2637,
2021.02.13 19:02:49,79.0,22.0,-8.58,31.26,-40.2,0.1699935,0.50040346,9.687236,-0.0028765644,-0.0025638016,-0.0027030788,-0.051602158695459366,-0.01754639483988285,0.23217782378196716,1015.26294,
2021.02.13 19:02:50,79.0,22.0,-8.34,31.32,-40.079998,0.1699935,0.45730647,9.648928,0.009951605,-0.014170242,-0.011866057,-0.047351762652397156,-0.017616042867302895,0.226048082113266,1015.26294,
2021.02.13 19:02:50,79.0,22.0,-8.34,31.199999,-40.02,0.15323359,0.45251793,9.70639,0.011173336,-0.016613703,-0.013698653,-0.04658108949661255,-0.015785565599799156,0.22920189797878265,1015.2649,
2021.02.13 19:02:50,79.0,22.0,-8.58,30.96,-40.079998,0.11492519,0.39505535,9.47654,-0.0028765644,-0.0123376455,-0.018585576,-0.04166053980588913,-0.0121267419308424,0.24329476058483124,1015.2649,
2021.02.13 19:02:50,79.0,22.0,-9.12,31.08,-39.84,0.18435916,0.4285752,9.553157,-0.010206947,-0.017835433,-0.02041817,-0.04482376202940941,-0.01929584890604019,0.24896454811096191,1015.2649,
2021.02.13 19:02:50,79.0,22.0,-9.24,30.96,-39.96,0.083799616,0.42139238,9.857229,-0.0059308903,4.905248E-4,-0.013087788,-0.04272202029824257,-0.00850113108754158,0.266185998916626,1015.2627,
2021.02.13 19:02:50,79.0,22.0,-9.179999,31.019999,-40.26,0.15562786,0.44772938,9.75667,-0.024867713,-1.2034045E-4,-0.01797471,-0.04585157334804535,-0.015949565917253494,0.2543262541294098,1015.2627,
2021.02.13 19:02:50,79.0,22.0,-9.059999,31.019999,-39.96,0.17717634,0.41420954,9.591465,0.015449394,-0.0062289927,9.621128E-4,-0.04315105080604553,-0.018470192328095436,0.24900054931640625,1015.2556,
2021.02.13 19:02:50,79.0,22.0,-8.94,30.66,-40.44,0.09577099,0.409421,9.593859,0.013005932,0.0072100423,-2.5961772E-4,-0.04264732077717781,-0.009982199408113956,0.2579044997692108,1015.2505,
2021.02.13 19:02:50,79.0,22.0,-8.94,30.72,-40.14,0.12450229,0.43575802,9.730332,-0.017537331,0.009042637,-0.0045356746,-0.0447499081492424,-0.01279457751661539,0.2537434697151184,1015.2505,
2021.02.13 19:02:50,79.0,22.0,-8.82,30.72,-39.719997,0.17957062,0.43815228,9.72315,-0.0028765644,0.0029339858,0.015622879,-0.04502465948462486,-0.01846625842154026,0.24393941462039948,1015.2488,
2021.02.13 19:02:50,79.0,22.0,-8.82,30.96,-40.02,0.12210801,0.38068968,9.672871,-0.0065417555,0.008431774,0.0076816306,-0.03933299705386162,-0.012623091228306293,0.2503448724746704,1015.2488,
2021.02.13 19:02:50,79.0,22.0,-8.58,31.38,-39.84,0.16281068,0.42378664,9.668081,-0.0150938695,0.0029339858,0.012568552,-0.04379934445023537,-0.016838429495692253,0.23451288044452667,1015.2588,
2021.02.13 19:02:50,79.0,22.0,-8.58,31.019999,-40.02,0.15802214,0.40463245,9.7135725,-0.01875906,0.0072100423,0.010735957,-0.04162682965397835,-0.01626674458384514,0.2381053864955902,1015.2593,
2021.02.13 19:02:50,79.0,22.0,-8.88,31.14,-40.5,0.13647367,0.4166038,9.627379,-0.0163156,0.0041557164,0.0076816306,-0.04324149712920189,-0.014174629002809525,0.2475064992904663,1015.2593,
2021.02.13 19:02:50,79.0,22.0,-9.179999,30.9,-40.44,0.14365649,0.41420954,9.675264,-0.0034874296,-0.0019529362,0.004627304,-0.042780354619026184,-0.014846719801425934,0.25726208090782166,1015.2573,
2021.02.13 19:02:50,79.0,22.0,-9.12,30.84,-40.5,0.11013664,0.40223816,9.680053,-0.0028765644,-0.001342071,-2.5961772E-4,-0.04152672737836838,-0.011377199552953243,0.260379821062088,1015.2573,
2021.02.13 19:02:50,79.0,22.0,-9.179999,31.26,-40.32,0.07422252,0.43575802,9.711179,1.7776179E-4,-7.312057E-4,-2.5961772E-4,-0.04484040290117264,-0.00764284934848547,0.262330025434494,1015.2649,
2021.02.13 19:02:51,79.0,22.0,-9.12,31.32,-40.32,0.16281068,0.40463245,9.63935,1.7776179E-4,-0.0025638016,0.0064598997,-0.041946545243263245,-0.016888609156012535,0.25040382146835327,1015.25977,
2021.02.13 19:02:51,79.0,22.0,-8.58,31.199999,-40.379997,0.16281068,0.42618093,9.656111,0.0062864143,-0.0050072623,0.008292495,-0.04410099238157272,-0.016859298571944237,0.2352176457643509,1015.25977,
2021.02.13 19:02:51,79.0,22.0,-8.639999,31.26,-39.96,0.15083931,0.40463245,9.624985,0.0013994923,-0.007450723,0.0027947086,-0.04200990870594978,-0.015670359134674072,0.2387857735157013,1015.2649,
2021.02.13 19:02:51,79.0,22.0,-8.82,31.26,-39.899998,0.05506832,0.39266106,9.751882,-0.0028765644,-0.0019529362,9.621128E-4,-0.04024277999997139,-0.005646883510053158,0.2559545636177063,1015.2649,
2021.02.13 19:02:51,79.0,22.0,-8.5199995,31.08,-39.66,0.18675344,0.44533512,9.598648,0.0032320882,-7.312057E-4,0.007070765,-0.046353597193956375,-0.01945376768708229,0.23131199181079865,1015.2627,
2021.02.13 19:02:51,79.0,22.0,-9.0,31.26,-39.66,0.16281068,0.43336374,9.648928,-4.3310347E-4,-0.0025638016,0.0076816306,-0.04487660899758339,-0.016871849074959755,0.24714523553848267,1015.25146,
2021.02.13 19:02:51,79.0,22.0,-9.179999,31.14,-39.84,0.10055954,0.4166038,9.663293,-0.0010439687,-0.0025638016,9.621128E-4,-0.043082982301712036,-0.010405967012047768,0.26088663935661316,1015.25146,
2021.02.13 19:02:51,79.0,22.0,-9.059999,31.38,-39.84,0.12689656,0.3974496,9.749487,0.006897279,-0.0031746665,0.0021838432,-0.04074019566178322,-0.013014981523156166,0.2533908784389496,1015.25757,
2021.02.13 19:02:51,79.0,22.0,-9.12,31.619999,-39.719997,0.20590763,0.46209505,9.574705,0.0075081447,-0.006839858,0.004627304,-0.048213519155979156,-0.021502060815691948,0.24180924892425537,1015.25757,
2021.02.13 19:02:51,79.0,22.0,-8.7,31.56,-39.719997,0.105348095,0.4285752,9.6896305,0.0026212228,0.003544851,0.004016439,-0.04419887438416481,-0.010871822945773602,0.24344000220298767,1015.25757,
2021.02.13 19:02:51,79.0,22.0,-8.22,31.679998,-39.78,0.098165266,0.3998439,9.703996,0.0020103576,-0.0025638016,-2.5961772E-4,-0.04117865115404129,-0.01011561881750822,0.2306147664785385,1015.2583,
2021.02.13 19:02:51,79.0,22.0,-8.16,31.679998,-39.899998,0.17957062,0.45730647,9.63935,0.00934074,-0.01172678,0.007070765,-0.04739787057042122,-0.018626758828759193,0.21758043766021729,1015.2583,
2021.02.13 19:02:51,79.0,22.0,-8.34,31.32,-40.079998,0.17717634,0.46209505,9.6896305,-0.010817813,0.0017122553,-0.0045356746,-0.04764558747410774,-0.018283111974596977,0.2252039611339569,1015.26025,
2021.02.13 19:02:51,79.0,22.0,-8.4,31.38,-39.899998,0.076616794,0.35435268,9.701602,0.0032320882,-0.001342071,0.0064598997,-0.036507803946733475,-0.007897170260548592,0.2415398359298706,1015.26025,
2021.02.13 19:02:51,79.0,22.0,-8.46,31.199999,-39.84,0.19633053,0.47167215,9.615408,0.005675549,-0.005618128,0.0021838432,-0.04900429770350456,-0.02041548863053322,0.22683806717395782,1015.2556,
2021.02.13 19:02:51,79.0,22.0,-8.76,30.96,-40.14,0.14126222,0.42378664,9.608225,-0.0034874296,-0.0062289927,-0.0027030788,-0.044073328375816345,-0.014701158739626408,0.24477671086788177,1015.2527,
2021.02.13 19:02:51,79.0,22.0,-8.4,31.08,-39.719997,0.14844504,0.41420954,9.61062,0.011173336,0.0017122553,-0.0020922134,-0.043067362159490585,-0.015444710850715637,0.23328016698360443,1015.2527,
2021.02.13 19:02:52,79.0,22.0,-8.28,31.08,-39.719997,0.17717634,0.4668836,9.768641,0.0026212228,-7.312057E-4,-0.008811731,-0.04774993285536766,-0.01813526824116707,0.22550496459007263,1015.2532,
2021.02.13 19:02:52,79.0,22.0,-8.46,31.199999,-39.78,0.10774237,0.4285752,9.567522,0.00934074,-0.0019529362,-0.0027030788,-0.04476203769445419,-0.011260786093771458,0.23849298059940338,1015.2532,
2021.02.13 19:02:52,79.0,22.0,-8.46,30.84,-39.66,0.05506832,0.37111259,9.632168,0.011173336,-1.2034045E-4,-0.00514654,-0.038508787751197815,-0.005717064253985882,0.24924147129058838,1015.2517,
2021.02.13 19:02:52,79.0,22.0,-8.639999,30.96,-39.899998,0.14605077,0.4285752,9.696813,0.0075081447,0.003544851,0.00523817,-0.0441637821495533,-0.015060590580105782,0.24105706810951233,1015.2551,
2021.02.13 19:02:52,79.0,22.0,-8.82,30.96,-40.26,0.20590763,0.505192,9.680053,-0.009596081,0.006599177,0.008292495,-0.052129894495010376,-0.021268125623464584,0.2365698516368866,1015.2551,
2021.02.13 19:02:52,79.0,22.0,-8.82,30.84,-40.44,0.09577099,0.4166038,9.627379,-0.0022656992,-0.0025638016,-0.0014813483,-0.04324370250105858,-0.009947446174919605,0.2529548108577728,1015.2534,
2021.02.13 19:02:52,79.0,22.0,-8.639999,30.779999,-40.14,0.08858817,0.42618093,9.727939,-0.008374351,-0.007450723,0.0034055738,-0.04378018155694008,-0.009106320329010487,0.2492140531539917,1015.2534,
2021.02.13 19:02:52,79.0,22.0,-8.4,30.48,-40.32,0.17478207,0.4668836,9.648928,-4.3310347E-4,-0.016002836,0.009514226,-0.04834147170186043,-0.018112163990736008,0.23240335285663605,1015.261,
2021.02.13 19:02:52,79.0,22.0,-8.4,30.599998,-40.02,0.14605077,0.43575802,9.648928,0.0075081447,-0.004396397,0.014401148,-0.04512546584010124,-0.015135320834815502,0.23619376122951508,1015.25073,
2021.02.13 19:02:52,79.0,22.0,-8.4,30.599998,-39.66,0.11971374,0.41420954,9.663293,0.0075081447,-0.007450723,0.011957687,-0.04283471778035164,-0.012387869879603386,0.240290567278862,1015.25073,
2021.02.13 19:02:52,79.0,22.0,-8.46,31.08,-40.02,0.16281068,0.45730647,9.653716,0.008729876,-0.008672453,0.012568552,-0.047328926622867584,-0.01686348021030426,0.2320157289505005,1015.251,
2021.02.13 19:02:52,79.0,22.0,-8.88,30.96,-40.02,0.16759923,0.50758624,9.512454,0.0020103576,-0.004396397,0.0064598997,-0.0533013641834259,-0.017617104575037956,0.24240276217460632,1015.251,
2021.02.13 19:02:52,79.0,22.0,-8.88,30.84,-40.44,0.12450229,0.43336374,9.694419,0.014838528,-0.001342071,0.013179418,-0.044668976217508316,-0.012841970659792423,0.2508833408355713,1015.2554,
2021.02.13 19:02:52,79.0,22.0,-9.059999,30.72,-40.86,0.18675344,0.47167215,9.608225,0.021558044,-0.008061589,0.007070765,-0.049041830003261566,-0.019434383139014244,0.24758675694465637,1015.26025,
2021.02.13 19:02:52,79.0,22.0,-8.94,30.539999,-40.92,0.13647367,0.49800915,9.651321,7.88627E-4,0.016373022,-0.010033461,-0.05154923349618912,-0.014139470644295216,0.2509429454803467,1015.26025,
2021.02.13 19:02:52,79.0,22.0,-8.4,30.96,-40.559998,0.071828246,0.4956149,9.538791,0.022779776,0.013318695,-0.010644327,-0.0519096814095974,-0.007529978174716234,0.24035213887691498,1015.25684,
2021.02.13 19:02:53,79.0,22.0,-8.34,31.08,-40.379997,0.12450229,0.4668836,9.826104,0.008729876,0.010264369,0.0064598997,-0.04747510701417923,-0.012669885531067848,0.2331300973892212,1015.25684,
2021.02.13 19:02:53,79.0,22.0,-8.22,30.9,-40.32,0.36392978,0.68236834,9.703996,0.016671123,0.015151291,0.017455475,-0.07015357166528702,-0.0374855175614357,0.1965155005455017,1015.25757,
2021.02.13 19:02:53,79.0,22.0,-8.22,30.599998,-40.02,0.11492519,0.5147691,9.565128,0.022779776,-0.0019529362,-0.022250766,-0.05376152694225311,-0.012014440260827541,0.23230092227458954,1015.2551,
2021.02.13 19:02:53,79.0,22.0,-8.5199995,30.3,-40.14,-0.32801566,0.505192,8.102226,0.0020103576,-1.2034045E-4,-0.019807307,-0.06222078949213028,0.04046253487467766,0.3004791736602783,1015.2551,
2021.02.13 19:02:53,79.0,22.0,-8.76,30.119999,-40.68,0.4668836,0.6177229,10.795785,-0.09084116,-0.13512157,0.027229318,-0.05710331350564957,-0.0432199090719223,0.21253074705600739,1015.25146,
