Time,X-cord,Y-cord,Mag_x,Mag_y,Mag_z,Acc_x,Acc_y,Acc_z,Gyro_x,Gyro_y,Gyro_z,Orn_x,Orn_y,Orn_z,Pressure,
2021.01.16 15:46:04,17.0,24.0,23.1,-0.65999997,-32.82,-0.04070143,1.1707647,9.531317,0.045814894,-0.14477506,-0.015271631,-0.12222012132406235,0.004270258359611034,-1.4255609512329102,1015.8457,
2021.01.16 15:46:04,17.0,24.0,22.8,-1.0799999,-32.64,-0.60812724,1.0390835,9.033323,0.13194689,-0.028710667,-0.0580322,-0.11426808685064316,0.06721901148557663,-1.4347078800201416,1015.8457,
2021.01.16 15:46:04,17.0,24.0,22.619999,-1.0799999,-32.16,-0.30645782,0.8619126,9.555259,0.014660766,-0.014049901,-0.018936822,-0.0899135172367096,0.032061170786619186,-1.4840850830078125,1015.8457,
2021.01.16 15:46:04,17.0,24.0,22.199999,-0.65999997,-32.16,-0.21547815,0.8499416,9.49301,-0.04153884,0.009773844,0.05497787,-0.08927244693040848,0.022694716230034828,-1.4661693572998047,1015.8203,
2021.01.16 15:46:04,17.0,24.0,23.4,-0.84,-32.219997,-0.10055647,0.82360536,9.694122,-0.03970624,0.02443461,0.04153884,-0.0847511813044548,0.010372559539973736,-1.4881380796432495,1015.8203,
2021.01.16 15:46:04,17.0,24.0,23.699999,-0.78,-32.28,-0.11252748,0.89543146,9.782708,-0.04642576,0.03481932,0.031154128,-0.09127171337604523,0.01150218490511179,-1.4771860837936401,1015.8203,
2021.01.16 15:46:04,17.0,24.0,24.18,-1.14,-32.16,-0.22505496,0.9696517,9.76116,-0.023823744,0.0067195175,0.0067195175,-0.09898678213357925,0.023052087053656578,-1.48149836063385,1015.8203,
2021.01.16 15:46:04,17.0,24.0,24.42,-1.3199999,-32.46,-0.33279404,0.9648633,9.461885,0.0,-0.013439035,-0.015271631,-0.10156004130840302,0.035157572478055954,-1.482359528541565,1015.8296,
2021.01.16 15:46:04,17.0,24.0,23.88,-0.48,-32.399998,-0.272939,0.8882488,9.6845455,0.017104227,0.0018325958,-0.009773844,-0.09142617881298065,0.028175484389066696,-1.4605921506881714,1015.8296,
2021.01.16 15:46:04,17.0,24.0,24.18,-0.59999996,-32.64,-0.260968,0.9648633,9.662998,-0.014660766,0.021380283,0.0061086523,-0.09948541224002838,0.02700037509202957,-1.4550230503082275,1015.8296,
2021.01.16 15:46:04,17.0,24.0,24.0,-0.78,-33.3,-0.18674773,0.9864111,9.674969,-0.004276057,0.021380283,-0.008552114,-0.10158509016036987,0.01929975487291813,-1.4579161405563354,1015.8296,
2021.01.16 15:46:04,17.0,24.0,24.359999,-0.12,-32.64,-0.320823,0.93134445,9.660604,6.1086525E-4,0.021380283,-0.0030543262,-0.09605680406093597,0.03319721668958664,-1.4388747215270996,1015.81323,
2021.01.16 15:46:04,17.0,24.0,23.88,-0.71999997,-32.28,-0.33279404,0.9792285,9.76116,0.004886922,0.025045475,-0.020158553,-0.0999266728758812,0.03408049792051315,-1.4578148126602173,1015.81323,
2021.01.16 15:46:04,17.0,24.0,23.64,-0.29999998,-32.04,-0.33518824,0.90740246,9.718064,0.010995574,0.0036651916,-0.014049901,-0.09304780513048172,0.034477587789297104,-1.4491963386535645,1015.81323,
2021.01.16 15:46:04,17.0,24.0,23.88,0.17999999,-31.98,-0.4213795,0.90021986,9.476251,0.016493361,-0.01038471,-0.0061086523,-0.09462030231952667,0.044437628239393234,-1.4248493909835815,1015.81323,
2021.01.16 15:46:04,17.0,24.0,24.0,-0.35999998,-33.059998,-0.40940848,1.0007763,9.591172,0.009162978,-0.007330383,-0.008552114,-0.1038733422756195,0.04266006872057915,-1.4311236143112183,1015.7905,
2021.01.16 15:46:04,17.0,24.0,24.3,-0.35999998,-32.94,-0.37588966,0.89543146,9.821015,-0.016493361,0.010995574,0.01160644,-0.09085748344659805,0.03825534135103226,-1.4535232782363892,1015.7905,
2021.01.16 15:46:04,17.0,24.0,24.72,-0.59999996,-32.82,-0.37110126,0.90500826,9.737218,-0.010995574,-0.007330383,0.035430185,-0.09261010587215424,0.038093194365501404,-1.463646650314331,1015.7905,
2021.01.16 15:46:04,17.0,24.0,24.359999,-0.48,-32.7,-0.29448682,1.0007763,9.411607,0.007330383,-0.02443461,0.022602014,-0.10588475316762924,0.0312795452773571,-1.4404600858688354,1015.7905,
2021.01.16 15:46:04,17.0,24.0,24.0,-0.29999998,-32.219997,-0.272939,0.93852705,9.861717,-0.0012217305,-0.01160644,0.059253927,-0.09484685957431793,0.027669556438922882,-1.4495532512664795,1015.7881,
2021.01.16 15:46:05,17.0,24.0,23.82,-0.17999999,-31.98,-0.1604115,0.8475474,9.739613,-0.008552114,0.009773844,0.047036625,-0.08679027110338211,0.01646851934492588,-1.4585031270980835,1015.7881,
2021.01.16 15:46:05,17.0,24.0,23.46,-0.17999999,-31.8,-0.12689269,0.8379706,9.7563715,-0.014049901,-0.028099801,0.035430185,-0.08567209541797638,0.013005401939153671,-1.4598355293273926,1015.7881,
2021.01.16 15:46:05,17.0,24.0,23.88,-0.48,-31.98,-0.2753332,0.9576807,9.7324295,0.017715093,0.019547688,-0.0036651916,-0.09804625064134598,0.028282741084694862,-1.4530106782913208,1015.7881,
2021.01.16 15:46:05,17.0,24.0,23.76,-0.42,-32.46,-0.37349546,1.0031705,9.634268,0.01038471,-0.0067195175,-0.029321533,-0.10367404669523239,0.03874799236655235,-1.4366607666015625,1015.78687,
2021.01.16 15:46:05,17.0,24.0,24.119999,0.06,-32.94,-0.40940848,1.0223241,9.832987,0.02321288,0.004886922,-0.017715093,-0.10350758582353592,0.04161219298839569,-1.4152634143829346,1015.78687,
2021.01.16 15:46:05,17.0,24.0,24.0,-0.53999996,-33.12,-0.37588966,0.89543146,9.725247,0.010995574,-0.028099801,0.014660766,-0.09174589067697525,0.038631681352853775,-1.45767080783844,1015.78687,
2021.01.16 15:46:05,17.0,24.0,23.58,-0.78,-32.82,-0.20111294,0.8355764,9.615114,0.034208454,0.016493361,0.02076942,-0.08666574954986572,0.02091328427195549,-1.479052186012268,1015.78687,
2021.01.16 15:46:05,17.0,24.0,24.0,-1.38,-32.04,-0.22984336,0.90500826,9.636662,0.030543262,-0.026267206,0.030543262,-0.0936119481921196,0.02384641021490097,-1.4988720417022705,1015.7886,
2021.01.16 15:46:05,17.0,24.0,23.88,-1.8,-32.16,-0.2753332,0.94570965,9.715671,0.019547688,0.015271631,0.004886922,-0.09699419885873795,0.02833149954676628,-1.5104514360427856,1015.7886,
2021.01.16 15:46:05,17.0,24.0,23.64,-1.1999999,-32.52,-0.2633622,0.92416185,9.725247,0.0030543262,-0.010995574,0.008552114,-0.09470807015895844,0.027073640376329422,-1.4857280254364014,1015.7886,
2021.01.16 15:46:05,17.0,24.0,23.46,-1.0799999,-32.7,-0.2753332,0.8690952,9.78989,0.017104227,-0.007941248,0.007330383,-0.08850784599781036,0.028116825968027115,-1.4879111051559448,1015.7886,
2021.01.16 15:46:05,17.0,24.0,23.16,-0.53999996,-32.82,-0.31364042,0.9696517,9.662998,0.010995574,-0.020158553,0.002443461,-0.09995978325605392,0.03244648873806,-1.4441778659820557,1015.78394,
2021.01.16 15:46:05,17.0,24.0,23.22,-0.96,-32.94,-0.260968,0.92416185,9.730036,6.1086525E-4,-0.019547688,0.0012217305,-0.09466239809989929,0.02681444026529789,-1.4718948602676392,1015.78394,
2021.01.16 15:46:05,17.0,24.0,23.22,-1.02,-32.579998,-0.22266077,0.9552865,9.703699,-0.0030543262,0.007941248,0.007941248,-0.09810375422239304,0.022941941395401955,-1.471979022026062,1015.78394,
2021.01.16 15:46:05,17.0,24.0,23.34,-0.9,-32.64,-0.20829555,0.89782566,9.629479,-6.1086525E-4,-0.02321288,0.009773844,-0.09294679760932922,0.021627657115459442,-1.4747792482376099,1015.78394,
2021.01.16 15:46:05,17.0,24.0,23.22,-0.9,-32.88,-0.11971009,0.93373865,9.653421,-0.0030543262,-0.0036651916,0.0067195175,-0.0964188426733017,0.012400158680975437,-1.470435619354248,1015.7971,
2021.01.16 15:46:05,17.0,24.0,23.16,-0.9,-32.46,-0.260968,1.0103531,9.672575,-0.009773844,-0.0067195175,-0.01160644,-0.10404041409492493,0.026973655447363853,-1.4572821855545044,1015.7971,
2021.01.16 15:46:05,17.0,24.0,23.76,-0.84,-32.219997,-0.24660277,0.9720459,9.840169,-0.013439035,0.013439035,-0.029932396,-0.09843330085277557,0.02505558170378208,-1.4670974016189575,1015.7971,
2021.01.16 15:46:05,17.0,24.0,23.58,-0.84,-31.679998,-0.15801731,0.8858546,9.730036,-0.021380283,-0.004276057,-0.015271631,-0.09078109264373779,0.016238728538155556,-1.481289029121399,1015.7971,
2021.01.16 15:46:05,17.0,24.0,23.22,-1.02,-31.859999,-0.31124622,1.0031705,9.67018,-0.0030543262,-0.0018325958,-0.035430185,-0.10331568121910095,0.032175078988075256,-1.4654066562652588,1015.80273,
2021.01.16 15:46:05,17.0,24.0,23.64,-0.48,-31.679998,-0.23942018,0.9528923,9.682152,0.0012217305,-0.004276057,-0.029932396,-0.09807170182466507,0.024722954258322716,-1.4540190696716309,1015.80273,
2021.01.16 15:46:05,17.0,24.0,22.92,-0.9,-31.74,-0.22744916,0.85473,9.722853,-0.013439035,6.1086525E-4,-0.009162978,-0.08766011893749237,0.02338898740708828,-1.4840381145477295,1015.80273,
2021.01.16 15:46:05,17.0,24.0,23.16,-1.14,-31.98,-0.2801216,0.9528923,9.665392,-0.004886922,0.0012217305,-0.028099801,-0.09822951257228851,0.028973806649446487,-1.4780856370925903,1015.80273,
2021.01.16 15:46:05,17.0,24.0,23.699999,-1.1999999,-31.38,-0.28491,0.9983821,9.828198,-0.007330383,0.0030543262,-0.026267206,-0.10119394212961197,0.0289809200912714,-1.481300950050354,1015.81274,
2021.01.16 15:46:05,17.0,24.0,23.4,-1.1999999,-32.04,-0.2777274,0.9864111,9.631873,0.0036651916,-0.0036651916,-0.010995574,-0.1020132452249527,0.028826218098402023,-1.475989818572998,1015.81274,
2021.01.16 15:46:06,17.0,24.0,24.06,-1.3199999,-32.04,-0.19393034,0.89782566,9.727641,0.014049901,0.002443461,-0.008552114,-0.09201741218566895,0.019933369010686874,-1.4994663000106812,1015.81274,
2021.01.16 15:46:06,17.0,24.0,24.3,-0.78,-32.1,-0.15801731,0.90979666,9.624691,0.002443461,0.004276057,6.1086525E-4,-0.09423469007015228,0.016416434198617935,-1.4751251935958862,1015.81274,
2021.01.16 15:46:06,17.0,24.0,24.359999,-0.96,-32.64,-0.29448682,0.9600749,9.799467,0.009773844,0.002443461,-0.019547688,-0.09761669486761093,0.030042268335819244,-1.472875952720642,1015.8115,
2021.01.16 15:46:06,17.0,24.0,24.359999,-1.3199999,-32.399998,-0.33997664,0.94092125,9.722853,0.0036651916,0.002443461,-0.02443461,-0.096415214240551,0.034952517598867416,-1.4897611141204834,1015.8115,
2021.01.16 15:46:06,17.0,24.0,24.3,-0.48,-32.579998,-0.28491,0.8810662,9.593566,0.015882496,-0.010995574,-0.018325957,-0.09154224395751953,0.029689300805330276,-1.4612586498260498,1015.8115,
2021.01.16 15:46:06,17.0,24.0,23.939999,-0.71999997,-32.52,-0.2705448,0.94331545,9.737218,0.014049901,-0.0067195175,-0.0012217305,-0.09653890132904053,0.02777746319770813,-1.4634783267974854,1015.8115,
2021.01.16 15:46:06,17.0,24.0,23.88,-0.59999996,-32.28,-0.32561144,0.9720459,9.65821,0.0,0.004886922,-0.0036651916,-0.10025018453598022,0.033700671046972275,-1.4522802829742432,1015.813,
2021.01.16 15:46:06,17.0,24.0,23.46,-0.24,-32.64,-0.22505496,0.91458505,9.773131,0.0067195175,-0.007941248,0.0018325958,-0.09328523278236389,0.023023858666419983,-1.4458701610565186,1015.813,
2021.01.16 15:46:06,17.0,24.0,23.1,-0.65999997,-32.88,-0.24181437,0.91458505,9.67018,0.002443461,0.0067195175,0.016493361,-0.0942680761218071,0.025000980123877525,-1.4593971967697144,1015.813,
2021.01.16 15:46:06,17.0,24.0,22.74,-0.48,-33.239998,-0.24420857,0.94570965,9.605537,0.008552114,-0.0036651916,0.0012217305,-0.09810686111450195,0.025418251752853394,-1.4420474767684937,1015.813,
2021.01.16 15:46:06,17.0,24.0,22.439999,-0.42,-33.66,-0.25378537,0.92176765,9.722853,-6.1086525E-4,0.009773844,0.004886922,-0.09448973089456558,0.02609601989388466,-1.4410741329193115,1015.8191,
2021.01.16 15:46:06,17.0,24.0,22.92,-0.78,-33.239998,-0.19632454,0.93613285,9.648633,-0.0067195175,0.0,0.010995574,-0.09669972211122513,0.020344587042927742,-1.4598599672317505,1015.8191,
2021.01.16 15:46:06,17.0,24.0,23.22,-0.48,-33.18,-0.24420857,1.0031705,9.718064,-0.0036651916,-0.0030543262,0.0030543262,-0.10283083468675613,0.02512405626475811,-1.4380968809127808,1015.8191,
2021.01.16 15:46:06,17.0,24.0,23.58,-0.84,-33.0,-0.18914193,0.93613285,9.725247,-0.007941248,0.007941248,-0.0036651916,-0.09594432264566422,0.01944609545171261,-1.4678860902786255,1015.8191,
2021.01.16 15:46:06,17.0,24.0,23.64,-0.71999997,-33.0,-0.15562311,0.93134445,9.739613,-0.002443461,0.0030543262,0.004276057,-0.09532240778207779,0.015977006405591965,-1.4647603034973145,1015.81323,
2021.01.16 15:46:06,17.0,24.0,23.88,-0.48,-32.82,-0.34715924,0.9576807,9.488221,0.0018325958,-0.002443461,-0.012217305,-0.10052615404129028,0.03657212853431702,-1.443463921546936,1015.81323,
2021.01.16 15:46:06,17.0,24.0,23.279999,-0.53999996,-32.7,-0.2825158,0.90979666,9.627085,0.015271631,0.009162978,-0.027488936,-0.09418371319770813,0.02933751419186592,-1.4547598361968994,1015.81323,
2021.01.16 15:46:06,17.0,24.0,23.16,-0.06,-32.94,-0.32321724,0.9648633,9.691729,-0.01160644,0.009162978,0.0,-0.09917359799146652,0.03333744779229164,-1.4232834577560425,1015.81323,
2021.01.16 15:46:06,17.0,24.0,23.279999,-0.29999998,-32.399998,-0.2825158,0.9768343,9.749189,-0.010995574,0.0067195175,-0.010995574,-0.099821537733078,0.028970280662178993,-1.4374253749847412,1015.80493,
2021.01.16 15:46:06,17.0,24.0,23.279999,-0.12,-33.18,-0.32561144,0.9816227,9.629479,-0.009773844,0.0036651916,0.0036651916,-0.1015307828783989,0.03380114585161209,-1.4219224452972412,1015.80493,
2021.01.16 15:46:06,17.0,24.0,23.699999,-0.24,-33.18,-0.21787235,0.9528923,9.713276,0.002443461,-0.0012217305,0.015882496,-0.09776471555233002,0.022426608949899673,-1.4386353492736816,1015.80493,
2021.01.16 15:46:06,17.0,24.0,23.939999,0.06,-33.12,-0.16519992,0.8499416,9.576807,0.007941248,-0.010995574,0.02687807,-0.08850497752428055,0.01724828965961933,-1.4421186447143555,1015.80493,
2021.01.16 15:46:06,17.0,24.0,23.64,0.24,-33.239998,-0.15562311,0.89782566,9.624691,0.005497787,-0.005497787,0.014660766,-0.0930023342370987,0.016167744994163513,-1.426309585571289,1015.81177,
2021.01.16 15:46:06,17.0,24.0,22.98,0.12,-32.64,-0.31124622,0.92655605,9.679757,-0.0018325958,-0.004276057,-0.01160644,-0.0953812450170517,0.03214326500892639,-1.4215121269226074,1015.81177,
2021.01.16 15:46:06,17.0,24.0,22.92,0.35999998,-32.7,-0.33279404,0.9672575,9.569624,0.0036651916,0.007330383,-0.017104227,-0.10067325085401535,0.034762073308229446,-1.4014301300048828,1015.81177,
2021.01.16 15:46:07,17.0,24.0,22.8,0.24,-32.46,-0.35434186,0.9840169,9.545682,0.005497787,-0.0067195175,-0.01038471,-0.10265199095010757,0.03710360452532768,-1.4032747745513916,1015.81177,
2021.01.16 15:46:07,17.0,24.0,22.92,0.24,-32.46,-0.20829555,0.9552865,9.67018,-0.009162978,0.009773844,0.007330383,-0.09844466298818588,0.021536655724048615,-1.415546178817749,1015.8247,
2021.01.16 15:46:07,17.0,24.0,23.4,0.53999996,-32.82,-0.1388637,0.94570965,9.65821,-0.0067195175,0.008552114,0.007941248,-0.09759651124477386,0.014376798644661903,-1.4078996181488037,1015.8247,
2021.01.16 15:46:07,17.0,24.0,23.16,0.48,-33.0,-0.19153613,0.90740246,9.574412,0.0,0.0061086523,-0.0030543262,-0.09447267651557922,0.02000233344733715,-1.4106398820877075,1015.8247,
2021.01.16 15:46:07,17.0,24.0,22.92,0.35999998,-32.76,-0.20350714,0.91458505,9.598354,6.1086525E-4,0.004276057,-0.021991149,-0.09497757256031036,0.021199118345975876,-1.4141041040420532,1015.8247,
2021.01.16 15:46:07,17.0,24.0,23.1,0.17999999,-32.76,-0.35194764,0.9720459,9.627085,-0.01160644,-0.0018325958,-0.03481932,-0.10056213289499283,0.03654179349541664,-1.4099836349487305,1015.8225,
2021.01.16 15:46:07,17.0,24.0,22.92,-0.42,-32.7,-0.2873042,0.9744401,9.660604,-0.010995574,0.0067195175,-0.034208454,-0.10048327594995499,0.029731014743447304,-1.4380543231964111,1015.8225,
2021.01.16 15:46:07,17.0,24.0,23.34,-0.42,-32.34,-0.34715924,0.9624691,9.605537,-0.01160644,-0.002443461,-0.021991149,-0.09980133920907974,0.036125849932432175,-1.4412627220153809,1015.8225,
2021.01.16 15:46:07,17.0,24.0,23.519999,-0.59999996,-32.46,-0.22744916,0.94570965,9.61272,0.0012217305,0.0,-0.02076942,-0.09803823381662369,0.023656856268644333,-1.4555213451385498,1015.8225,
2021.01.16 15:46:07,17.0,24.0,23.34,0.0,-32.76,-0.23702596,0.9504981,9.698911,-0.0036651916,0.0012217305,-0.012217305,-0.09765959531068802,0.024433547630906105,-1.4275974035263062,1015.8208,
2021.01.16 15:46:07,17.0,24.0,23.279999,0.65999997,-32.7,-0.29927522,0.9840169,9.591172,0.0061086523,0.0036651916,-0.021380283,-0.10218899697065353,0.031193073838949203,-1.390093445777893,1015.8208,
2021.01.16 15:46:07,17.0,24.0,23.039999,0.65999997,-33.0,-0.272939,0.90979666,9.603143,0.015271631,-0.007941248,-0.029932396,-0.09441963583230972,0.02841419167816639,-1.3992009162902832,1015.8208,
2021.01.16 15:46:07,17.0,24.0,23.16,0.65999997,-33.12,-0.39025488,0.94810385,9.504981,0.007330383,0.004276057,-0.02076942,-0.09933609515428543,0.04103488847613335,-1.387723684310913,1015.8208,
2021.01.16 15:46:07,17.0,24.0,23.279999,-0.12,-33.059998,-0.30406362,0.92895025,9.672575,0.007330383,-0.007330383,-0.030543262,-0.09569896012544632,0.031425293534994125,-1.4318902492523193,1015.8198,
2021.01.16 15:46:07,17.0,24.0,23.279999,-0.42,-33.239998,-0.37828386,1.0175357,9.516952,-0.0061086523,0.008552114,-0.01160644,-0.10643019527196884,0.03972751274704933,-1.4255784749984741,1015.8198,
2021.01.16 15:46:07,17.0,24.0,23.279999,-0.53999996,-33.239998,-0.29209262,0.9696517,9.67018,0.004276057,-0.01038471,-0.01160644,-0.09989304095506668,0.03019631654024124,-1.4436575174331665,1015.8198,
2021.01.16 15:46:07,17.0,24.0,22.74,-0.59999996,-33.54,-0.21308395,0.92895025,9.65821,-0.0061086523,-0.004276057,0.014660766,-0.09586429595947266,0.022058891132473946,-1.4504268169403076,1015.8198,
2021.01.16 15:46:07,17.0,24.0,22.619999,-0.35999998,-33.54,-0.20111294,0.8858546,9.466674,0.004886922,-0.0061086523,0.014049901,-0.09328348189592361,0.021241113543510437,-1.4432064294815063,1015.83154,
2021.01.16 15:46:07,17.0,24.0,22.8,-0.24,-33.42,-0.24660277,0.90740246,9.502586,0.012217305,-0.01282817,-6.1086525E-4,-0.0951695442199707,0.025945298373699188,-1.435171365737915,1015.83154,
2021.01.16 15:46:07,17.0,24.0,22.619999,-0.06,-33.42,-0.33518824,0.9768343,9.682152,-0.005497787,-0.002443461,-0.0061086523,-0.10049016773700714,0.034605368971824646,-1.414982795715332,1015.83154,
2021.01.16 15:46:07,17.0,24.0,23.16,0.29999998,-33.0,-0.33279404,0.9983821,9.588778,-0.009162978,0.0,-0.0030543262,-0.10368404537439346,0.03469268977642059,-1.399991750717163,1015.83154,
2021.01.16 15:46:07,17.0,24.0,23.22,0.65999997,-32.88,-0.25378537,0.92655605,9.593566,0.0012217305,-0.008552114,0.012217305,-0.09624889492988586,0.026447536423802376,-1.3990834951400757,1015.82715,
2021.01.16 15:46:07,17.0,24.0,23.279999,0.9,-33.0,-0.21308395,0.9648633,9.552865,6.1086525E-4,-0.005497787,0.017104227,-0.10063626617193222,0.022302066907286644,-1.3838955163955688,1015.82715,
2021.01.16 15:46:07,17.0,24.0,23.22,1.02,-32.82,-0.25617957,0.93613285,9.65821,-0.007941248,0.0,0.01282817,-0.09659053385257721,0.0265183225274086,-1.383303165435791,1015.82715,
2021.01.16 15:46:07,17.0,24.0,22.859999,1.0799999,-32.82,-0.24420857,0.9720459,9.622296,-0.0012217305,0.0012217305,0.004276057,-0.10064642131328583,0.025374000892043114,-1.372291922569275,1015.82715,
2021.01.16 15:46:08,17.0,24.0,22.74,0.96,-33.0,-0.29448682,0.94092125,9.564836,0.005497787,-0.014049901,0.009162978,-0.0980113297700882,0.030778763815760612,-1.377442479133606,1015.8281,
2021.01.16 15:46:08,17.0,24.0,22.92,0.48,-32.64,-0.19153613,0.9552865,9.629479,0.005497787,0.002443461,0.009773844,-0.09886141866445541,0.019887978211045265,-1.404226541519165,1015.8281,
2021.01.16 15:46:08,17.0,24.0,23.039999,0.24,-33.239998,-0.24181437,1.0247183,9.595961,0.0030543262,-0.005497787,0.009773844,-0.10634976625442505,0.02519426867365837,-1.4000277519226074,1015.8281,
2021.01.16 15:46:08,17.0,24.0,23.46,0.0,-33.18,-0.1388637,0.90740246,9.691729,0.004886922,-0.004276057,0.01038471,-0.09334481507539749,0.014327083714306355,-1.4357062578201294,1015.8281,
2021.01.16 15:46:08,17.0,24.0,23.519999,-0.12,-32.94,-0.15562311,0.92655605,9.588778,0.013439035,0.0061086523,0.007330383,-0.09631752967834473,0.016228288412094116,-1.4373760223388672,1015.8196,
2021.01.16 15:46:08,17.0,24.0,22.859999,-0.29999998,-33.18,-0.32561144,1.0007763,9.454702,0.014049901,-0.017715093,-0.017715093,-0.1053948700428009,0.03442549332976341,-1.4211299419403076,1015.8196,
2021.01.16 15:46:08,17.0,24.0,22.98,-0.42,-32.399998,-0.25378537,0.94570965,9.701305,0.004886922,0.004276057,-0.018325957,-0.09714265912771225,0.02615395560860634,-1.445726752281189,1015.8196,
2021.01.16 15:46:08,17.0,24.0,22.56,0.0,-32.399998,-0.22505496,0.92416185,9.531317,-0.014049901,-6.1086525E-4,-6.1086525E-4,-0.09663164615631104,0.023607773706316948,-1.4260307550430298,1015.8196,
2021.01.16 15:46:08,17.0,24.0,22.8,0.0,-32.94,-0.21068975,0.9552865,9.586384,-6.1086525E-4,0.0012217305,-0.002443461,-0.0992986187338829,0.021974483504891396,-1.4217382669448853,1015.8247,
2021.01.16 15:46:08,17.0,24.0,22.8,0.48,-32.88,-0.2657564,1.0079589,9.627085,-0.01038471,-0.0036651916,-0.01160644,-0.10428079217672348,0.027598068118095398,-1.391597032546997,1015.8247,
2021.01.16 15:46:08,17.0,24.0,22.859999,0.78,-33.18,-0.20111294,0.92176765,9.667787,-0.01038471,0.004276057,-0.005497787,-0.09503645449876785,0.02079937793314457,-1.3935869932174683,1015.8247,
2021.01.16 15:46:08,17.0,24.0,23.16,0.53999996,-33.42,-0.19632454,0.92416185,9.629479,-0.0036651916,-0.008552114,0.004886922,-0.09565935283899307,0.02038504369556904,-1.4044201374053955,1015.8247,
2021.01.16 15:46:08,17.0,24.0,23.16,0.29999998,-32.88,-0.22984336,0.91937345,9.643845,-0.0030543262,-0.002443461,-0.005497787,-0.09501861035823822,0.02382865734398365,-1.4169206619262695,1015.82324,
2021.01.16 15:46:08,17.0,24.0,23.64,0.0,-33.0,-0.2801216,0.90021986,9.540894,0.004886922,-0.005497787,-0.009162978,-0.09403503686189651,0.029351668432354927,-1.432141661643982,1015.82324,
2021.01.16 15:46:08,17.0,24.0,23.46,-0.06,-33.18,-0.24181437,0.91219085,9.665392,0.005497787,-0.0012217305,-0.01160644,-0.09406904131174088,0.025013362988829613,-1.4341367483139038,1015.82324,
2021.01.16 15:46:08,17.0,24.0,23.64,-0.17999999,-33.0,-0.33279404,0.9768343,9.49301,-0.009773844,-0.002443461,-0.002443461,-0.10247696936130524,0.03504239767789841,-1.4258685111999512,1015.82324,
2021.01.16 15:46:08,17.0,24.0,23.279999,-0.24,-33.0,-0.16519992,0.8738836,9.694122,0.005497787,0.0018325958,-0.005497787,-0.08988974243402481,0.017039597034454346,-1.4499443769454956,1015.8164,
2021.01.16 15:46:08,17.0,24.0,23.039999,-0.24,-32.64,-0.18435353,0.90021986,9.610326,-0.01282817,-0.002443461,0.02321288,-0.09338252246379852,0.019180508330464363,-1.4445064067840576,1015.8164,
2021.01.16 15:46:08,17.0,24.0,23.22,-0.42,-32.579998,-0.21068975,0.90021986,9.627085,0.0030543262,0.007941248,0.002443461,-0.09321576356887817,0.02188161015510559,-1.453086495399475,1015.8164,
2021.01.16 15:46:08,17.0,24.0,22.859999,-0.48,-32.34,-0.24420857,0.89064306,9.595961,-0.0036651916,-0.002443461,6.1086525E-4,-0.09251943975687027,0.025443609803915024,-1.4549914598464966,1015.8164,
2021.01.16 15:46:08,17.0,24.0,22.859999,-0.17999999,-32.16,-0.24660277,0.94810385,9.560047,0.0,0.008552114,-0.0030543262,-0.09881766140460968,0.025789422914385796,-1.4331457614898682,1015.8164,
2021.01.16 15:46:08,17.0,24.0,22.859999,-0.65999997,-32.579998,-0.22984336,0.91937345,9.713276,-0.01038471,-0.002443461,0.0061086523,-0.09434382617473602,0.0236583910882473,-1.4597575664520264,1015.8164,
2021.01.16 15:46:08,17.0,24.0,22.56,-0.48,-32.579998,-0.17477672,0.89782566,9.516952,6.1086525E-4,0.0067195175,0.0061086523,-0.0940454825758934,0.01836271584033966,-1.4520392417907715,1015.8164,
2021.01.16 15:46:08,17.0,24.0,22.74,-0.35999998,-33.0,-0.14844051,0.8643068,9.581595,-0.002443461,0.002443461,-0.0018325958,-0.08995068073272705,0.01549101434648037,-1.4526989459991455,1015.8164,
2021.01.16 15:46:08,17.0,24.0,22.8,-0.17999999,-33.36,-0.19632454,0.92416185,9.672575,-0.008552114,0.0030543262,-0.004886922,-0.0952359139919281,0.02029424160718918,-1.4343680143356323,1015.80615,
2021.01.16 15:46:09,17.0,24.0,22.98,0.48,-33.239998,-0.23463176,0.94092125,9.653421,-0.0030543262,0.004276057,-0.016493361,-0.09713480621576309,0.024300768971443176,-1.402998924255371,1015.80615,
2021.01.16 15:46:09,17.0,24.0,23.039999,0.12,-33.239998,-0.18674773,0.8379706,9.679757,0.0,0.015271631,-0.009773844,-0.0863381028175354,0.01929021254181862,-1.436590313911438,1015.80615,
2021.01.16 15:46:09,17.0,24.0,23.34,-0.24,-33.059998,-0.32561144,0.9528923,9.461885,0.008552114,0.004276057,-0.021991149,-0.10031111538410187,0.034399379044771194,-1.429761528968811,1015.80615,
2021.01.16 15:46:09,17.0,24.0,23.279999,-0.71999997,-33.42,-0.29688102,0.91697925,9.7084875,0.01160644,-6.1086525E-4,-0.021991149,-0.09412819147109985,0.030570005998015404,-1.4593505859375,1015.80493,
2021.01.16 15:46:09,17.0,24.0,23.46,-0.84,-33.3,-0.30406362,0.90021986,9.586384,-0.0018325958,0.010995574,-0.0030543262,-0.09358472377061844,0.031707651913166046,-1.466523289680481,1015.80493,
2021.01.16 15:46:09,17.0,24.0,23.58,-0.29999998,-33.6,-0.18195933,0.8619126,9.651027,0.0030543262,0.002443461,0.002443461,-0.08905581384897232,0.01885165087878704,-1.4524236917495728,1015.80493,
2021.01.16 15:46:09,17.0,24.0,22.8,-0.29999998,-33.84,-0.272939,0.8810662,9.55047,0.0,-0.0036651916,0.004276057,-0.09195598214864731,0.028570815920829773,-1.440165400505066,1015.80493,
2021.01.16 15:46:09,17.0,24.0,23.34,-0.17999999,-33.6,-0.22744916,0.90740246,9.627085,0.004276057,0.01282817,-0.007941248,-0.09395145624876022,0.023621568456292152,-1.4374409914016724,1015.8125,
2021.01.16 15:46:09,17.0,24.0,23.22,-0.17999999,-33.12,-0.320823,0.91937345,9.672575,-0.0067195175,-6.1086525E-4,0.0018325958,-0.09471303224563599,0.03315616026520729,-1.4348608255386353,1015.8125,
2021.01.16 15:46:09,17.0,24.0,22.859999,-0.48,-32.88,-0.272939,0.89064306,9.651027,0.002443461,0.013439035,-0.004886922,-0.09198757261037827,0.028273288160562515,-1.4527207612991333,1015.8125,
2021.01.16 15:46:09,17.0,24.0,23.64,-0.12,-32.579998,-0.2801216,0.90740246,9.588778,-0.002443461,0.0030543262,0.01038471,-0.09431074559688568,0.02920517697930336,-1.4387422800064087,1015.8125,
2021.01.16 15:46:09,17.0,24.0,23.279999,0.0,-32.52,-0.25617957,0.93613285,9.627085,0.0067195175,-0.0030543262,0.0030543262,-0.09690064936876297,0.02660401724278927,-1.4287189245224,1015.8059,
2021.01.16 15:46:09,17.0,24.0,23.46,-0.24,-33.059998,-0.19153613,0.91219085,9.651027,0.016493361,0.009162978,0.01038471,-0.09421909600496292,0.019843587651848793,-1.4436525106430054,1015.8059,
2021.01.16 15:46:09,17.0,24.0,23.82,-0.59999996,-32.94,-0.21308395,0.89064306,9.526528,0.019547688,0.023823744,0.004886922,-0.09319668263196945,0.022363699972629547,-1.462164044380188,1015.8059,
2021.01.16 15:46:09,17.0,24.0,23.58,-0.59999996,-33.18,-0.4213795,0.92655605,9.55047,0.02076942,0.017715093,-0.007941248,-0.09662070870399475,0.04409273713827133,-1.4491595029830933,1015.8059,
2021.01.16 15:46:09,17.0,24.0,23.699999,-0.53999996,-33.239998,-0.2873042,1.0031705,9.662998,0.004276057,0.009773844,-0.01160644,-0.10339971631765366,0.029723647981882095,-1.4409263134002686,1015.803,
2021.01.16 15:46:09,17.0,24.0,23.279999,-0.29999998,-32.88,-0.20350714,0.92895025,9.481039,-0.002443461,0.004886922,0.009773844,-0.09764569997787476,0.021461350843310356,-1.4406102895736694,1015.803,
2021.01.16 15:46:09,17.0,24.0,23.58,0.0,-32.76,-0.34955344,0.9768343,9.524135,0.004886922,0.031154128,-0.0012217305,-0.10213842242956161,0.03668539598584175,-1.4187685251235962,1015.803,
2021.01.16 15:46:09,17.0,24.0,23.279999,-0.17999999,-32.579998,-0.24181437,1.0055647,9.651027,-0.021991149,-0.030543262,-0.005497787,-0.10378555953502655,0.025050576776266098,-1.4268271923065186,1015.803,
2021.01.16 15:46:09,17.0,24.0,23.22,-0.17999999,-32.64,-0.3184288,0.9744401,9.751583,-0.007330383,0.018936822,0.0,-0.0995430201292038,0.032642465084791183,-1.4300059080123901,1015.7993,
2021.01.16 15:46:09,17.0,24.0,23.279999,0.24,-32.88,-0.24660277,0.91458505,9.636662,-0.009162978,0.02076942,-0.0030543262,-0.0945926383137703,0.025584479793906212,-1.4203789234161377,1015.7993,
2021.01.16 15:46:09,17.0,24.0,22.8,0.12,-32.76,-0.34955344,0.8643068,9.504981,0.004276057,-0.013439035,0.0061086523,-0.09062166512012482,0.03675924986600876,-1.4254909753799438,1015.7993,
2021.01.16 15:46:09,17.0,24.0,23.16,0.53999996,-32.94,-0.1364695,0.93613285,9.689334,0.0,-0.013439035,0.007330383,-0.09630633890628815,0.014083576388657093,-1.4076344966888428,1015.7993,
2021.01.16 15:46:09,17.0,24.0,23.039999,0.29999998,-32.76,-0.41180268,1.0175357,9.564836,0.005497787,0.01038471,-0.010995574,-0.10588699579238892,0.04302724450826645,-1.3939354419708252,1015.80664,
2021.01.16 15:46:09,17.0,24.0,22.859999,0.0,-32.64,-0.32561144,0.92176765,9.631873,0.009773844,-0.018325957,-0.01038471,-0.09535502642393112,0.033792752772569656,-1.425605058670044,1015.80664,
2021.01.16 15:46:10,17.0,24.0,23.039999,-0.06,-32.76,-0.3184288,0.92416185,9.617508,-0.0030543262,-0.005497787,0.007330383,-0.09574533253908157,0.033097196370363235,-1.4285190105438232,1015.80664,
2021.01.16 15:46:10,17.0,24.0,22.68,-0.06,-32.94,-0.2633622,0.91458505,9.689334,-0.0067195175,-0.010995574,0.0036651916,-0.09407754242420197,0.02717394009232521,-1.4297810792922974,1015.80664,
2021.01.16 15:46:10,17.0,24.0,22.74,0.29999998,-32.76,-0.22984336,0.91219085,9.6845455,0.005497787,0.0067195175,0.0061086523,-0.09388700872659683,0.023728549480438232,-1.4162912368774414,1015.80396,
2021.01.16 15:46:10,17.0,24.0,22.859999,0.12,-33.12,-0.33997664,0.92416185,9.583989,0.002443461,-0.017104227,-0.002443461,-0.09607041627168655,0.0354585275053978,-1.4164313077926636,1015.80396,
2021.01.16 15:46:10,17.0,24.0,23.039999,0.42,-33.3,-0.2896984,0.91458505,9.64145,0.016493361,-0.0061086523,-0.010995574,-0.09453429281711578,0.030038144439458847,-1.4076911211013794,1015.80396,
2021.01.16 15:46:10,17.0,24.0,23.16,0.0,-33.059998,-0.31364042,0.8738836,9.591172,0.0061086523,-0.01282817,0.0067195175,-0.09081416577100754,0.03268929570913315,-1.432774305343628,1015.80396,
2021.01.16 15:46:10,17.0,24.0,23.699999,0.0,-33.3,-0.29688102,0.9528923,9.497798,0.012217305,-0.007941248,-0.004276057,-0.09994461387395859,0.031247705221176147,-1.4220070838928223,1015.8081,
2021.01.16 15:46:10,17.0,24.0,23.699999,-0.12,-33.48,-0.24899697,0.93373865,9.64145,-0.0067195175,-0.005497787,0.008552114,-0.09651321917772293,0.025819936767220497,-1.433040738105774,1015.8081,
2021.01.16 15:46:10,17.0,24.0,23.88,-0.24,-33.36,-0.23463176,0.90979666,9.67018,-0.0061086523,0.0030543262,0.02321288,-0.09377913177013397,0.024258671328425407,-1.4440815448760986,1015.8081,
2021.01.16 15:46:10,17.0,24.0,24.119999,-0.29999998,-33.54,-0.22266077,0.91697925,9.583989,0.002443461,-0.009773844,0.012217305,-0.09536231309175491,0.023228399455547333,-1.4451485872268677,1015.8081,
2021.01.16 15:46:10,17.0,24.0,23.46,-0.96,-33.42,-0.24181437,0.93613285,9.579201,0.012217305,-0.0061086523,0.013439035,-0.09738540649414062,0.02523832954466343,-1.4672037363052368,1015.8064,
2021.01.16 15:46:10,17.0,24.0,23.22,-0.84,-33.0,-0.22744916,0.9552865,9.706094,-0.007330383,-0.009773844,0.005497787,-0.09807860106229782,0.023429356515407562,-1.4621453285217285,1015.8064,
2021.01.16 15:46:10,17.0,24.0,22.8,-0.84,-33.18,-0.2681506,0.93613285,9.643845,-0.004276057,0.0036651916,0.0030543262,-0.09673017263412476,0.027798200026154518,-1.4602062702178955,1015.8064,
2021.01.16 15:46:10,17.0,24.0,22.56,-0.96,-33.059998,-0.24181437,0.9504981,9.586384,0.0067195175,-0.004276057,-0.0061086523,-0.09879660606384277,0.025219427421689034,-1.4625309705734253,1015.8064,
2021.01.16 15:46:10,17.0,24.0,22.92,-0.71999997,-33.12,-0.25139117,0.9528923,9.579201,0.01038471,-0.0067195175,-0.0030543262,-0.0991150513291359,0.02623741701245308,-1.452528715133667,1015.802,
2021.01.16 15:46:10,17.0,24.0,23.34,-0.59999996,-33.3,-0.21308395,0.93373865,9.655815,0.002443461,-0.0012217305,-0.0067195175,-0.09637913852930069,0.022064359858632088,-1.4538081884384155,1015.802,
2021.01.16 15:46:10,17.0,24.0,23.22,-0.71999997,-33.42,-0.20350714,0.9624691,9.600749,-0.0036651916,-0.0036651916,-6.1086525E-4,-0.09989326447248459,0.02119383215904236,-1.4529439210891724,1015.802,
2021.01.16 15:46:10,17.0,24.0,23.64,-0.35999998,-33.12,-0.32561144,1.0175357,9.653421,0.0067195175,-0.0061086523,-0.014049901,-0.10495969653129578,0.03371737524867058,-1.4298717975616455,1015.802,
2021.01.16 15:46:10,17.0,24.0,23.4,0.0,-33.239998,-0.34715924,0.9504981,9.662998,0.005497787,-0.0030543262,-0.022602014,-0.09798648953437805,0.03591121360659599,-1.4217638969421387,1015.8059,
2021.01.16 15:46:10,17.0,24.0,22.859999,-0.06,-32.64,-0.23223756,0.94570965,9.552865,0.004886922,0.0012217305,-0.0030543262,-0.09864700585603714,0.02430598996579647,-1.4263567924499512,1015.8059,
2021.01.16 15:46:10,17.0,24.0,23.34,0.06,-32.7,-0.20111294,0.89303726,9.588778,0.014660766,-0.026267206,0.0030543262,-0.09284541010856628,0.02097070962190628,-1.433205485343933,1015.8059,
2021.01.16 15:46:10,17.0,24.0,22.74,0.06,-33.0,-0.29209262,1.0247183,9.631873,0.0030543262,0.002443461,-6.1086525E-4,-0.10594125092029572,0.030316337943077087,-1.4056955575942993,1015.8059,
2021.01.16 15:46:10,17.0,24.0,22.5,-0.29999998,-32.94,-0.24181437,0.9768343,9.653421,0.004886922,-0.013439035,-0.009162978,-0.1008157879114151,0.025044366717338562,-1.4299396276474,1015.80615,
2021.01.16 15:46:10,17.0,24.0,22.859999,-0.17999999,-33.48,-0.19871874,0.9648633,9.624691,0.01160644,-0.018325957,0.0012217305,-0.09989378601312637,0.02064383216202259,-1.427138090133667,1015.80615,
2021.01.16 15:46:10,17.0,24.0,22.439999,0.0,-33.0,-0.32561144,0.9816227,9.557653,0.019547688,-0.0061086523,-0.007941248,-0.10228762030601501,0.034054964780807495,-1.4104422330856323,1015.80615,
2021.01.16 15:46:11,17.0,24.0,22.38,-0.17999999,-32.64,-0.17956513,0.9840169,9.588778,0.015882496,-0.02565634,0.0036651916,-0.10224592685699463,0.01872440241277218,-1.4250587224960327,1015.80615,
2021.01.16 15:46:11,17.0,24.0,22.8,-0.06,-32.52,-0.050278235,0.90979666,9.313444,0.032986723,-0.02076942,0.015271631,-0.0973760113120079,0.005398405250161886,-1.4340206384658813,1015.80444,
2021.01.16 15:46:11,17.0,24.0,22.5,-0.12,-32.579998,-0.6607997,0.82360536,9.902418,0.054367006,-0.030543262,-0.013439035,-0.08279785513877869,0.06663235276937485,-1.43879234790802,1015.80444,
2021.01.16 15:46:11,17.0,24.0,22.74,-0.35999998,-33.0,-0.22026655,0.92655605,10.275913,-0.11362094,0.1301143,-0.04642576,-0.08990404009819031,0.021431945264339447,-1.4511858224868774,1015.80444,
2021.01.16 15:46:11,17.0,24.0,22.98,-0.48,-33.36,0.038307227,1.091756,9.742006,-0.009162978,-0.12217305,0.015882496,-0.1116003468632698,-0.0039321500808000565,-1.4320136308670044,1015.80444,
