Time,X-cord,Y-cord,Mag_x,Mag_y,Mag_z,Acc_x,Acc_y,Acc_z,Gyro_x,Gyro_y,Gyro_z,Orn_x,Orn_y,Orn_z,Pressure,
2021.01.16 15:52:30,39.0,24.0,14.5199995,-6.8999996,-27.72,-0.50757074,0.89782566,8.798691,0.122783914,-0.16920967,0.06658431,-0.10152123123407364,0.05762321129441261,-1.8697189092636108,1015.5796,
2021.01.16 15:52:30,39.0,24.0,14.099999,-7.14,-27.359999,-0.34237084,0.6751649,9.217676,0.11178834,0.14172074,-0.06352998,-0.07306597381830215,0.03712578862905502,-1.9418329000473022,1015.5796,
2021.01.16 15:52:30,39.0,24.0,14.58,-7.3799996,-27.359999,-0.095768064,0.6919243,9.878476,-0.0983493,0.028710667,0.06169739,-0.06992614269256592,0.009694315493106842,-1.9340170621871948,1015.5796,
2021.01.16 15:52:30,39.0,24.0,14.46,-7.3199997,-27.42,-0.050278235,0.6703765,9.904813,-0.14172074,0.021991149,0.08002335,-0.06757795810699463,0.005076098721474409,-1.9342448711395264,1015.57544,
2021.01.16 15:52:30,39.0,24.0,13.86,-7.68,-27.24,0.08379706,0.6727707,9.698911,-0.07941248,-0.07513642,0.0580322,-0.06925208866596222,-0.008639627136290073,-1.9602670669555664,1015.57544,
2021.01.16 15:52:30,39.0,24.0,14.4,-7.74,-27.06,-0.17717093,0.6991069,9.291897,-0.012217305,-0.07574729,0.009773844,-0.07508324831724167,0.01906494051218033,-1.9584559202194214,1015.57544,
2021.01.16 15:52:30,39.0,24.0,14.16,-7.9199996,-26.699999,-0.16519992,0.60812724,9.414001,-0.037873644,-0.08735373,0.004276057,-0.06449863314628601,0.01754651963710785,-1.9940545558929443,1015.57544,
2021.01.16 15:52:30,39.0,24.0,13.98,-8.34,-26.519999,0.0023942017,0.59615624,9.7563715,-0.10262536,-0.051923547,0.03176499,-0.06102841719985008,-2.453987835906446E-4,-2.0179495811462402,1015.5764,
2021.01.16 15:52:30,39.0,24.0,15.059999,-8.4,-26.64,0.045489833,0.59376204,9.794679,-0.1282817,-0.049480084,0.015882496,-0.06054612994194031,-0.004644307773560286,-1.9905948638916016,1015.5764,
2021.01.16 15:52:30,39.0,24.0,14.5199995,-7.8599997,-27.24,0.090979666,0.49320555,9.885659,-0.100792766,-0.03970624,0.01160644,-0.049847573041915894,-0.009202936664223671,-1.9853506088256836,1015.5764,
2021.01.16 15:52:31,39.0,24.0,14.219999,-7.8599997,-27.42,-0.30406362,0.51954174,9.701305,-0.06291912,-0.044593163,-0.03848451,-0.0534764789044857,0.031332287937402725,-2.015275716781616,1015.5764,
2021.01.16 15:52:31,39.0,24.0,14.04,-7.5,-27.48,-0.23463176,0.48602295,9.80665,-0.03481932,-0.02443461,-0.029932396,-0.04950588569045067,0.023921217769384384,-1.999496579170227,1015.5818,
2021.01.16 15:52:31,39.0,24.0,13.62,-7.3199997,-27.72,-0.22266077,0.47644615,9.715671,-0.042760566,-0.052534413,0.040317107,-0.04898684099316597,0.022913681343197823,-1.9998679161071777,1015.5818,
2021.01.16 15:52:31,39.0,24.0,14.04,-7.3799996,-27.359999,-0.16759412,0.5410896,9.720459,-0.02687807,-0.03726278,0.055588737,-0.0555993877351284,0.01723967120051384,-1.9769854545593262,1015.5818,
2021.01.16 15:52:31,39.0,24.0,14.219999,-7.2,-27.3,-0.110133275,0.46686932,9.928755,-0.029932396,-0.007941248,0.077579886,-0.04698444530367851,0.011091900058090687,-1.971941590309143,1015.5818,
2021.01.16 15:52:31,39.0,24.0,15.0,-7.5,-27.539999,-0.10295067,0.35434186,9.437943,-0.01282817,0.0067195175,0.08735373,-0.03752453625202179,0.010907734744250774,-1.984620451927185,1015.5525,
2021.01.16 15:52:31,39.0,24.0,14.82,-7.7999997,-27.66,0.1436521,0.2753332,9.727641,6.1086525E-4,-0.031154128,0.10873401,-0.02829357050359249,-0.014766340143978596,-2.002819776535034,1015.5525,
2021.01.16 15:52:31,39.0,24.0,14.82,-7.7999997,-27.48,-0.090979666,0.557849,9.969456,-0.061086524,-0.018325957,0.1301143,-0.05589520186185837,0.009125587530434132,-1.9757713079452515,1015.5525,
2021.01.16 15:52:31,39.0,24.0,14.82,-7.9199996,-27.96,-0.24181437,0.6991069,9.866506,-0.05375614,-0.044593163,0.09162979,-0.07071719318628311,0.024503707885742188,-1.9663006067276,1015.5525,
2021.01.16 15:52:31,39.0,24.0,14.46,-7.68,-27.779999,0.17238252,0.32561144,9.952697,-0.030543262,-0.03726278,0.118507855,-0.0326993353664875,-0.017318451777100563,-1.9966233968734741,1015.5408,
2021.01.16 15:52:31,39.0,24.0,14.16,-7.2,-27.24,0.4405331,0.11731588,9.627085,0.004276057,-0.015882496,0.16920967,-0.012172684073448181,-0.04572786018252373,-1.990969181060791,1015.5408,
2021.01.16 15:52:31,39.0,24.0,13.92,-7.5,-27.42,0.37110126,0.15562311,9.727641,0.044593163,0.005497787,0.09407325,-0.015985039994120598,-0.038130663335323334,-2.0123796463012695,1015.5408,
2021.01.16 15:52:31,39.0,24.0,13.799999,-7.56,-27.119999,0.17238252,0.34476504,9.68694,0.019547688,0.02321288,0.028710667,-0.035570062696933746,-0.017793474718928337,-2.00370717048645,1015.5408,
2021.01.16 15:52:31,39.0,24.0,13.74,-7.74,-26.699999,-0.076614454,0.545878,9.873688,0.015882496,0.012217305,-0.020158553,-0.05522824078798294,0.007759300991892815,-2.003373622894287,1015.52344,
2021.01.16 15:52:31,39.0,24.0,13.62,-7.7999997,-26.82,-0.14604631,0.5434838,9.775525,0.010995574,-6.1086525E-4,-0.029321533,-0.055533017963171005,0.01493888534605503,-2.014846086502075,1015.52344,
2021.01.16 15:52:31,39.0,24.0,13.559999,-7.44,-26.82,0.033518825,0.40701428,9.773131,0.03970624,0.007330383,-0.021380283,-0.04162195324897766,-0.0034296780358999968,-2.004329204559326,1015.52344,
2021.01.16 15:52:31,39.0,24.0,13.62,-7.02,-27.18,0.260968,0.2681506,9.931149,0.029321533,0.007941248,0.021991149,-0.02698509581387043,-0.026271678507328033,-1.9846657514572144,1015.52344,
2021.01.16 15:52:31,39.0,24.0,13.86,-6.66,-27.119999,-0.02633622,0.35913026,9.629479,0.03176499,0.03481932,0.0067195175,-0.0372774600982666,0.002734950976446271,-1.9593385457992554,1015.5498,
2021.01.16 15:52:31,39.0,24.0,14.5199995,-6.8399997,-27.119999,0.01436521,0.5291186,9.672575,0.06658431,0.03481932,-0.05131268,-0.054648447781801224,-0.0014851473970338702,-1.9228994846343994,1015.5498,
2021.01.16 15:52:31,39.0,24.0,14.7,-7.02,-27.24,-0.12210429,0.46208093,10.208876,0.025045475,0.06169739,-0.042760566,-0.045228563249111176,0.011960030533373356,-1.9527466297149658,1015.5498,
2021.01.16 15:52:31,39.0,24.0,14.58,-6.66,-26.939999,0.023942016,0.5650316,9.68694,0.06963864,0.0720821,-0.050701816,-0.05826302245259285,-0.0024715715553611517,-1.9047799110412598,1015.5498,
2021.01.16 15:52:31,39.0,24.0,14.34,-7.02,-27.42,-0.1316811,0.557849,10.070012,0.08124508,0.014049901,-0.042760566,-0.055335767567157745,0.0130758136510849,-1.944525122642517,1015.55273,
2021.01.16 15:52:31,39.0,24.0,14.099999,-6.72,-27.18,-0.15562311,0.5315128,9.861717,0.09712757,0.06719518,-0.06169739,-0.053837791085243225,0.015779217705130577,-1.9365938901901245,1015.55273,
2021.01.16 15:52:31,39.0,24.0,14.4,-7.5,-27.119999,-0.2657564,0.5746084,9.193734,0.13194689,0.018325957,-0.059864793,-0.06239280849695206,0.0288982056081295,-1.9717183113098145,1015.55273,
2021.01.16 15:52:31,39.0,24.0,14.28,-8.099999,-27.06,-0.17956513,0.48123455,9.579201,0.11911872,0.0067195175,-0.029321533,-0.050186436623334885,0.0187431201338768,-2.024751901626587,1015.55273,
2021.01.16 15:52:32,39.0,24.0,14.46,-8.099999,-27.18,-0.1364695,0.6344634,9.651027,0.0067195175,-0.004276057,0.0,-0.06563950330018997,0.014139469712972641,-1.9908760786056519,1015.56714,
2021.01.16 15:52:32,39.0,24.0,14.58,-8.58,-27.06,-0.079008654,0.78050977,9.873688,0.025045475,0.035430185,-0.014049901,-0.07888291031122208,0.008001768961548805,-1.9906634092330933,1015.56714,
2021.01.16 15:52:32,39.0,24.0,14.219999,-8.22,-26.699999,-0.090979666,0.6943185,9.574412,0.031154128,-0.002443461,-0.0036651916,-0.07238814979791641,0.009502089582383633,-1.992051362991333,1015.56714,
2021.01.16 15:52:32,39.0,24.0,14.759999,-8.4,-26.88,-0.023942016,0.61770403,9.691729,0.045814894,0.0030543262,0.0,-0.06364889442920685,0.002470350591465831,-1.9969758987426758,1015.56714,
2021.01.16 15:52:32,39.0,24.0,14.4,-8.04,-26.279999,-0.17717093,0.770933,9.715671,0.007330383,0.02321288,-0.0061086523,-0.07917042076587677,0.018233563750982285,-1.9727052450180054,1015.57104,
2021.01.16 15:52:32,39.0,24.0,14.099999,-7.9199996,-26.22,-0.20111294,0.8882488,9.41879,0.029932396,0.055588737,-0.047036625,-0.09400665014982224,0.021349066868424416,-1.9501105546951294,1015.57104,
2021.01.16 15:52:32,39.0,24.0,14.5199995,-7.8599997,-26.46,-0.059855044,0.62967503,9.631873,-0.015271631,-0.002443461,0.0,-0.06527995318174362,0.006214188411831856,-1.9732760190963745,1015.57104,
2021.01.16 15:52:32,39.0,24.0,14.639999,-8.099999,-26.16,-0.059855044,0.61770403,9.61272,-0.027488936,0.049480084,0.0067195175,-0.06416956335306168,0.006226569879800081,-1.987048864364624,1015.57104,
2021.01.16 15:52:32,39.0,24.0,15.12,-8.5199995,-26.279999,-0.08619126,0.7134721,9.825804,-0.045814894,0.0067195175,-0.02076942,-0.07248209416866302,0.008771704509854317,-1.987204670906067,1015.56885,
2021.01.16 15:52:32,39.0,24.0,15.54,-8.5199995,-26.939999,-0.38307226,0.7541735,9.856929,-0.04642576,0.040927973,-0.052534413,-0.07630585134029388,0.03884369879961014,-1.9867454767227173,1015.56885,
2021.01.16 15:52:32,39.0,24.0,15.179999,-8.099999,-27.18,-0.33039984,0.830788,9.849746,-0.03481932,-0.0018325958,-0.050701816,-0.08409988880157471,0.03353142365813255,-1.9538792371749878,1015.56885,
2021.01.16 15:52:32,39.0,24.0,15.059999,-7.68,-27.06,-0.33279404,0.78529817,9.643845,-0.0036651916,-0.01160644,-0.02565634,-0.08120259642601013,0.034494753926992416,-1.937292456626892,1015.56885,
2021.01.16 15:52:32,39.0,24.0,15.0,-7.56,-26.939999,-0.10534488,0.60573304,9.785102,0.007330383,6.1086525E-4,-0.004886922,-0.06182113662362099,0.010765427723526955,-1.9505776166915894,1015.56665,
2021.01.16 15:52:32,39.0,24.0,14.639999,-7.7999997,-26.64,-0.04070143,0.5746084,9.919178,-0.014049901,0.027488936,0.017104227,-0.05786387249827385,0.004103283863514662,-1.976586937904358,1015.56665,
2021.01.16 15:52:32,39.0,24.0,14.639999,-8.16,-26.76,-0.35673606,0.80205756,9.560047,0.005497787,0.008552114,-0.018936822,-0.0836428627371788,0.03729799762368202,-1.9762753248214722,1015.56665,
2021.01.16 15:52:32,39.0,24.0,14.5199995,-7.9199996,-27.18,-0.33039984,0.7062895,9.830592,0.03481932,0.0036651916,-0.05497787,-0.07168250530958176,0.0335967056453228,-1.98133385181427,1015.56665,
2021.01.16 15:52:32,39.0,24.0,14.46,-7.98,-27.48,-0.272939,0.6464345,9.782708,-0.0018325958,0.0067195175,-0.004886922,-0.06595777720212936,0.027892911806702614,-1.9915813207626343,1015.56494,
2021.01.16 15:52:32,39.0,24.0,14.34,-7.74,-27.48,-0.272939,0.6751649,9.595961,0.028099801,0.0030543262,0.0018325958,-0.07021521776914597,0.028435446321964264,-1.9729913473129272,1015.56494,
2021.01.16 15:52:32,39.0,24.0,14.219999,-7.3199997,-27.359999,-0.15322891,0.641646,9.770737,0.036651913,-0.002443461,0.009162978,-0.0655679851770401,0.01568114571273327,-1.9501477479934692,1015.56494,
2021.01.16 15:52:32,39.0,24.0,14.5199995,-7.56,-27.539999,-0.08140286,0.6655881,9.751583,0.008552114,-0.004276057,0.034208454,-0.06814630329608917,0.008347461931407452,-1.9478667974472046,1015.56494,
2021.01.16 15:52:32,39.0,24.0,14.4,-7.2,-27.539999,-0.059855044,0.7038953,9.572019,0.023823744,-0.01038471,0.0036651916,-0.07340320944786072,0.006253045052289963,-1.9183685779571533,1015.5615,
2021.01.16 15:52:32,39.0,24.0,14.28,-7.44,-27.72,-0.21068975,0.6584055,9.6845455,0.028710667,0.010995574,-0.01282817,-0.06786470860242844,0.021751822903752327,-1.9546400308609009,1015.5615,
2021.01.16 15:52:32,39.0,24.0,14.4,-7.2,-27.3,-0.28491,0.7015011,9.67018,0.02321288,0.009162978,-0.021991149,-0.0723845586180687,0.029454218223690987,-1.9347691535949707,1015.5615,
2021.01.16 15:52:32,39.0,24.0,13.86,-7.2,-27.119999,-0.25378537,0.7350199,9.557653,0.02076942,-0.007941248,-0.009773844,-0.0767257958650589,0.026546867564320564,-1.9393335580825806,1015.5615,
2021.01.16 15:52:32,39.0,24.0,13.74,-7.74,-27.0,-0.107739076,0.7374141,9.497798,0.022602014,-0.018325957,0.0012217305,-0.07748012244701385,0.011343098245561123,-1.9667258262634277,1015.5591,
2021.01.16 15:52:33,39.0,24.0,13.799999,-7.02,-27.24,-0.15083471,0.7469909,9.828198,-0.0067195175,0.009773844,-0.008552114,-0.07585012167692184,0.01534593291580677,-1.9231433868408203,1015.5591,
2021.01.16 15:52:33,39.0,24.0,13.74,-7.62,-27.24,-0.21787235,0.79248077,9.80665,-0.0036651916,0.01160644,-0.025045475,-0.08061552047729492,0.02221314236521721,-1.9594817161560059,1015.5591,
2021.01.16 15:52:33,39.0,24.0,13.679999,-7.68,-26.82,-0.21308395,0.7733272,9.512163,0.002443461,-0.034208454,-0.007330383,-0.08110010623931885,0.022397462278604507,-1.9662039279937744,1015.5591,
2021.01.16 15:52:33,39.0,24.0,13.799999,-7.08,-27.119999,-0.12689269,0.79248077,9.617508,0.01160644,-0.029932396,-0.0030543262,-0.08220694214105606,0.01319316029548645,-1.914745807647705,1015.5613,
2021.01.16 15:52:33,39.0,24.0,13.799999,-7.3199997,-26.82,-0.22505496,0.81163436,9.871294,-0.028099801,0.01038471,-0.01282817,-0.08201593160629272,0.02279498428106308,-1.9380890130996704,1015.5613,
2021.01.16 15:52:33,39.0,24.0,13.799999,-7.2599998,-27.06,-0.20350714,0.78290397,9.835381,-0.009162978,0.02565634,-0.031154128,-0.07941637188196182,0.020688382908701897,-1.9364509582519531,1015.5613,
2021.01.16 15:52:33,39.0,24.0,13.679999,-7.2599998,-27.42,-0.23942018,0.7086837,9.495404,0.018936822,-0.017715093,-0.019547688,-0.07447269558906555,0.025208979845046997,-1.9500349760055542,1015.5613,
2021.01.16 15:52:33,39.0,24.0,13.62,-7.3799996,-27.359999,-0.110133275,0.7206547,9.605537,0.018325957,-6.1086525E-4,-0.015882496,-0.0748797282576561,0.011465099640190601,-1.949928879737854,1015.5637,
2021.01.16 15:52:33,39.0,24.0,14.099999,-7.5,-27.119999,-0.20590134,0.7469909,9.672575,0.0,-0.0061086523,-0.019547688,-0.07705734670162201,0.021283913403749466,-1.9487199783325195,1015.5637,
2021.01.16 15:52:33,39.0,24.0,14.16,-7.2,-26.76,-0.14604631,0.7469909,9.763555,-0.007941248,0.030543262,-0.031154128,-0.07635082304477692,0.014957197941839695,-1.9271827936172485,1015.5637,
2021.01.16 15:52:33,39.0,24.0,13.92,-6.96,-26.76,-0.23942018,0.81163436,9.639056,0.0067195175,0.0,-0.036651913,-0.08397874236106873,0.024833442643284798,-1.9091246128082275,1015.5637,
2021.01.16 15:52:33,39.0,24.0,14.099999,-6.96,-26.76,-0.320823,0.7733272,9.701305,0.023823744,0.0,-0.03726278,-0.07950223982334137,0.0330580398440361,-1.9178329706192017,1015.563,
2021.01.16 15:52:33,39.0,24.0,13.559999,-6.8399997,-27.0,-0.24899697,0.6823475,9.624691,0.01282817,0.015882496,-0.029932396,-0.07075350731611252,0.025864874944090843,-1.9342321157455444,1015.563,
2021.01.16 15:52:33,39.0,24.0,13.259999,-7.14,-27.119999,-0.2753332,0.6895301,9.531317,0.017715093,0.0,-0.01160644,-0.07218781858682632,0.028879182413220406,-1.9616295099258423,1015.563,
2021.01.16 15:52:33,39.0,24.0,13.98,-7.2599998,-27.24,-0.24181437,0.7422025,9.562442,0.017104227,0.0018325958,-0.026267206,-0.07743646949529648,0.025282541289925575,-1.9375745058059692,1015.563,
2021.01.16 15:52:33,39.0,24.0,14.16,-7.5,-27.0,-0.17477672,0.7469909,9.742006,-0.007941248,-0.0067195175,-0.01038471,-0.0765153095126152,0.017938600853085518,-1.9466103315353394,1015.5598,
2021.01.16 15:52:33,39.0,24.0,14.4,-7.56,-26.88,-0.36631286,0.78050977,9.787497,-0.0030543262,0.004886922,-0.007941248,-0.07952176034450531,0.03740915656089783,-1.9516689777374268,1015.5598,
2021.01.16 15:52:33,39.0,24.0,14.58,-7.56,-27.06,-0.33039984,0.80205756,9.603143,0.004886922,0.0061086523,-0.018936822,-0.08327788859605789,0.034391820430755615,-1.9377163648605347,1015.5598,
2021.01.16 15:52:33,39.0,24.0,14.34,-7.98,-27.0,-0.21787235,0.7182605,9.390059,0.02443461,-0.019547688,0.004276057,-0.07632245868444443,0.023198286071419716,-1.9755406379699707,1015.5598,
2021.01.16 15:52:33,39.0,24.0,14.219999,-7.8599997,-27.119999,-0.16998832,0.7015011,9.622296,0.015882496,-0.0012217305,0.019547688,-0.07276365160942078,0.01766424998641014,-1.9733246564865112,1015.56396,
2021.01.16 15:52:33,39.0,24.0,14.219999,-7.7999997,-27.119999,-0.21308395,0.79008657,9.624691,-0.01160644,0.021380283,0.01038471,-0.0818859189748764,0.022135687991976738,-1.9566031694412231,1015.56396,
2021.01.16 15:52:33,39.0,24.0,14.04,-7.5,-27.48,-0.24420857,0.7493851,9.631873,0.004276057,-0.002443461,-0.0018325958,-0.07762137800455093,0.025348784402012825,-1.9502696990966797,1015.56396,
2021.01.16 15:52:33,39.0,24.0,14.219999,-7.3799996,-27.06,-0.29448682,0.7541735,9.648633,0.004886922,-0.013439035,0.007941248,-0.0779690146446228,0.03051162138581276,-1.9423800706863403,1015.56396,
2021.01.16 15:52:33,39.0,24.0,14.34,-7.3799996,-27.42,-0.4405331,0.8571242,9.564836,0.010995574,-0.009773844,0.0067195175,-0.08927915245294571,0.04602504521608353,-1.9262654781341553,1015.5713,
2021.01.16 15:52:33,39.0,24.0,14.34,-7.9199996,-27.42,-0.18914193,0.7565677,9.605537,0.007330383,-0.008552114,0.023823744,-0.07858625054359436,0.019688380882143974,-1.963874101638794,1015.5713,
2021.01.16 15:52:34,39.0,24.0,14.5199995,-8.16,-27.24,-0.07182605,0.6991069,9.720459,-0.013439035,-0.01282817,0.051923547,-0.07179559767246246,0.007389027625322342,-1.9780975580215454,1015.5713,
2021.01.16 15:52:34,39.0,24.0,14.16,-7.74,-27.42,-0.19153613,0.7661445,9.56723,0.004276057,-0.007330383,0.020158553,-0.07989361137151718,0.020017346367239952,-1.9551891088485718,1015.5713,
2021.01.16 15:52:34,39.0,24.0,14.16,-8.22,-27.24,-0.23702596,0.78769237,9.572019,0.0,-0.0030543262,-0.004276057,-0.08208108693361282,0.024757320061326027,-1.9852473735809326,1015.56323,
2021.01.16 15:52:34,39.0,24.0,14.099999,-7.7999997,-27.06,-0.3184288,0.8331822,9.737218,-0.012217305,-0.005497787,0.0036651916,-0.08531345427036285,0.032690588384866714,-1.960705041885376,1015.56323,
2021.01.16 15:52:34,39.0,24.0,14.4,-7.8599997,-27.0,-0.28491,0.8355764,9.710882,-0.008552114,-0.004886922,0.017104227,-0.08579721301794052,0.029330836609005928,-1.9539248943328857,1015.56323,
2021.01.16 15:52:34,39.0,24.0,14.46,-8.099999,-27.539999,-0.15562311,0.7613561,9.65821,0.0061086523,-0.01160644,0.028710667,-0.07865709066390991,0.016111643984913826,-1.9688420295715332,1015.56323,
2021.01.16 15:52:34,39.0,24.0,14.16,-8.04,-27.119999,-0.033518825,0.7326257,9.694122,-6.1086525E-4,-0.004276057,0.034208454,-0.07543038576841354,0.0034576302859932184,-1.9721620082855225,1015.56274,
2021.01.16 15:52:34,39.0,24.0,14.16,-8.4,-27.48,-0.19153613,0.7637503,9.5385,0.010995574,-0.0018325958,0.004276057,-0.07988378405570984,0.020077621564269066,-1.9958268404006958,1015.56274,
2021.01.16 15:52:34,39.0,24.0,14.099999,-8.34,-27.119999,-0.17717093,0.80445176,9.715671,0.01160644,0.01282817,-0.014660766,-0.0825972929596901,0.018233563750982285,-1.9894733428955078,1015.56274,
2021.01.16 15:52:34,39.0,24.0,13.98,-8.4,-26.519999,-0.25617957,0.8403648,9.624691,-0.009162978,0.0061086523,-0.004886922,-0.08706188201904297,0.026610631495714188,-1.9973700046539307,1015.56274,
2021.01.16 15:52:34,39.0,24.0,14.34,-8.28,-26.46,-0.1316811,0.80445176,9.639056,0.004886922,-0.009162978,-0.0030543262,-0.08325683325529099,0.013660352677106857,-1.9783787727355957,1015.5659,
2021.01.16 15:52:34,39.0,24.0,14.219999,-7.98,-26.22,-0.076614454,0.7445967,9.581595,-0.0030543262,0.0061086523,0.01038471,-0.07755280286073685,0.007995831780135632,-1.9703471660614014,1015.5659,
2021.01.16 15:52:34,39.0,24.0,14.219999,-8.22,-26.519999,-0.076614454,0.79966336,9.677363,-0.0018325958,0.0,0.002443461,-0.08244247734546661,0.007916707545518875,-1.975378394126892,1015.5659,
2021.01.16 15:52:34,39.0,24.0,14.34,-8.4,-27.0,-0.09816227,0.7422025,9.653421,-0.007941248,-0.007941248,-0.01038471,-0.07673000544309616,0.01016830001026392,-1.9916033744812012,1015.5659,
2021.01.16 15:52:34,39.0,24.0,14.219999,-8.5199995,-26.88,-0.12210429,0.7589619,9.598354,-6.1086525E-4,0.004886922,-0.02321288,-0.07890154421329498,0.012720691040158272,-2.000586986541748,1015.5686,
2021.01.16 15:52:34,39.0,24.0,14.4,-8.94,-26.88,-0.21547815,0.8355764,9.730036,-0.007941248,-0.004886922,-0.03176499,-0.0856449231505394,0.02214204892516136,-2.0157549381256104,1015.5686,
2021.01.16 15:52:34,39.0,24.0,14.219999,-8.5199995,-27.119999,-0.20829555,0.81163436,9.679757,-0.019547688,0.0012217305,-0.032375857,-0.0836336761713028,0.02151535637676716,-1.9975911378860474,1015.5686,
2021.01.16 15:52:34,39.0,24.0,14.5199995,-8.46,-26.699999,-0.17477672,0.7278373,9.718064,-0.002443461,0.005497787,-0.019547688,-0.07474368810653687,0.017982786521315575,-1.9999423027038574,1015.5686,
2021.01.16 15:52:34,39.0,24.0,14.4,-8.28,-27.359999,-0.2873042,0.6967127,9.631873,0.002443461,-0.008552114,-0.01038471,-0.07217632979154587,0.02981964498758316,-2.0025134086608887,1015.5781,
2021.01.16 15:52:34,39.0,24.0,14.94,-7.74,-27.359999,-0.10295067,0.6895301,9.344569,-0.0018325958,-0.013439035,-0.01038471,-0.07365144789218903,0.011016720905900002,-1.941765546798706,1015.5781,
2021.01.16 15:52:34,39.0,24.0,15.24,-8.22,-27.0,-0.095768064,0.7350199,9.672575,-0.012217305,-0.03176499,0.0067195175,-0.07584062963724136,0.00990066584199667,-1.959939956665039,1015.5781,
2021.01.16 15:52:34,39.0,24.0,14.5199995,-7.7999997,-27.18,-0.047884032,0.7278373,9.940725,-0.05009095,0.02565634,-0.015271631,-0.0730864629149437,0.004816918168216944,-1.9533264636993408,1015.5781,
2021.01.16 15:52:34,39.0,24.0,14.58,-7.74,-27.0,-0.21787235,0.7685388,9.782708,-0.04337143,0.017104227,-0.047036625,-0.07838056236505508,0.02226748876273632,-1.9505096673965454,1015.5403,
2021.01.16 15:52:34,39.0,24.0,14.219999,-7.74,-27.359999,-0.33997664,0.6584055,9.449914,-0.004276057,0.01160644,-0.058643065,-0.06951592862606049,0.03596118092536926,-1.9831898212432861,1015.5403,
2021.01.16 15:52:34,39.0,24.0,13.799999,-7.2,-27.72,-0.2801216,0.6607997,9.44752,-0.01160644,-0.008552114,-0.02687807,-0.06979994475841522,0.029641592875123024,-1.9534640312194824,1015.5403,
2021.01.16 15:52:35,39.0,24.0,14.219999,-7.2,-27.42,-0.011971008,0.6464345,10.079589,-0.07269296,0.018325957,-0.009773844,-0.0640452578663826,0.0011876478092744946,-1.936282753944397,1015.5403,
2021.01.16 15:52:35,39.0,24.0,13.98,-6.7799997,-27.359999,-0.21787235,0.6799533,9.78989,-0.048258353,0.04337143,-0.025045475,-0.06932616978883743,0.022251157090067863,-1.9186667203903198,1015.55444,
2021.01.16 15:52:35,39.0,24.0,13.799999,-6.7799997,-27.3,-0.30406362,0.62488663,9.701305,0.015882496,-0.019547688,-0.04153884,-0.0642922893166542,0.031332287937402725,-1.9385730028152466,1015.55444,
2021.01.16 15:52:35,39.0,24.0,13.799999,-6.7799997,-26.88,-0.5722142,0.7278373,9.437943,0.019547688,-0.021991149,-0.02076942,-0.07682535797357559,0.06055499240756035,-1.9354112148284912,1015.55444,
2021.01.16 15:52:35,39.0,24.0,13.62,-6.42,-27.18,-0.34476504,0.7302315,9.698911,-0.0067195175,-0.03604105,0.012217305,-0.07510102540254593,0.035531818866729736,-1.900516152381897,1015.55444,
2021.01.16 15:52:35,39.0,24.0,14.16,-6.96,-26.82,0.08140286,0.521936,9.737218,-0.010995574,-0.009773844,0.06658431,-0.05354905128479004,-0.008359775878489017,-1.937286376953125,1015.5613,
2021.01.16 15:52:35,39.0,24.0,14.099999,-7.2,-26.82,0.11971009,0.4405331,9.607931,-0.015882496,-0.015882496,0.065973446,-0.04581534489989281,-0.012458862736821175,-1.963133692741394,1015.5613,
2021.01.16 15:52:35,39.0,24.0,14.34,-7.14,-27.06,-0.110133275,0.59855044,9.574412,0.01282817,-0.0067195175,0.004886922,-0.062430258840322495,0.011502367444336414,-1.939976692199707,1015.5613,
2021.01.16 15:52:35,39.0,24.0,14.82,-7.68,-26.82,-0.29209262,0.6703765,9.768343,-0.023823744,-0.016493361,-0.026267206,-0.06848949939012527,0.02989305555820465,-1.9630800485610962,1015.5613,
2021.01.16 15:52:35,39.0,24.0,14.82,-7.3199997,-27.119999,-0.20350714,0.6631939,9.665392,-0.020158553,0.010995574,-0.018325957,-0.06849279999732971,0.021052129566669464,-1.9347044229507446,1015.5564,
2021.01.16 15:52:35,39.0,24.0,15.059999,-7.2599998,-26.58,-0.05746084,0.59615624,9.720459,-0.0036651916,-0.01038471,0.0012217305,-0.06125226244330406,0.0059112608432769775,-1.9310612678527832,1015.5564,
2021.01.16 15:52:35,39.0,24.0,14.7,-7.2599998,-26.58,-0.07182605,0.6464345,9.821015,-0.018936822,0.008552114,0.0030543262,-0.06572499126195908,0.007313375361263752,-1.9327147006988525,1015.5564,
2021.01.16 15:52:35,39.0,24.0,14.219999,-7.02,-27.06,-0.15562311,0.6464345,9.64145,-0.005497787,-0.009162978,-0.019547688,-0.06693854928016663,0.016139646992087364,-1.930274486541748,1015.5564,
2021.01.16 15:52:35,39.0,24.0,14.219999,-7.2,-27.06,-0.1412579,0.545878,9.746795,0.005497787,-0.009162978,-0.02076942,-0.05594158545136452,0.014491739682853222,-1.9596192836761475,1015.54785,
2021.01.16 15:52:35,39.0,24.0,13.559999,-7.14,-27.779999,-0.20590134,0.6440403,9.600749,0.0,-0.009773844,-0.021991149,-0.06696658581495285,0.021443095058202744,-1.9553884267807007,1015.54785,
2021.01.16 15:52:35,39.0,24.0,13.98,-7.2,-27.96,-0.1604115,0.62009823,9.715671,0.018325957,-0.005497787,-0.03176499,-0.063729427754879,0.016509095206856728,-1.9502595663070679,1015.54785,
2021.01.16 15:52:35,39.0,24.0,13.98,-7.3799996,-27.72,-0.20111294,0.60094464,9.655815,0.0067195175,-0.014049901,-0.01038471,-0.06214294210076332,0.020825156942009926,-1.9683396816253662,1015.54785,
2021.01.16 15:52:35,39.0,24.0,13.679999,-7.3799996,-27.84,-0.11731588,0.5626374,9.694122,0.0067195175,-0.02687807,6.1086525E-4,-0.057969752699136734,0.012101163156330585,-1.9774034023284912,1015.5596,
2021.01.16 15:52:35,39.0,24.0,13.98,-7.3799996,-27.42,-0.095768064,0.51954174,9.610326,0.007330383,-0.01282817,0.004276057,-0.05400553345680237,0.009964791126549244,-1.9761595726013184,1015.5596,
2021.01.16 15:52:35,39.0,24.0,13.799999,-7.56,-27.359999,-0.08140286,0.557849,9.7084875,0.014049901,-0.004886922,-0.0036651916,-0.05739479884505272,0.008384514600038528,-1.9853438138961792,1015.5596,
2021.01.16 15:52:35,39.0,24.0,14.28,-7.3799996,-27.66,-0.33279404,0.60812724,9.610326,0.01160644,0.004276057,-0.01160644,-0.06315651535987854,0.03461496904492378,-1.9682605266571045,1015.5596,
2021.01.16 15:52:35,39.0,24.0,14.099999,-7.3799996,-27.18,-0.19632454,0.6536171,9.722853,0.021991149,0.019547688,-0.018325957,-0.06711019575595856,0.020189328119158745,-1.9578149318695068,1015.5664,
2021.01.16 15:52:35,39.0,24.0,14.46,-7.2599998,-27.599998,-0.107739076,0.62728083,9.794679,0.012217305,-0.012217305,0.017715093,-0.06395182013511658,0.010999311693012714,-1.9396178722381592,1015.5664,
2021.01.16 15:52:35,39.0,24.0,14.46,-7.2,-27.48,-0.12689269,0.6464345,9.674969,0.026267206,0.017104227,0.01282817,-0.06671027094125748,0.013114813715219498,-1.932844638824463,1015.5664,
2021.01.16 15:52:35,39.0,24.0,14.5199995,-7.68,-27.119999,-0.16759412,0.6799533,9.651027,0.026267206,-0.039095376,0.0061086523,-0.07032719254493713,0.017363673076033592,-1.958591341972351,1015.5664,
2021.01.16 15:52:36,39.0,24.0,14.7,-7.44,-27.42,-0.1436521,0.63206923,9.560047,0.029932396,6.1086525E-4,0.02076942,-0.0660121887922287,0.015025164932012558,-1.944413661956787,1015.5664,
2021.01.16 15:52:36,39.0,24.0,14.5199995,-7.3799996,-27.0,0.007182605,0.6679823,9.785102,0.012217305,-0.016493361,0.02076942,-0.06815946847200394,-7.340346346609294E-4,-1.9339179992675781,1015.5664,
2021.01.16 15:52:36,39.0,24.0,14.639999,-7.3799996,-27.0,-0.14844051,0.7541735,9.555259,0.021380283,-0.043982297,-0.007330383,-0.07875483483076096,0.015533705241978168,-1.9223484992980957,1015.5664,
2021.01.16 15:52:36,39.0,24.0,14.82,-7.02,-26.939999,-0.045489833,0.7062895,9.634268,0.031154128,0.004276057,0.0030543262,-0.07317841798067093,0.004721634555608034,-1.9004220962524414,1015.5664,
2021.01.16 15:52:36,39.0,24.0,14.88,-7.08,-26.939999,-0.11252748,0.7206547,9.694122,0.013439035,-0.004276057,0.009773844,-0.07419788092374802,0.011607283726334572,-1.9045684337615967,1015.572,
2021.01.16 15:52:36,39.0,24.0,14.82,-7.14,-26.76,-0.11252748,0.7613561,9.76116,0.0036651916,0.025045475,6.1086525E-4,-0.07783577591180801,0.011527575552463531,-1.904137372970581,1015.572,
2021.01.16 15:52:36,39.0,24.0,14.94,-7.56,-26.699999,-0.19393034,0.770933,9.646238,0.01038471,0.015882496,-0.0067195175,-0.07973502576351166,0.02010153792798519,-1.9286965131759644,1015.572,
2021.01.16 15:52:36,39.0,24.0,14.7,-8.099999,-26.82,-0.107739076,0.7062895,9.667787,0.018325957,0.0,-0.0012217305,-0.07292190194129944,0.011143668554723263,-1.972227692604065,1015.572,
2021.01.16 15:52:36,39.0,24.0,15.0,-8.28,-26.58,-0.05746084,0.7038953,9.615114,0.009162978,0.004276057,0.008552114,-0.07307551056146622,0.005976024549454451,-1.9728606939315796,1015.5842,
2021.01.16 15:52:36,39.0,24.0,14.5199995,-8.099999,-26.88,-0.095768064,0.78769237,9.629479,0.017715093,-0.0030543262,-0.01038471,-0.08161436021327972,0.009944972582161427,-1.9614969491958618,1015.5842,
2021.01.16 15:52:36,39.0,24.0,14.5199995,-7.7999997,-26.699999,-0.1412579,0.80445176,9.797073,-0.0036651916,0.005497787,-0.0067195175,-0.08191915601491928,0.014417378231883049,-1.9463353157043457,1015.5842,
2021.01.16 15:52:36,39.0,24.0,14.219999,-7.3199997,-26.64,-0.11492168,0.82121116,9.667787,0.007330383,-0.010995574,-0.013439035,-0.08473366498947144,0.011886512860655785,-1.9176338911056519,1015.5842,
2021.01.16 15:52:36,39.0,24.0,13.62,-7.2,-27.06,-0.12689269,0.7589619,9.603143,0.019547688,-0.01282817,-0.005497787,-0.07886186987161636,0.013212893158197403,-1.9334526062011719,1015.5796,
2021.01.16 15:52:36,39.0,24.0,14.099999,-6.96,-26.939999,-0.08379706,0.7493851,9.674969,0.01160644,-0.015271631,-0.004886922,-0.0772988498210907,0.008661005645990372,-1.9072370529174805,1015.5796,
2021.01.16 15:52:36,39.0,24.0,13.74,-6.72,-27.06,-0.110133275,0.7613561,9.667787,0.0036651916,0.01038471,-0.002443461,-0.07858458906412125,0.011391283944249153,-1.898288369178772,1015.5796,
2021.01.16 15:52:36,39.0,24.0,13.92,-6.54,-27.359999,-0.23463176,0.78290397,9.636662,0.0067195175,-0.005497787,-0.010995574,-0.08104029297828674,0.024343015626072884,-1.883027195930481,1015.5796,
2021.01.16 15:52:36,39.0,24.0,14.16,-6.3599997,-27.06,-0.12449849,0.7422025,9.655815,0.005497787,0.010995574,-0.004276057,-0.07670865207910538,0.012892913073301315,-1.86959707736969,1015.58154,
2021.01.16 15:52:36,39.0,24.0,13.92,-6.8999996,-27.3,-0.10295067,0.7565677,9.660604,0.0012217305,-0.0018325958,0.015882496,-0.07815080881118774,0.010656350292265415,-1.9052618741989136,1015.58154,
2021.01.16 15:52:36,39.0,24.0,14.099999,-7.5,-27.84,-0.08379706,0.7781156,9.682152,-0.0012217305,0.0067195175,0.01282817,-0.08019063621759415,0.008654581382870674,-1.9320409297943115,1015.58154,
2021.01.16 15:52:36,39.0,24.0,14.04,-8.04,-27.18,-0.05267244,0.7230489,9.651027,-0.0012217305,0.0012217305,0.014660766,-0.07477856427431107,0.005457649007439613,-1.9773757457733154,1015.58154,
2021.01.16 15:52:36,39.0,24.0,14.219999,-8.28,-27.42,-0.20829555,0.7637503,9.703699,0.0,0.0018325958,0.009162978,-0.07852719724178314,0.02146228775382042,-1.9904307126998901,1015.5752,
2021.01.16 15:52:36,39.0,24.0,14.82,-8.7,-27.359999,-0.1436521,0.81642276,9.727641,0.0018325958,0.017104227,-0.004886922,-0.08372281491756439,0.014766339212656021,-1.9865326881408691,1015.5752,
2021.01.16 15:52:36,39.0,24.0,14.639999,-7.7999997,-27.359999,-0.1388637,0.7374141,9.631873,0.0012217305,-0.0018325958,0.009162978,-0.07640282064676285,0.0144161032512784,-1.9498116970062256,1015.5752,
2021.01.16 15:52:36,39.0,24.0,14.639999,-7.2599998,-27.48,-0.093373865,0.7374141,9.631873,0.008552114,0.0,0.016493361,-0.07640714943408966,0.009693955071270466,-1.9136518239974976,1015.5752,
2021.01.16 15:52:36,39.0,24.0,14.5199995,-7.62,-27.06,-0.08619126,0.7493851,9.751583,-0.009162978,0.007941248,0.0061086523,-0.07669380307197571,0.008838463574647903,-1.9393199682235718,1015.5823,
2021.01.16 15:52:36,39.0,24.0,14.58,-7.44,-26.519999,-0.093373865,0.7517793,9.753978,-0.0036651916,-0.0036651916,-0.002443461,-0.07691853493452072,0.009572608396410942,-1.9294109344482422,1015.5823,
2021.01.16 15:52:37,39.0,24.0,14.639999,-7.62,-26.039999,-0.19871874,0.7685388,9.5385,0.008552114,-0.004276057,-0.008552114,-0.08038124442100525,0.020830318331718445,-1.941645622253418,1015.5823,
2021.01.16 15:52:37,39.0,24.0,14.46,-8.16,-26.34,-0.17717093,0.7493851,9.653421,0.01160644,-0.004886922,-0.0061086523,-0.07746060192584991,0.0183511134237051,-1.9810031652450562,1015.5823,
2021.01.16 15:52:37,39.0,24.0,14.4,-7.62,-26.88,-0.10534488,0.7278373,9.718064,-0.015271631,-0.004886922,0.017104227,-0.0747513547539711,0.01083968486636877,-1.9474238157272339,1015.5879,
2021.01.16 15:52:37,39.0,24.0,14.28,-7.44,-27.42,-0.11731588,0.770933,9.703699,0.0018325958,0.004276057,6.1086525E-4,-0.07927504181861877,0.012089221738278866,-1.929653286933899,1015.5879,
2021.01.16 15:52:37,39.0,24.0,14.46,-7.62,-27.3,-0.10295067,0.7757214,9.67018,0.0,-0.015882496,0.0018325958,-0.08004195988178253,0.010645797476172447,-1.9349639415740967,1015.5879,
2021.01.16 15:52:37,39.0,24.0,14.099999,-7.2599998,-27.0,-0.09816227,0.7350199,9.65821,0.009773844,-0.010995574,-6.1086525E-4,-0.07595280557870865,0.0101632596924901,-1.929263949394226,1015.5879,
2021.01.16 15:52:37,39.0,24.0,13.799999,-7.5,-26.699999,-0.16519992,0.7182605,9.753978,0.01160644,-0.014049901,-0.0018325958,-0.07349453121423721,0.01693505235016346,-1.9618501663208008,1015.58716,
2021.01.16 15:52:37,39.0,24.0,13.38,-7.2599998,-26.76,-0.021547815,0.7326257,9.727641,0.009162978,-0.015882496,-0.0036651916,-0.07517171651124954,0.0022151083685457706,-1.9447687864303589,1015.58716,
2021.01.16 15:52:37,39.0,24.0,13.259999,-7.7999997,-26.58,-0.22505496,0.7086837,9.392453,0.07269296,-0.037873644,0.007330383,-0.07528823614120483,0.023956671357154846,-1.998682975769043,1015.58716,
2021.01.16 15:52:37,39.0,24.0,13.5,-7.98,-26.82,-0.14604631,0.6967127,10.251971,-0.07696902,0.15088372,-0.048258353,-0.06784770637750626,0.014244717545807362,-2.0080134868621826,1015.58716,
2021.01.16 15:52:37,39.0,24.0,13.559999,-7.7999997,-27.0,-0.11971009,0.90979666,10.132261,-0.028099801,-0.08735373,0.021380283,-0.08954568207263947,0.011814195662736893,-1.9541679620742798,1015.5923,
