Time,X-cord,Y-cord,Mag_x,Mag_y,Mag_z,Acc_x,Acc_y,Acc_z,Gyro_x,Gyro_y,Gyro_z,Orn_x,Orn_y,Orn_z,Pressure,
2021.01.16 15:43:02,6.0,24.0,26.46,-9.96,-28.32,-0.45729253,1.0007763,9.478644,0.118507855,-0.051923547,0.04520403,-0.10507118701934814,0.048207130283117294,-1.8358917236328125,1015.9031,
2021.01.16 15:43:02,6.0,24.0,26.16,-9.96,-28.38,0.0023942017,0.94570965,9.394848,-0.048258353,0.048258353,0.032986723,-0.10032463073730469,-2.5484198704361916E-4,-1.834614872932434,1015.9031,
2021.01.16 15:43:02,6.0,24.0,26.46,-10.98,-28.439999,-0.045489833,1.0031705,9.868899,-0.081855945,0.004886922,0.08124508,-0.10130065679550171,0.004609380383044481,-1.8670114278793335,1015.9031,
2021.01.16 15:43:02,6.0,24.0,26.58,-10.98,-28.68,0.05267244,0.8882488,9.583989,-0.036651913,-0.007330383,0.03604105,-0.09241509437561035,-0.005495822988450527,-1.8717920780181885,1015.9031,
2021.01.16 15:43:02,6.0,24.0,26.46,-11.099999,-29.099998,-0.06943185,1.0103531,9.665392,-0.005497787,-0.018936822,0.018936822,-0.1041521355509758,0.007183428853750229,-1.8664324283599854,1015.9109,
2021.01.16 15:43:02,6.0,24.0,26.46,-11.099999,-29.099998,-0.16280572,1.0247183,9.67018,-0.0036651916,-0.018936822,-0.002443461,-0.10555799305438995,0.016834260895848274,-1.8670430183410645,1015.9109,
2021.01.16 15:43:02,6.0,24.0,26.4,-10.86,-29.16,-0.19871874,1.0271125,9.622296,0.015271631,-0.037873644,6.1086525E-4,-0.10631780326366425,0.02064896933734417,-1.8590279817581177,1015.9109,
2021.01.16 15:43:02,6.0,24.0,26.039999,-11.04,-28.74,-0.095768064,0.9888053,9.586384,0.012217305,0.0036651916,0.005497787,-0.10277827084064484,0.009989676997065544,-1.8722362518310547,1015.9109,
2021.01.16 15:43:02,6.0,24.0,25.92,-10.98,-28.68,0.050278235,0.9768343,9.548077,0.005497787,0.004886922,0.010995574,-0.10195080190896988,-0.005265748593956232,-1.8691651821136475,1015.9099,
2021.01.16 15:43:02,6.0,24.0,26.22,-11.4,-28.68,-0.16759412,1.0199299,9.6845455,0.015882496,0.028099801,-0.005497787,-0.10491281747817993,0.01730358973145485,-1.8824917078018188,1015.9099,
2021.01.16 15:43:03,6.0,24.0,26.22,-11.58,-28.68,-0.021547815,0.9672575,9.768343,-0.0018325958,-0.009773844,-0.0012217305,-0.09869763255119324,0.0022058787290006876,-1.891617774963379,1015.9099,
2021.01.16 15:43:03,6.0,24.0,25.92,-11.099999,-28.98,-0.22026655,0.9935937,9.507375,0.030543262,0.0018325958,-0.0030543262,-0.10410194098949432,0.023163823410868645,-1.8765238523483276,1015.9099,
2021.01.16 15:43:03,6.0,24.0,26.16,-11.34,-28.859999,-0.12689269,0.9648633,9.452309,0.04337143,-0.014049901,-0.017104227,-0.1017155647277832,0.013423711992800236,-1.882928490638733,1015.9077,
2021.01.16 15:43:03,6.0,24.0,26.16,-11.219999,-28.5,-0.090979666,0.91219085,9.639056,0.026267206,-0.028099801,0.014660766,-0.0943496972322464,0.009438368491828442,-1.886696457862854,1015.9077,
2021.01.16 15:43:03,6.0,24.0,26.519999,-11.28,-28.439999,0.17238252,0.92176765,9.636662,0.009773844,-0.017715093,0.015882496,-0.09534688293933868,-0.017886292189359665,-1.8777774572372437,1015.9077,
2021.01.16 15:43:03,6.0,24.0,26.699999,-11.46,-28.199999,0.050278235,0.9768343,9.519346,0.0067195175,-0.06169739,0.017104227,-0.10225635766983032,-0.005281640682369471,-1.8786205053329468,1015.9077,
2021.01.16 15:43:03,6.0,24.0,26.939999,-11.34,-28.08,-0.090979666,1.0055647,9.667787,0.02076942,-0.019547688,-0.03970624,-0.10363465547561646,0.009410321712493896,-1.8741047382354736,1015.90845,
2021.01.16 15:43:03,6.0,24.0,26.88,-11.099999,-28.439999,-0.15801731,0.9792285,9.677363,0.0061086523,-0.03359759,-0.045814894,-0.10083092749118805,0.01632709801197052,-1.869649887084961,1015.90845,
2021.01.16 15:43:03,6.0,24.0,26.34,-11.04,-28.14,-0.19393034,0.9935937,9.540894,0.019547688,-0.018325957,-0.03848451,-0.10374520719051361,0.02032342553138733,-1.8722947835922241,1015.90845,
2021.01.16 15:43:03,6.0,24.0,26.34,-11.58,-28.199999,-0.20350714,0.9792285,9.770737,0.013439035,-0.039095376,-0.028099801,-0.09986548870801926,0.0208252165466547,-1.8951435089111328,1015.90845,
2021.01.16 15:43:03,6.0,24.0,26.16,-11.5199995,-28.5,-0.059855044,1.0055647,9.598354,0.007941248,0.004276057,-0.017715093,-0.1043814867734909,0.006235888693481684,-1.8859612941741943,1015.90576,
2021.01.16 15:43:03,6.0,24.0,25.98,-11.58,-28.5,-0.04070143,0.93613285,9.516952,0.04153884,-0.043982297,-0.0030543262,-0.09804847836494446,0.004276703577488661,-1.8961738348007202,1015.90576,
2021.01.16 15:43:03,6.0,24.0,25.92,-11.34,-28.98,0.038307227,0.9552865,9.392453,0.031154128,-0.01282817,-0.0012217305,-0.10135850310325623,-0.004078488796949387,-1.8814753293991089,1015.90576,
2021.01.16 15:43:03,6.0,24.0,26.46,-10.86,-28.56,-0.09816227,1.0175357,9.624691,0.0,-0.007941248,-0.02076942,-0.10532469302415848,0.010198651812970638,-1.85940682888031,1015.90576,
2021.01.16 15:43:03,6.0,24.0,26.34,-11.04,-28.8,-0.033518825,1.0414777,9.651027,-6.1086525E-4,0.016493361,-0.015882496,-0.10749702155590057,0.0034730699844658375,-1.8624131679534912,1015.91504,
2021.01.16 15:43:03,6.0,24.0,26.46,-11.219999,-29.099998,-0.023942016,1.0295067,9.562442,-0.002443461,-0.013439035,-6.1086525E-4,-0.10724805295467377,0.0025037501472979784,-1.8663297891616821,1015.91504,
2021.01.16 15:43:03,6.0,24.0,26.82,-11.28,-28.92,-0.076614454,1.0845734,9.607931,0.007330383,0.020158553,-0.01282817,-0.1124037504196167,0.00797391589730978,-1.861027479171753,1015.91504,
2021.01.16 15:43:03,6.0,24.0,26.64,-11.34,-29.4,-0.074220255,1.0606314,9.557653,-0.0030543262,0.007330383,-0.0067195175,-0.11051645129919052,0.0077653746120631695,-1.8651080131530762,1015.91504,
2021.01.16 15:43:03,6.0,24.0,26.939999,-11.28,-28.92,0.02873042,0.9959879,9.528923,-0.005497787,0.01160644,0.007330383,-0.10414398461580276,-0.0030150660313665867,-1.8660783767700195,1015.9094,
2021.01.16 15:43:03,6.0,24.0,26.58,-10.86,-28.859999,-0.08619126,1.0414777,9.526528,-0.008552114,0.028710667,0.002443461,-0.10888708382844925,0.009047252126038074,-1.8530970811843872,1015.9094,
2021.01.16 15:43:03,6.0,24.0,25.98,-10.559999,-29.22,-0.08619126,1.0319009,9.770737,-0.02321288,0.028710667,-0.013439035,-0.10521726310253143,0.008821139112114906,-1.8512494564056396,1015.9094,
2021.01.16 15:43:03,6.0,24.0,25.439999,-10.62,-29.16,-0.023942016,1.0007763,9.677363,-0.02321288,0.027488936,0.0061086523,-0.10304753482341766,0.0024740176741033792,-1.8603466749191284,1015.9094,
2021.01.16 15:43:03,6.0,24.0,25.14,-10.38,-29.279999,-0.035913024,0.9911995,9.476251,-0.0067195175,0.018936822,-0.0030543262,-0.10421855747699738,0.0037897746078670025,-1.8534010648727417,1015.9104,
2021.01.16 15:43:03,6.0,24.0,25.38,-10.62,-29.099998,0.021547815,0.9816227,9.737218,-0.0061086523,0.019547688,-0.009162978,-0.10047171264886856,-0.002212930005043745,-1.8629730939865112,1015.9104,
2021.01.16 15:43:04,6.0,24.0,26.039999,-10.5,-29.039999,-0.10295067,1.0247183,9.739613,-0.018936822,0.018325957,-0.009773844,-0.10481993108987808,0.010569910518825054,-1.8499386310577393,1015.9104,
2021.01.16 15:43:04,6.0,24.0,26.279999,-10.2,-29.22,-0.1316811,1.0486604,9.56723,-6.1086525E-4,-0.004276057,-0.013439035,-0.10916353762149811,0.01376289501786232,-1.831999659538269,1015.9104,
2021.01.16 15:43:04,6.0,24.0,26.46,-10.8,-28.859999,-0.076614454,0.9624691,9.636662,0.015271631,0.01282817,-0.008552114,-0.099542535841465,0.00795014388859272,-1.8618595600128174,1015.9026,
2021.01.16 15:43:04,6.0,24.0,26.46,-10.86,-29.22,-0.1388637,0.9983821,9.572019,0.0067195175,0.0,0.0036651916,-0.1039155051112175,0.014506235718727112,-1.8594655990600586,1015.9026,
2021.01.16 15:43:04,6.0,24.0,26.519999,-11.34,-29.099998,-0.023942016,0.9888053,9.595961,0.018936822,0.007941248,-0.0036651916,-0.10268118977546692,0.0024950045626610518,-1.8745744228363037,1015.9026,
2021.01.16 15:43:04,6.0,24.0,26.76,-11.639999,-28.74,-0.095768064,0.9696517,9.526528,0.012217305,-0.005497787,0.0067195175,-0.10142995417118073,0.010052438825368881,-1.8864052295684814,1015.9026,
2021.01.16 15:43:04,6.0,24.0,26.88,-11.34,-28.68,-0.09816227,1.0342951,9.648633,0.01160644,0.016493361,-0.0018325958,-0.10678275674581528,0.010173346847295761,-1.8696093559265137,1015.9031,
2021.01.16 15:43:04,6.0,24.0,26.699999,-11.219999,-28.08,-0.06464344,1.0127473,9.555259,0.0012217305,0.004276057,-6.1086525E-4,-0.10559184849262238,0.006765118334442377,-1.8700628280639648,1015.9031,
2021.01.16 15:43:04,6.0,24.0,26.46,-11.46,-27.96,-0.079008654,1.0247183,9.605537,0.010995574,0.015271631,0.0018325958,-0.10627443343400955,0.008225138299167156,-1.8809555768966675,1015.9031,
2021.01.16 15:43:04,6.0,24.0,26.46,-11.28,-28.08,-0.04309563,1.0390835,9.56723,-0.005497787,-6.1086525E-4,0.002443461,-0.10818347334861755,0.004504473879933357,-1.8716113567352295,1015.9031,
2021.01.16 15:43:04,6.0,24.0,26.34,-11.219999,-28.56,-0.095768064,0.9911995,9.629479,-0.002443461,0.02687807,-0.007330383,-0.10256757587194443,0.009944971650838852,-1.8760597705841064,1015.9016,
2021.01.16 15:43:04,6.0,24.0,26.699999,-11.46,-28.68,-0.17477672,1.0366893,9.555259,-0.012217305,0.015271631,-0.021380283,-0.10805346071720123,0.018289117142558098,-1.876103162765503,1015.9016,
2021.01.16 15:43:04,6.0,24.0,26.58,-11.099999,-28.439999,-0.12210429,1.1324574,9.615114,-0.007941248,0.034208454,-0.027488936,-0.1172293946146965,0.012698519974946976,-1.8550013303756714,1015.9016,
2021.01.16 15:43:04,6.0,24.0,26.279999,-11.219999,-28.74,-0.15083471,1.1133038,9.80665,-0.017715093,0.0067195175,-0.015271631,-0.11302817612886429,0.015379645861685276,-1.866197943687439,1015.9016,
2021.01.16 15:43:04,6.0,24.0,26.519999,-11.28,-28.5,-0.11971009,1.0175357,9.619903,-0.010995574,0.025045475,-0.016493361,-0.10537407547235489,0.012443359941244125,-1.8740054368972778,1015.9082,
2021.01.16 15:43:04,6.0,24.0,26.88,-11.34,-28.32,-0.110133275,0.9624691,9.473856,0.025045475,0.0012217305,-0.016493361,-0.10123796761035919,0.011624444276094437,-1.8768292665481567,1015.9082,
2021.01.16 15:43:04,6.0,24.0,27.48,-11.7,-28.199999,-0.21787235,1.0342951,9.423578,-6.1086525E-4,-0.004886922,-0.020158553,-0.10928954929113388,0.023115798830986023,-1.8772231340408325,1015.9082,
2021.01.16 15:43:04,6.0,24.0,28.08,-11.58,-27.72,-0.24181437,1.0606314,9.555259,-0.01038471,0.009773844,-0.021380283,-0.11051212251186371,0.02530154213309288,-1.867738127708435,1015.9082,
2021.01.16 15:43:04,6.0,24.0,28.08,-12.12,-27.3,-0.15322891,1.0319009,9.811439,-0.019547688,-0.0012217305,-0.0030543262,-0.1047753393650055,0.015616104006767273,-1.890466570854187,1015.9158,
2021.01.16 15:43:04,6.0,24.0,27.84,-12.059999,-27.18,-0.23942018,1.0486604,9.543288,0.015271631,-0.007330383,-0.009162978,-0.10941135138273239,0.02508254535496235,-1.8890571594238281,1015.9158,
2021.01.16 15:43:04,6.0,24.0,27.48,-11.7,-27.359999,-0.1364695,0.9720459,9.526528,0.0030543262,-0.010995574,0.01282817,-0.10167340934276581,0.014324227347970009,-1.8857026100158691,1015.9158,
2021.01.16 15:43:04,6.0,24.0,27.119999,-11.639999,-27.24,-0.1436521,1.0031705,9.631873,-0.008552114,0.007941248,0.0061086523,-0.10376551002264023,0.014913137070834637,-1.8861558437347412,1015.9158,
2021.01.16 15:43:04,6.0,24.0,27.359999,-11.4,-27.66,-0.18674773,1.0510546,9.636662,-0.005497787,-0.0036651916,0.0,-0.10861866921186447,0.01937645673751831,-1.8701616525650024,1015.9136,
2021.01.16 15:43:04,6.0,24.0,27.24,-11.82,-27.84,-0.16519992,0.9911995,9.598354,0.004276057,0.002443461,0.009773844,-0.10288775712251663,0.017209576442837715,-1.890239953994751,1015.9136,
2021.01.16 15:43:04,6.0,24.0,27.539999,-12.0,-27.66,-0.15083471,1.0462662,9.562442,0.002443461,-0.0036651916,0.009773844,-0.10896717011928558,0.01577235385775566,-1.8872389793395996,1015.9136,
2021.01.16 15:43:04,6.0,24.0,27.96,-12.719999,-27.599998,-0.110133275,1.0271125,9.701305,-0.012217305,0.0,0.015271631,-0.10547394305467606,0.011351929977536201,-1.9085884094238281,1015.9136,
2021.01.16 15:43:05,6.0,24.0,27.84,-12.78,-27.42,-0.20350714,0.9983821,9.698911,6.1086525E-4,0.012217305,0.007941248,-0.1025538370013237,0.020979395136237144,-1.917438268661499,1015.91626,
2021.01.16 15:43:05,6.0,24.0,28.199999,-12.42,-27.599998,-0.1316811,1.0630256,9.504981,0.01038471,-0.015271631,0.017715093,-0.11136536300182343,0.013853018172085285,-1.8912829160690308,1015.91626,
2021.01.16 15:43:05,6.0,24.0,27.66,-12.0,-27.66,-0.074220255,1.0007763,9.562442,-0.0061086523,-0.005497787,0.018936822,-0.10427424311637878,0.007761486805975437,-1.8887839317321777,1015.91626,
2021.01.16 15:43:05,6.0,24.0,27.48,-11.16,-27.84,-0.023942016,1.0103531,9.832987,-0.012217305,6.1086525E-4,0.017104227,-0.10239175707101822,0.002434862544760108,-1.863105297088623,1015.91626,
2021.01.16 15:43:05,6.0,24.0,27.42,-10.98,-28.14,-0.16998832,1.0007763,9.576807,0.014049901,0.005497787,-0.004886922,-0.10410580039024353,0.017748136073350906,-1.8578611612319946,1015.92236,
2021.01.16 15:43:05,6.0,24.0,27.18,-11.04,-27.9,-0.1340753,1.055843,9.526528,0.010995574,-0.02687807,0.004276057,-0.11037053912878036,0.014072959311306477,-1.8561625480651855,1015.92236,
2021.01.16 15:43:05,6.0,24.0,27.599998,-11.28,-28.38,-0.09816227,0.9816227,9.751583,-0.009773844,0.01038471,0.01282817,-0.10031989961862564,0.010065950453281403,-1.867599368095398,1015.92236,
2021.01.16 15:43:05,6.0,24.0,27.66,-11.639999,-28.56,-0.079008654,1.0223241,9.715671,-0.007330383,-0.018325957,0.01282817,-0.10483501106500626,0.008131904527544975,-1.8734540939331055,1015.92236,
2021.01.16 15:43:05,6.0,24.0,27.9,-11.099999,-28.8,-0.1340753,1.0486604,9.617508,0.008552114,-0.0012217305,-0.0061086523,-0.10859706997871399,0.01393985003232956,-1.8496123552322388,1015.92554,
2021.01.16 15:43:05,6.0,24.0,28.199999,-11.16,-28.74,-0.095768064,0.9816227,9.78989,-0.0067195175,-0.0036651916,0.004886922,-0.09993025660514832,0.009782031178474426,-1.856804609298706,1015.92554,
2021.01.16 15:43:05,6.0,24.0,28.439999,-11.16,-28.74,-0.18195933,1.0127473,9.605537,-0.0012217305,-0.005497787,-0.007330383,-0.10502689331769943,0.01894090510904789,-1.8511141538619995,1015.92554,
2021.01.16 15:43:05,6.0,24.0,28.5,-10.98,-28.98,-0.06703765,1.0127473,9.672575,0.0,-6.1086525E-4,0.002443461,-0.10432036221027374,0.006930582225322723,-1.8424451351165771,1015.92554,
2021.01.16 15:43:05,6.0,24.0,28.68,-11.4,-28.56,-0.07182605,1.0175357,9.78989,-0.005497787,-0.004886922,0.0061086523,-0.10356275737285614,0.00733662536367774,-1.8565678596496582,1015.92163,
2021.01.16 15:43:05,6.0,24.0,28.439999,-11.099999,-28.439999,-0.088585466,0.9792285,9.68694,-0.007941248,0.007330383,0.0,-0.10074107348918915,0.009144579991698265,-1.8525829315185547,1015.92163,
2021.01.16 15:43:05,6.0,24.0,28.199999,-11.4,-28.32,-0.11252748,0.9840169,9.610326,0.008552114,-0.0061086523,-0.010995574,-0.10202909260988235,0.011708483099937439,-1.8643220663070679,1015.92163,
2021.01.16 15:43:05,6.0,24.0,28.019999,-11.7,-28.08,-0.17238252,0.9935937,9.646238,-6.1086525E-4,0.007941248,-0.012217305,-0.10262499004602432,0.017868535593152046,-1.8774150609970093,1015.92163,
2021.01.16 15:43:05,6.0,24.0,27.599998,-11.88,-28.439999,-0.17956513,1.0175357,9.722853,-0.0030543262,0.002443461,-0.0030543262,-0.10425679385662079,0.01846625842154026,-1.8852109909057617,1015.92114,
2021.01.16 15:43:05,6.0,24.0,27.48,-11.88,-28.98,-0.12210429,0.9792285,9.749189,0.0018325958,0.0018325958,0.0061086523,-0.10009850561618805,0.012523903511464596,-1.887628197669983,1015.92114,
2021.01.16 15:43:05,6.0,24.0,27.599998,-11.46,-28.92,-0.107739076,0.90979666,9.574412,0.007941248,0.007330383,0.002443461,-0.0947333350777626,0.01125233806669712,-1.8777198791503906,1015.92114,
2021.01.16 15:43:05,6.0,24.0,27.48,-11.219999,-28.98,-0.16759412,1.0127473,9.643845,-0.0061086523,0.012217305,-0.004886922,-0.1046157032251358,0.017376603558659554,-1.8619580268859863,1015.92114,
2021.01.16 15:43:05,6.0,24.0,27.0,-10.62,-28.8,-0.18914193,1.0271125,9.828198,-0.013439035,0.02321288,0.0018325958,-0.10410957038402557,0.01924244500696659,-1.8477524518966675,1015.92505,
2021.01.16 15:43:05,6.0,24.0,26.939999,-10.5,-28.92,-0.15562311,0.9648633,9.737218,0.0030543262,0.015271631,0.009773844,-0.09875528514385223,0.015980936586856842,-1.8487913608551025,1015.92505,
2021.01.16 15:43:05,6.0,24.0,26.82,-10.5,-28.68,-0.07182605,0.92895025,9.557653,0.007330383,0.004886922,0.013439035,-0.09688733518123627,0.00751488795503974,-1.8510372638702393,1015.92505,
2021.01.16 15:43:05,6.0,24.0,26.699999,-10.5,-28.619999,-0.12449849,0.9888053,9.639056,-0.0036651916,0.0061086523,0.0030543262,-0.10221714526414871,0.012915327213704586,-1.8479564189910889,1015.92505,
2021.01.16 15:43:05,6.0,24.0,26.88,-10.44,-28.859999,-0.107739076,0.9911995,9.849746,-0.014049901,0.017715093,0.008552114,-0.10028837621212006,0.010937823913991451,-1.8448952436447144,1015.9219,
2021.01.16 15:43:06,6.0,24.0,26.82,-10.559999,-28.26,-0.19153613,1.0079589,9.660604,0.007330383,-0.008552114,0.0036651916,-0.10394061356782913,0.019823921844363213,-1.8496259450912476,1015.9219,
2021.01.16 15:43:06,6.0,24.0,26.46,-10.74,-28.5,-0.1364695,0.9959879,9.579201,0.012217305,0.004886922,0.009773844,-0.10359131544828415,0.014245474711060524,-1.8580667972564697,1015.9219,
2021.01.16 15:43:06,6.0,24.0,26.46,-10.559999,-28.38,-0.093373865,0.9983821,9.653421,-0.0018325958,0.0,0.009773844,-0.10305143892765045,0.009672317653894424,-1.8518177270889282,1015.9219,
2021.01.16 15:43:06,6.0,24.0,26.64,-10.679999,-28.26,-0.107739076,0.9888053,9.727641,-0.0030543262,0.0,0.0030543262,-0.10129492729902267,0.011075107380747795,-1.856677532196045,1015.9241,
2021.01.16 15:43:06,6.0,24.0,26.76,-10.86,-28.439999,-0.095768064,0.94331545,9.627085,0.008552114,0.0,-0.0018325958,-0.09766897559165955,0.009947446174919605,-1.86455237865448,1015.9241,
2021.01.16 15:43:06,6.0,24.0,27.06,-10.559999,-28.56,-0.20590134,1.0366893,9.488221,0.004276057,-0.015882496,-0.012217305,-0.10880355536937714,0.021697325631976128,-1.8414078950881958,1015.9241,
2021.01.16 15:43:06,6.0,24.0,27.06,-10.8,-28.859999,-0.10295067,0.9768343,9.770737,-0.01160644,-0.004886922,-0.0012217305,-0.09963890165090561,0.010536243207752705,-1.8561066389083862,1015.9241,
2021.01.16 15:43:06,6.0,24.0,26.699999,-10.92,-28.859999,-0.12928689,1.0366893,9.636662,-0.009773844,0.0012217305,-0.0067195175,-0.1071559265255928,0.013415343128144741,-1.856650710105896,1015.9282,
2021.01.16 15:43:06,6.0,24.0,26.64,-10.8,-28.8,-0.08619126,1.0151415,9.682152,-0.009773844,-0.01038471,-0.009162978,-0.10446090251207352,0.008901841007173061,-1.855239987373352,1015.9282,
2021.01.16 15:43:06,6.0,24.0,26.519999,-10.98,-28.56,-0.08619126,0.93134445,9.574412,0.004276057,-0.007941248,-0.009162978,-0.09696533530950546,0.009002006612718105,-1.871376395225525,1015.9282,
2021.01.16 15:43:06,6.0,24.0,26.34,-10.44,-28.38,-0.12449849,1.0151415,9.631873,-0.008552114,-0.0036651916,-0.02321288,-0.10499761998653412,0.012924958020448685,-1.8474016189575195,1015.9282,
2021.01.16 15:43:06,6.0,24.0,26.699999,-10.559999,-28.32,-0.090979666,1.0151415,9.701305,-0.015271631,-0.010995574,-0.020158553,-0.10425570607185364,0.009377810172736645,-1.84829843044281,1015.91406,
2021.01.16 15:43:06,6.0,24.0,26.519999,-10.62,-28.619999,-0.22266077,1.0151415,9.619903,0.004276057,-0.0036651916,-0.027488936,-0.10510808229446411,0.023141711950302124,-1.8529990911483765,1015.91406,
2021.01.16 15:43:06,6.0,24.0,26.64,-10.92,-28.5,-0.18674773,1.0462662,9.631873,-0.0030543262,-0.009162978,-0.021380283,-0.10818100720643997,0.019386088475584984,-1.8586995601654053,1015.91406,
2021.01.16 15:43:06,6.0,24.0,26.64,-11.04,-28.74,-0.19153613,1.0606314,9.610326,-0.0018325958,0.002443461,-0.014660766,-0.10989724844694138,0.019927604123950005,-1.8603196144104004,1015.91406,
2021.01.16 15:43:06,6.0,24.0,26.46,-10.92,-28.619999,-0.033518825,0.93134445,9.718064,-0.0067195175,-0.002443461,6.1086525E-4,-0.09554406255483627,0.003449111944064498,-1.8699908256530762,1015.90845,
2021.01.16 15:43:06,6.0,24.0,26.58,-10.74,-28.26,-0.08619126,0.94092125,9.502586,0.010995574,0.0,-0.017104227,-0.09869164228439331,0.009070046246051788,-1.861654281616211,1015.90845,
2021.01.16 15:43:06,6.0,24.0,26.22,-10.38,-28.439999,-0.16280572,1.0199299,9.574412,-0.01038471,-0.004886922,-0.023823744,-0.10611117631196976,0.017002614215016365,-1.8458775281906128,1015.90845,
2021.01.16 15:43:06,6.0,24.0,26.34,-10.38,-28.08,-0.18914193,1.0031705,9.715671,-0.009773844,0.02076942,-0.015271631,-0.10286887735128403,0.019465258345007896,-1.84986412525177,1015.90845,
2021.01.16 15:43:06,6.0,24.0,26.519999,-10.26,-27.96,-0.11731588,0.9696517,9.634268,0.0,-0.029321533,-0.0061086523,-0.10030095279216766,0.012176335789263248,-1.8454644680023193,1015.9226,
2021.01.16 15:43:06,6.0,24.0,26.46,-10.32,-28.26,-0.1340753,0.93852705,9.500193,0.014049901,0.009773844,-0.013439035,-0.09846105426549911,0.014111965894699097,-1.8494601249694824,1015.9226,
2021.01.16 15:43:06,6.0,24.0,26.76,-10.2,-27.96,-0.14604631,1.0055647,9.615114,-0.0061086523,-0.015882496,-0.012217305,-0.10419093817472458,0.015188075602054596,-1.8375189304351807,1015.9226,
2021.01.16 15:43:06,6.0,24.0,26.699999,-10.44,-28.38,-0.1388637,0.9983821,9.720459,6.1086525E-4,0.002443461,-0.007941248,-0.10234008729457855,0.014284742064774036,-1.846822738647461,1015.9226,
2021.01.16 15:43:06,6.0,24.0,26.699999,-10.74,-28.8,-0.110133275,0.9768343,9.674969,0.010995574,-0.01160644,-0.008552114,-0.10061764717102051,0.011382830329239368,-1.8570719957351685,1015.92334,
2021.01.16 15:43:06,6.0,24.0,26.58,-10.5,-28.68,-0.15562311,0.9528923,9.536105,0.021380283,-0.013439035,-0.007330383,-0.09958091378211975,0.016317909583449364,-1.8524360656738281,1015.92334,
2021.01.16 15:43:07,6.0,24.0,26.4,-11.099999,-29.16,-0.074220255,0.8619126,9.543288,0.014049901,-6.1086525E-4,-0.007330383,-0.0900690108537674,0.007777063641697168,-1.8818358182907104,1015.92334,
2021.01.16 15:43:07,6.0,24.0,26.64,-10.8,-28.8,-0.17477672,0.9624691,9.622296,-0.002443461,-0.0067195175,-0.02076942,-0.0996769592165947,0.018161725252866745,-1.8622180223464966,1015.92334,
2021.01.16 15:43:07,6.0,24.0,26.699999,-10.559999,-28.8,-0.18195933,1.0031705,9.600749,0.0067195175,-0.009773844,-0.021991149,-0.10409241169691086,0.01895034871995449,-1.8486391305923462,1015.91797,
2021.01.16 15:43:07,6.0,24.0,27.18,-10.8,-28.98,-0.110133275,0.9888053,9.627085,-0.004276057,-0.005497787,-0.007330383,-0.10234520584344864,0.011439441703259945,-1.8518706560134888,1015.91797,
2021.01.16 15:43:07,6.0,24.0,27.18,-10.559999,-28.8,-0.1436521,0.93613285,9.617508,0.005497787,-0.0061086523,-0.01038471,-0.09701990336179733,0.014935409650206566,-1.8504635095596313,1015.91797,
2021.01.16 15:43:07,6.0,24.0,27.0,-10.86,-28.74,-0.088585466,0.9552865,9.600749,0.007330383,0.005497787,-0.007941248,-0.09917062520980835,0.009226671420037746,-1.8593851327896118,1015.91797,
2021.01.16 15:43:07,6.0,24.0,26.88,-11.04,-28.859999,-0.11252748,0.9744401,9.607931,-0.0012217305,0.004886922,-0.01160644,-0.10106789320707321,0.01171140093356371,-1.864953875541687,1015.9133,
2021.01.16 15:43:07,6.0,24.0,26.64,-10.74,-29.22,-0.1364695,1.0031705,9.569624,0.0061086523,-0.0061086523,-0.01160644,-0.10443660616874695,0.014259729534387589,-1.852776288986206,1015.9133,
2021.01.16 15:43:07,6.0,24.0,26.64,-10.5,-29.279999,-0.15322891,0.91937345,9.548077,0.0012217305,0.009162978,-0.01038471,-0.09598064422607422,0.016046768054366112,-1.8536428213119507,1015.9133,
2021.01.16 15:43:07,6.0,24.0,26.64,-10.0199995,-29.519999,-0.1412579,0.9672575,9.56723,-0.002443461,0.0030543262,-0.009773844,-0.10074783116579056,0.014763690531253815,-1.8304685354232788,1015.9133,
2021.01.16 15:43:07,6.0,24.0,26.64,-10.08,-29.4,-0.23463176,1.043872,9.588778,0.004886922,-0.0012217305,-0.01038471,-0.10840470343828201,0.024464530870318413,-1.8263596296310425,1015.9221,
2021.01.16 15:43:07,6.0,24.0,26.4,-10.32,-29.22,-0.12689269,0.9672575,9.665392,-0.014049901,0.009162978,0.01282817,-0.09973369538784027,0.013127806596457958,-1.8452699184417725,1015.9221,
2021.01.16 15:43:07,6.0,24.0,26.34,-10.32,-29.279999,-0.08140286,0.92176765,9.622296,0.0061086523,-0.0061086523,0.018936822,-0.0955001562833786,0.008459614589810371,-1.8492786884307861,1015.9221,
2021.01.16 15:43:07,6.0,24.0,26.34,-10.559999,-29.039999,-0.09816227,0.9768343,9.440337,0.017104227,-0.004276057,0.015882496,-0.10310203582048416,0.010397800244390965,-1.8508024215698242,1015.9221,
2021.01.16 15:43:07,6.0,24.0,26.279999,-10.2,-29.16,-0.09816227,1.0223241,9.648633,-0.0036651916,0.0012217305,0.007330383,-0.10555606335401535,0.010173346847295761,-1.835504412651062,1015.9243,
2021.01.16 15:43:07,6.0,24.0,26.4,-10.26,-28.74,-0.1388637,1.0247183,9.639056,-0.01160644,6.1086525E-4,0.021991149,-0.10590028762817383,0.014405361376702785,-1.8384236097335815,1015.9243,
2021.01.16 15:43:07,6.0,24.0,26.279999,-10.559999,-28.5,-0.08140286,0.9911995,9.564836,0.004276057,0.0030543262,0.022602014,-0.10325723141431808,0.008510434068739414,-1.8527921438217163,1015.9243,
2021.01.16 15:43:07,6.0,24.0,26.34,-10.98,-28.8,-0.016759412,1.0103531,9.679757,-0.004276057,-0.004886922,0.016493361,-0.10400118678808212,0.0017313860589638352,-1.8636162281036377,1015.9243,
2021.01.16 15:43:07,6.0,24.0,26.46,-11.5199995,-28.5,-0.14844051,1.0175357,9.507375,0.014660766,0.026267206,-0.0036651916,-0.10660718381404877,0.015611927025020123,-1.8824046850204468,1015.90454,
2021.01.16 15:43:07,6.0,24.0,26.58,-11.7,-28.5,-0.1604115,1.067814,9.627085,-0.012217305,0.0036651916,0.015271631,-0.11045093089342117,0.01666097901761532,-1.8834989070892334,1015.90454,
2021.01.16 15:43:07,6.0,24.0,26.699999,-11.5199995,-28.56,-0.06943185,1.0582372,9.751583,-0.0012217305,0.0061086523,0.019547688,-0.10809379070997238,0.00711993919685483,-1.876127004623413,1015.90454,
2021.01.16 15:43:07,6.0,24.0,26.519999,-11.28,-28.5,-0.06703765,1.0247183,9.564836,0.02443461,0.03481932,0.0,-0.10672423243522644,0.00700864614918828,-1.8714418411254883,1015.90454,
2021.01.16 15:43:07,6.0,24.0,26.4,-11.219999,-28.619999,-0.08379706,1.0127473,9.440337,0.016493361,0.009773844,0.0,-0.10686581581830978,0.008876257576048374,-1.870477318763733,1015.9094,
2021.01.16 15:43:07,6.0,24.0,26.46,-11.04,-29.16,-0.272939,1.0606314,9.646238,-0.004886922,-0.019547688,-0.009162978,-0.10946948826313019,0.028287317603826523,-1.8629788160324097,1015.9094,
2021.01.16 15:43:07,6.0,24.0,26.16,-10.86,-28.92,-0.009576807,1.0247183,9.581595,0.017715093,0.027488936,0.01282817,-0.10654151439666748,9.994999272748828E-4,-1.8580687046051025,1015.9094,
2021.01.16 15:43:08,6.0,24.0,26.46,-11.04,-28.98,-0.12689269,1.0199299,9.595961,0.0061086523,-0.03176499,-6.1086525E-4,-0.10588067770004272,0.013222781009972095,-1.8642373085021973,1015.9094,
2021.01.16 15:43:08,6.0,24.0,26.76,-10.86,-29.099998,-0.14604631,0.9935937,9.61272,0.017715093,-0.015882496,0.0030543262,-0.10298483818769455,0.015191858634352684,-1.8578894138336182,1015.90015,
2021.01.16 15:43:08,6.0,24.0,26.939999,-10.5,-28.74,-0.045489833,1.0175357,9.627085,0.015271631,-0.018936822,0.009773844,-0.10530295968055725,0.004725158214569092,-1.8404316902160645,1015.90015,
2021.01.16 15:43:08,6.0,24.0,27.42,-10.44,-29.039999,-0.1388637,1.0462662,9.52174,0.019547688,-0.021991149,-0.008552114,-0.10943122953176498,0.014582823030650616,-1.8301663398742676,1015.90015,
2021.01.16 15:43:08,6.0,24.0,27.18,-10.0199995,-29.039999,-0.1436521,0.8858546,9.325416,0.017104227,-0.014049901,-0.007330383,-0.0946982130408287,0.015403144992887974,-1.8335648775100708,1015.90015,
2021.01.16 15:43:08,6.0,24.0,27.06,-10.0199995,-28.74,-0.15801731,0.9720459,9.552865,-0.014660766,-0.014660766,-0.02076942,-0.10139159113168716,0.01653984561562538,-1.8288110494613647,1015.9021,
2021.01.16 15:43:08,6.0,24.0,26.46,-10.139999,-28.56,-0.16998832,1.0821792,9.605537,-0.007941248,0.005497787,-0.010995574,-0.11217153072357178,0.01769506372511387,-1.8280616998672485,1015.9021,
2021.01.16 15:43:08,6.0,24.0,26.46,-9.84,-28.619999,-0.06703765,1.0151415,9.64145,-0.018325957,-0.0012217305,-0.002443461,-0.1049002856016159,0.006952955387532711,-1.8231045007705688,1015.9021,
2021.01.16 15:43:08,6.0,24.0,26.519999,-10.139999,-28.019999,-0.038307227,0.91458505,9.526528,-0.007941248,0.0036651916,0.0061086523,-0.0957099199295044,0.004021089058369398,-1.8442169427871704,1015.9021,
2021.01.16 15:43:08,6.0,24.0,26.279999,-10.2,-28.199999,-0.110133275,1.0103531,9.600749,-0.015882496,0.004276057,-0.014660766,-0.1048441156744957,0.011470818892121315,-1.840017557144165,1015.9114,
2021.01.16 15:43:08,6.0,24.0,26.699999,-10.8,-28.56,-0.18195933,1.0702082,9.691729,-0.02076942,0.0061086523,-0.018936822,-0.10996011644601822,0.01877249777317047,-1.8516435623168945,1015.9114,
2021.01.16 15:43:08,6.0,24.0,26.4,-11.16,-28.859999,-0.088585466,0.9768343,9.586384,-0.007941248,-0.002443461,0.0030543262,-0.10154328495264053,0.009240496903657913,-1.8731962442398071,1015.9114,
2021.01.16 15:43:08,6.0,24.0,26.22,-11.46,-29.34,-0.059855044,0.9935937,9.514558,-0.0012217305,-0.009773844,0.0036651916,-0.10404959321022034,0.006290807388722897,-1.8805853128433228,1015.9114,
2021.01.16 15:43:08,6.0,24.0,26.279999,-11.34,-29.34,-0.06464344,1.0366893,9.648633,-0.014660766,-6.1086525E-4,-0.004276057,-0.10703117400407791,0.006699651014059782,-1.8726742267608643,1015.9104,
2021.01.16 15:43:08,6.0,24.0,26.039999,-10.86,-28.859999,-0.1364695,1.0606314,9.720459,-0.009162978,0.008552114,-0.01038471,-0.10867272317409515,0.014038486406207085,-1.8599889278411865,1015.9104,
2021.01.16 15:43:08,6.0,24.0,26.58,-10.98,-28.619999,-0.076614454,0.9911995,9.598354,-0.0061086523,-0.007941248,0.007941248,-0.10289964079856873,0.007981871254742146,-1.8641743659973145,1015.9104,
2021.01.16 15:43:08,6.0,24.0,26.58,-10.98,-28.74,-0.11492168,1.0079589,9.533711,0.01038471,-0.007330383,-0.0036651916,-0.10532685369253159,0.012053660117089748,-1.862067461013794,1015.9104,
2021.01.16 15:43:08,6.0,24.0,26.82,-10.8,-28.56,-0.08379706,0.9983821,9.665392,-0.0061086523,0.0030543262,0.004886922,-0.10292564332485199,0.008669586852192879,-1.855793833732605,1015.9126,
2021.01.16 15:43:08,6.0,24.0,26.939999,-10.74,-28.68,-0.10295067,0.92895025,9.639056,0.0036651916,0.002443461,0.0036651916,-0.09607140719890594,0.010680168867111206,-1.8595740795135498,1015.9126,
2021.01.16 15:43:08,6.0,24.0,26.519999,-11.04,-28.38,-0.1316811,1.0199299,9.409213,0.012217305,0.002443461,-0.005497787,-0.10796486586332321,0.013993998058140278,-1.863722562789917,1015.9126,
2021.01.16 15:43:08,6.0,24.0,26.64,-10.74,-28.439999,-0.11971009,1.0247183,9.65821,-0.017715093,0.004886922,0.004886922,-0.10569465905427933,0.0123940110206604,-1.8538365364074707,1015.9126,
2021.01.16 15:43:08,6.0,24.0,26.279999,-10.62,-28.56,-0.08379706,0.9864111,9.710882,-0.0030543262,0.0067195175,0.007330383,-0.10122694075107574,0.008628977462649345,-1.8568506240844727,1015.9187,
2021.01.16 15:43:08,6.0,24.0,26.46,-10.8,-28.5,-0.09816227,0.9696517,9.49301,0.013439035,-0.01160644,6.1086525E-4,-0.1017853319644928,0.010340111330151558,-1.861250400543213,1015.9187,
2021.01.16 15:43:08,6.0,24.0,26.58,-10.44,-28.619999,-0.21787235,0.9792285,9.52174,6.1086525E-4,0.002443461,0.004276057,-0.10245443880558014,0.02287757769227028,-1.8487918376922607,1015.9187,
2021.01.16 15:43:08,6.0,24.0,26.4,-10.2,-28.32,-0.10534488,1.0007763,9.586384,-0.01038471,-0.0067195175,0.02443461,-0.10401257127523422,0.010988568887114525,-1.8391846418380737,1015.9187,
2021.01.16 15:43:09,6.0,24.0,26.519999,-10.62,-28.439999,-0.1316811,0.9888053,9.677363,-0.014049901,0.002443461,0.021380283,-0.1018143966794014,0.01360628567636013,-1.8551747798919678,1015.9165,
2021.01.16 15:43:09,6.0,24.0,26.099998,-10.679999,-28.859999,0.01436521,0.9600749,9.758766,-0.0012217305,-0.021380283,0.036651913,-0.098065085709095,-0.0014720303006470203,-1.860992431640625,1015.9165,
2021.01.16 15:43:09,6.0,24.0,26.039999,-10.86,-29.039999,0.06703765,0.9911995,9.488221,0.029321533,-0.042760566,0.022602014,-0.10408618301153183,-0.007065237034112215,-1.8597990274429321,1015.9165,
2021.01.16 15:43:09,6.0,24.0,26.099998,-10.98,-29.46,-0.110133275,1.0103531,9.560047,0.007941248,-0.0036651916,0.0,-0.10528714954853058,0.011519649997353554,-1.864534616470337,1015.9165,
2021.01.16 15:43:09,6.0,24.0,26.64,-10.86,-29.279999,-0.14604631,1.0055647,9.722853,0.002443461,-0.02321288,0.01160644,-0.10304486751556396,0.015019803307950497,-1.858417272567749,1015.92114,
2021.01.16 15:43:09,6.0,24.0,26.88,-10.92,-29.099998,-0.05746084,0.9768343,9.696517,0.025045475,-0.0036651916,0.022602014,-0.10040025413036346,0.005925856530666351,-1.8595105409622192,1015.92114,
2021.01.16 15:43:09,6.0,24.0,26.64,-10.62,-29.16,0.25378537,1.0079589,8.441956,0.059864793,-0.029932396,0.029932396,-0.11878298968076706,-0.030053341761231422,-1.8263534307479858,1015.92114,
2021.01.16 15:43:09,6.0,24.0,27.119999,-10.8,-29.16,-0.7206547,0.7158663,10.290278,-0.05497787,0.226631,-0.016493361,-0.06928618997335434,0.0699184238910675,-1.9029514789581299,1015.92114,
2021.01.16 15:43:09,6.0,24.0,26.46,-10.74,-29.099998,0.0047884034,0.9528923,10.505757,-0.06963864,-0.054367006,0.02687807,-0.09045439958572388,-4.5578848221339285E-4,-1.866633653640747,1015.9099,
2021.01.16 15:43:09,6.0,24.0,26.519999,-10.86,-29.22,-0.32800564,1.1061212,9.263166,0.08246681,-0.15210545,-0.02687807,-0.11877421289682388,0.035394880920648575,-1.8467371463775635,1015.9099,
