Time,X-cord,Y-cord,Mag_x,Mag_y,Mag_z,Acc_x,Acc_y,Acc_z,Gyro_x,Gyro_y,Gyro_z,Orn_x,Orn_y,Orn_z,Pressure,
2021.01.16 15:50:08,31.0,24.0,31.38,2.6399999,-31.26,0.033518825,0.9600749,9.3661175,0.112399206,-0.13072516,0.013439035,-0.10214769840240479,-0.003578716656193137,-1.3885893821716309,1015.63745,
2021.01.16 15:50:08,31.0,24.0,31.439999,2.34,-31.199999,-0.45489833,0.8475474,8.640674,0.24129178,-0.13805555,-0.0030543262,-0.0976409912109375,0.05259760469198227,-1.3871355056762695,1015.63745,
2021.01.16 15:50:08,31.0,24.0,31.38,1.8,-31.32,-0.33518824,0.7254431,9.528923,0.086132,-0.065973446,-0.021991149,-0.07593730092048645,0.03516138345003128,-1.431157112121582,1015.63745,
2021.01.16 15:50:08,31.0,24.0,31.26,1.86,-31.56,-0.2633622,0.8331822,10.041282,-0.093462385,-0.019547688,0.043982297,-0.08275771886110306,0.026221932843327522,-1.422997236251831,1015.6362,
2021.01.16 15:50:08,31.0,24.0,31.26,1.62,-31.56,-0.05267244,0.82360536,9.964667,-0.07696902,0.015882496,0.03970624,-0.08246397227048874,0.005285871215164661,-1.4356549978256226,1015.6362,
2021.01.16 15:50:08,31.0,24.0,31.56,1.02,-31.38,-0.007182605,0.6847417,9.414001,6.1086525E-4,-0.03481932,0.03359759,-0.07260862737894058,7.62970361392945E-4,-1.4666743278503418,1015.6362,
2021.01.16 15:50:08,31.0,24.0,31.5,1.0799999,-31.56,0.107739076,0.5626374,9.437943,0.04642576,0.005497787,0.021991149,-0.05954006686806679,-0.01141502894461155,-1.47894287109375,1015.6362,
2021.01.16 15:50:08,31.0,24.0,31.38,1.0799999,-31.5,-0.10295067,0.6344634,9.411607,0.03726278,0.05375614,-0.043982297,-0.0673070102930069,0.010938256047666073,-1.4674369096755981,1015.6367,
2021.01.16 15:50:08,31.0,24.0,31.619999,1.4399999,-31.679998,-0.37828386,0.82360536,9.785102,-0.015271631,0.08552113,-0.10140363,-0.08390901237726212,0.03863992169499397,-1.4336938858032227,1015.6367,
2021.01.16 15:50:08,31.0,24.0,31.32,2.28,-32.1,-0.40940848,0.8690952,9.744401,0.0018325958,0.065973446,-0.09285152,-0.08887582272291183,0.041990041732788086,-1.3977456092834473,1015.6367,
2021.01.16 15:50:08,31.0,24.0,31.74,2.1599998,-31.56,-0.5530606,0.9504981,9.610326,0.007330383,0.05131268,-0.09101892,-0.09842144697904587,0.057485174387693405,-1.3911669254302979,1015.6367,
2021.01.16 15:50:08,31.0,24.0,31.859999,2.34,-31.439999,-0.49799395,0.80205756,9.469068,0.027488936,-0.025045475,-0.06047566,-0.08438514173030853,0.05254324898123741,-1.4026979207992554,1015.63354,
2021.01.16 15:50:08,31.0,24.0,31.859999,2.1599998,-31.32,-0.3184288,0.7206547,9.485827,0.0030543262,0.002443461,-0.0012217305,-0.07578354328870773,0.03355630114674568,-1.4223519563674927,1015.63354,
2021.01.16 15:50:08,31.0,24.0,32.219997,1.4399999,-30.9,-0.3854665,0.7206547,9.751583,-0.048258353,-0.025045475,0.021380283,-0.07370985299348831,0.03950803726911545,-1.4486095905303955,1015.63354,
2021.01.16 15:50:08,31.0,24.0,31.5,1.68,-31.38,-0.33279404,0.7589619,9.634268,-0.029932396,0.017104227,0.015271631,-0.07856830209493637,0.03452901542186737,-1.4327998161315918,1015.63354,
2021.01.16 15:50:08,31.0,24.0,31.38,1.62,-31.439999,-0.35673606,0.7062895,9.507375,-0.023823744,-0.015271631,0.016493361,-0.07410043478012085,0.037504442036151886,-1.4380906820297241,1015.6382,
2021.01.16 15:50:08,31.0,24.0,31.56,1.8,-31.32,-0.19632454,0.6991069,9.751583,-0.03359759,-0.007941248,0.03848451,-0.07155473530292511,0.020129861310124397,-1.4396288394927979,1015.6382,
2021.01.16 15:50:08,31.0,24.0,31.439999,2.1,-31.5,-0.1388637,0.7134721,9.821015,-0.040317107,-0.021380283,0.039095376,-0.07251286506652832,0.014138502068817616,-1.4294921159744263,1015.6382,
2021.01.16 15:50:08,31.0,24.0,31.439999,1.9799999,-31.14,-0.12210429,0.6679823,9.665392,-0.02565634,-0.057421334,0.03970624,-0.06899552047252655,0.01263247150927782,-1.4379252195358276,1015.6382,
2021.01.16 15:50:08,31.0,24.0,31.619999,1.74,-30.96,-0.12449849,0.61530983,9.552865,0.009773844,-0.016493361,0.01038471,-0.06431671977043152,0.01303184311836958,-1.4511486291885376,1015.646,
2021.01.16 15:50:08,31.0,24.0,31.32,1.4399999,-31.32,-0.15562311,0.7062895,9.639056,-0.007941248,-0.035430185,0.0036651916,-0.07313350588083267,0.01614365540444851,-1.449318289756775,1015.646,
2021.01.16 15:50:09,31.0,24.0,31.32,1.5,-31.679998,-0.1604115,0.6464345,9.6845455,-0.018325957,-0.014049901,-0.010995574,-0.06664109975099564,0.016562143340706825,-1.4531086683273315,1015.646,
2021.01.16 15:50:09,31.0,24.0,31.679998,1.5,-32.1,-0.19393034,0.6368576,9.768343,-0.028710667,-0.007330383,-0.014660766,-0.06509114801883698,0.019850334152579308,-1.454517126083374,1015.646,
2021.01.16 15:50:09,31.0,24.0,31.619999,1.62,-32.16,-0.31124622,0.7038953,9.52174,-0.017715093,-0.022602014,-0.028099801,-0.07375159114599228,0.032676324248313904,-1.4386790990829468,1015.6394,
2021.01.16 15:50:09,31.0,24.0,31.679998,1.9799999,-31.619999,-0.38067806,0.7278373,9.61272,-0.01038471,0.0012217305,-0.035430185,-0.07551290094852448,0.0395808108150959,-1.4253848791122437,1015.6394,
2021.01.16 15:50:09,31.0,24.0,31.619999,1.86,-31.32,-0.2825158,0.6871359,9.746795,-0.028710667,-0.009162978,-0.015271631,-0.07035275548696518,0.028977395966649055,-1.4373722076416016,1015.6394,
2021.01.16 15:50:09,31.0,24.0,31.92,1.68,-30.9,-0.15562311,0.62009823,9.7563715,-0.02443461,-0.0012217305,0.015882496,-0.06346485763788223,0.015949567779898643,-1.4545801877975464,1015.6394,
2021.01.16 15:50:09,31.0,24.0,32.1,1.3199999,-30.9,-0.17477672,0.60812724,9.586384,-0.01160644,-0.01282817,0.01160644,-0.0633411779999733,0.01822974719107151,-1.4662046432495117,1015.6465,
2021.01.16 15:50:09,31.0,24.0,31.8,1.02,-31.199999,-0.09816227,0.61052144,9.643845,0.004886922,0.0018325958,-0.004276057,-0.06321921944618225,0.0101783974096179,-1.4754900932312012,1015.6465,
2021.01.16 15:50:09,31.0,24.0,32.1,1.0799999,-31.38,-0.1364695,0.6512229,9.76116,-0.019547688,-0.018936822,0.0,-0.06661051511764526,0.01397995837032795,-1.4701850414276123,1015.6465,
2021.01.16 15:50:09,31.0,24.0,31.859999,1.62,-31.56,-0.22026655,0.7015011,9.928755,-0.018936822,0.0012217305,-0.028099801,-0.07051897794008255,0.0221810732036829,-1.4466016292572021,1015.6465,
2021.01.16 15:50:09,31.0,24.0,31.439999,2.1599998,-32.1,-0.34476504,0.6727707,9.627085,-0.0030543262,0.008552114,-0.044593163,-0.06972513347864151,0.03579668700695038,-1.4242521524429321,1015.63965,
2021.01.16 15:50:09,31.0,24.0,32.219997,2.52,-32.219997,-0.31124622,0.62728083,9.516952,0.03176499,-0.029321533,-0.014049901,-0.06578168272972107,0.03269274905323982,-1.4210222959518433,1015.63965,
2021.01.16 15:50:09,31.0,24.0,31.74,2.6399999,-31.679998,-0.2657564,0.5746084,9.782708,0.007330383,0.0030543262,0.01160644,-0.05864815413951874,0.027159253135323524,-1.4246954917907715,1015.63965,
2021.01.16 15:50:09,31.0,24.0,31.56,2.22,-31.56,-0.21547815,0.51954174,9.938332,-0.017715093,0.029321533,0.021991149,-0.05221676453948021,0.021678125485777855,-1.445135474205017,1015.63965,
2021.01.16 15:50:09,31.0,24.0,31.74,2.04,-30.96,-0.29688102,0.7422025,9.088389,0.061086524,-0.02321288,0.005497787,-0.08144084364175797,0.032654352486133575,-1.4210156202316284,1015.6477,
2021.01.16 15:50:09,31.0,24.0,30.599998,1.9799999,-31.08,-0.11252748,0.62009823,9.811439,0.013439035,-0.015271631,0.032986723,-0.06311347335577011,0.01146850734949112,-1.4406458139419556,1015.6477,
2021.01.16 15:50:09,31.0,24.0,30.779999,2.28,-31.26,-0.04309563,0.62249243,10.172963,-0.065973446,0.03726278,0.062308256,-0.0611141212284565,0.004236265551298857,-1.4348281621932983,1015.6477,
2021.01.16 15:50:09,31.0,24.0,30.779999,2.46,-31.199999,-0.15562311,0.6631939,9.471462,0.029321533,-0.008552114,0.014660766,-0.06989672034978867,0.01642925851047039,-1.4177554845809937,1015.6477,
2021.01.16 15:50:09,31.0,24.0,30.539999,2.76,-31.32,-0.17238252,0.6488287,9.435549,0.05009095,-0.023823744,0.0,-0.06864478439092636,0.018267441540956497,-1.4074058532714844,1015.6343,
2021.01.16 15:50:09,31.0,24.0,30.96,2.34,-31.38,-0.10055647,0.6440403,9.7563715,0.009162978,0.008552114,0.014049901,-0.06591314822435379,0.010306384414434433,-1.427419662475586,1015.6343,
2021.01.16 15:50:09,31.0,24.0,30.96,1.8,-31.5,-0.18195933,0.63206923,9.631873,-0.0018325958,0.002443461,0.013439035,-0.06551706790924072,0.018889129161834717,-1.4431531429290771,1015.6343,
2021.01.16 15:50:09,31.0,24.0,30.84,1.62,-32.1,-0.12689269,0.6703765,9.653421,0.010995574,0.0036651916,-0.008552114,-0.06932716071605682,0.013144084252417088,-1.4443154335021973,1015.6343,
2021.01.16 15:50:09,31.0,24.0,31.38,1.26,-32.46,-0.28491,0.7685388,9.655815,-0.002443461,-0.009162978,-0.002443461,-0.07939150929450989,0.029498010873794556,-1.4431551694869995,1015.6321,
2021.01.16 15:50:09,31.0,24.0,31.439999,1.3199999,-32.34,-0.16280572,0.6727707,9.7324295,0.0067195175,0.017715093,-0.009162978,-0.0690072774887085,0.01672660931944847,-1.4553461074829102,1015.6321,
2021.01.16 15:50:09,31.0,24.0,31.5,1.3199999,-32.1,-0.17956513,0.61052144,9.588778,-0.008552114,-0.0030543262,0.017104227,-0.06357346475124359,0.018724404275417328,-1.4613807201385498,1015.6321,
2021.01.16 15:50:10,31.0,24.0,31.8,0.9,-31.679998,-0.18435353,0.7015011,9.576807,0.005497787,0.0,6.1086525E-4,-0.07310591638088226,0.019247623160481453,-1.4667682647705078,1015.6321,
2021.01.16 15:50:10,31.0,24.0,30.9,1.14,-31.8,-0.16280572,0.7015011,9.706094,-0.015882496,0.005497787,-0.0030543262,-0.07213873416185379,0.016771983355283737,-1.4571309089660645,1015.63965,
2021.01.16 15:50:10,31.0,24.0,31.32,1.3199999,-31.5,-0.23463176,0.6727707,9.866506,-0.018325957,0.014660766,-0.0018325958,-0.06806275993585587,0.023776153102517128,-1.456472396850586,1015.63965,
2021.01.16 15:50:10,31.0,24.0,31.019999,1.4399999,-31.8,-0.260968,0.7589619,9.483433,-0.012217305,0.004886922,-6.1086525E-4,-0.07982999831438065,0.027511361986398697,-1.4375731945037842,1015.63965,
2021.01.16 15:50:10,31.0,24.0,31.019999,1.68,-32.219997,-0.2705448,0.6775591,9.682152,0.015271631,-0.0061086523,-0.005497787,-0.06983914226293564,0.027935361489653587,-1.4392406940460205,1015.63965,
2021.01.16 15:50:10,31.0,24.0,31.5,1.5,-31.56,-0.093373865,0.6344634,9.689334,-0.025045475,6.1086525E-4,0.02565634,-0.06538423150777817,0.0096364701166749,-1.4565768241882324,1015.6343,
2021.01.16 15:50:10,31.0,24.0,31.5,1.68,-31.859999,-0.11731588,0.63206923,9.679757,-0.008552114,0.005497787,0.022602014,-0.06520070135593414,0.012119119986891747,-1.4499866962432861,1015.6343,
2021.01.16 15:50:10,31.0,24.0,31.74,1.92,-31.859999,-0.16998832,0.61052144,9.646238,-0.01160644,6.1086525E-4,0.004276057,-0.0631970465183258,0.01762041449546814,-1.4443390369415283,1015.6343,
2021.01.16 15:50:10,31.0,24.0,31.679998,2.22,-31.26,-0.24660277,0.6536171,9.634268,-0.01160644,0.0030543262,-0.01038471,-0.0677170380949974,0.02559083327651024,-1.4297144412994385,1015.6343,
2021.01.16 15:50:10,31.0,24.0,31.92,2.1599998,-31.439999,-0.25139117,0.6703765,9.646238,-0.012217305,-0.009162978,-0.017715093,-0.0693611279129982,0.02605516090989113,-1.4305001497268677,1015.6387,
2021.01.16 15:50:10,31.0,24.0,31.8,1.9799999,-31.26,-0.16998832,0.6560113,9.7803135,-0.016493361,0.0061086523,-0.01038471,-0.06696426868438721,0.01737891137599945,-1.4402248859405518,1015.6387,
2021.01.16 15:50:10,31.0,24.0,31.679998,1.8,-31.26,-0.21068975,0.61052144,9.715671,-0.017104227,-0.004276057,6.1086525E-4,-0.06274160742759705,0.02168215997517109,-1.4488332271575928,1015.6387,
2021.01.16 15:50:10,31.0,24.0,31.619999,2.04,-31.26,-0.15322891,0.5722142,9.653421,0.0030543262,0.004276057,-0.005497787,-0.059199076145887375,0.01587168127298355,-1.4456384181976318,1015.6387,
2021.01.16 15:50:10,31.0,24.0,31.199999,2.28,-31.199999,-0.19632454,0.59855044,9.569624,-0.004886922,-0.007330383,-0.008552114,-0.06245243549346924,0.02051251009106636,-1.4321868419647217,1015.6499,
2021.01.16 15:50:10,31.0,24.0,30.9,2.04,-31.8,-0.29209262,0.6344634,9.773131,0.0,0.01282817,-0.02076942,-0.06479932367801666,0.029878417029976845,-1.4329233169555664,1015.6499,
2021.01.16 15:50:10,31.0,24.0,31.019999,1.86,-31.92,-0.24660277,0.6631939,9.76116,-0.025045475,0.016493361,-0.008552114,-0.06781629472970963,0.025258302688598633,-1.436814785003662,1015.6499,
2021.01.16 15:50:10,31.0,24.0,30.84,1.62,-32.46,-0.20829555,0.62009823,9.653421,0.0,-0.002443461,-0.0061086523,-0.06413308531045914,0.021574033424258232,-1.44733726978302,1015.6499,
2021.01.16 15:50:10,31.0,24.0,31.08,1.8,-32.579998,-0.15801731,0.521936,9.67018,0.01160644,-0.0036651916,0.009162978,-0.053914256393909454,0.016339223831892014,-1.4541128873825073,1015.6443,
2021.01.16 15:50:10,31.0,24.0,31.14,2.1,-32.28,-0.17956513,0.557849,9.662998,0.004276057,0.015271631,0.0018325958,-0.05765648931264877,0.018580617383122444,-1.440873622894287,1015.6443,
2021.01.16 15:50:10,31.0,24.0,30.48,2.3999999,-32.16,-0.21308395,0.6512229,9.7563715,-0.002443461,0.0030543262,-0.012217305,-0.06663376092910767,0.021837018430233,-1.4181549549102783,1015.6443,
2021.01.16 15:50:10,31.0,24.0,30.66,2.3999999,-31.439999,-0.22505496,0.62488663,9.643845,0.0,0.0018325958,-0.009162978,-0.06468840688467026,0.02333240956068039,-1.4223859310150146,1015.6443,
2021.01.16 15:50:10,31.0,24.0,30.779999,2.1,-31.56,-0.16280572,0.5267244,9.713276,0.012217305,0.0030543262,-0.004886922,-0.05416661128401756,0.016759585589170456,-1.4447351694107056,1015.6372,
2021.01.16 15:50:10,31.0,24.0,30.779999,2.04,-31.439999,-0.21308395,0.5722142,9.648633,0.004886922,-0.002443461,0.0030543262,-0.05922142043709755,0.02208077721297741,-1.4406437873840332,1015.6372,
2021.01.16 15:50:10,31.0,24.0,31.56,2.04,-30.9,-0.2777274,0.6536171,9.720459,0.0018325958,0.007330383,-0.009773844,-0.06711301952600479,0.028563659638166428,-1.435726284980774,1015.6372,
2021.01.16 15:50:10,31.0,24.0,31.439999,1.68,-31.439999,-0.21787235,0.61052144,9.651027,0.004276057,0.005497787,-0.0030543262,-0.0631595030426979,0.02257120981812477,-1.4507688283920288,1015.6372,
2021.01.16 15:50:11,31.0,24.0,31.679998,1.68,-31.5,-0.11731588,0.58897364,9.6845455,0.0030543262,-0.017104227,0.01282817,-0.06073656678199768,0.012113128788769245,-1.4558885097503662,1015.6411,
2021.01.16 15:50:11,31.0,24.0,32.04,1.68,-31.08,-0.1436521,0.61291564,9.61272,0.007330383,0.0030543262,0.012217305,-0.06366761773824692,0.01494284812361002,-1.4546270370483398,1015.6411,
2021.01.16 15:50:11,31.0,24.0,31.439999,1.38,-32.04,-0.16759412,0.62009823,9.643845,0.004886922,-0.005497787,-0.004886922,-0.06420183181762695,0.017376603558659554,-1.4589697122573853,1015.6411,
2021.01.16 15:50:11,31.0,24.0,31.74,1.62,-31.859999,-0.21308395,0.6464345,9.665392,0.01160644,0.004276057,-0.01038471,-0.06676571816205978,0.02204250358045101,-1.449318289756775,1015.6411,
2021.01.16 15:50:11,31.0,24.0,31.5,1.68,-31.439999,-0.21547815,0.6488287,9.7324295,-0.0018325958,0.0030543262,-0.01038471,-0.06655190885066986,0.02213660441339016,-1.4476103782653809,1015.63794,
2021.01.16 15:50:11,31.0,24.0,31.32,1.56,-31.98,-0.28491,0.6751649,9.701305,-0.004886922,-0.002443461,-0.008552114,-0.06945338100194931,0.02935977280139923,-1.4450650215148926,1015.63794,
2021.01.16 15:50:11,31.0,24.0,31.32,1.68,-31.74,-0.16998832,0.59615624,9.555259,0.01038471,-0.0061086523,-0.009162978,-0.062299784272909164,0.017788151279091835,-1.4514580965042114,1015.63794,
2021.01.16 15:50:11,31.0,24.0,31.14,1.92,-31.8,-0.10534488,0.5650316,9.543288,0.013439035,-0.0067195175,0.009162978,-0.0591345876455307,0.011038186959922314,-1.44746994972229,1015.63794,
2021.01.16 15:50:11,31.0,24.0,31.56,1.4399999,-31.619999,-0.19632454,0.62488663,9.64145,-0.0030543262,-0.004276057,-0.0018325958,-0.06470862030982971,0.020359739661216736,-1.4573163986206055,1015.6377,
2021.01.16 15:50:11,31.0,24.0,31.56,1.56,-31.439999,-0.21308395,0.6655881,9.720459,-0.018325957,0.008552114,-0.015882496,-0.06834982335567474,0.021917670965194702,-1.4498753547668457,1015.6377,
2021.01.16 15:50:11,31.0,24.0,31.56,0.96,-31.56,-0.21068975,0.6512229,9.636662,-0.014660766,-0.002443461,-0.01282817,-0.06745898723602295,0.021859871223568916,-1.4696862697601318,1015.6377,
2021.01.16 15:50:11,31.0,24.0,31.74,0.84,-31.679998,-0.15083471,0.60094464,9.672575,-0.005497787,0.0,-0.0061086523,-0.06204143166542053,0.015592795796692371,-1.4803636074066162,1015.6377,
2021.01.16 15:50:11,31.0,24.0,30.96,1.26,-32.1,-0.19393034,0.6440403,9.653421,-0.005497787,0.0018325958,-0.004886922,-0.0666041448712349,0.020086584612727165,-1.4579590559005737,1015.646,
2021.01.16 15:50:11,31.0,24.0,31.08,1.3199999,-32.04,-0.17238252,0.6584055,9.674969,0.0,0.0036651916,-0.017104227,-0.0679369643330574,0.01781548745930195,-1.4556125402450562,1015.646,
2021.01.16 15:50:11,31.0,24.0,31.26,1.74,-31.5,-0.25139117,0.6703765,9.720459,0.002443461,0.01160644,-0.017715093,-0.06883354485034943,0.02585630491375923,-1.4414982795715332,1015.646,
2021.01.16 15:50:11,31.0,24.0,31.08,1.74,-31.26,-0.24181437,0.6895301,9.720459,0.012217305,0.0061086523,-0.020158553,-0.07079549878835678,0.024871718138456345,-1.4394843578338623,1015.646,
2021.01.16 15:50:11,31.0,24.0,31.199999,1.56,-31.32,-0.21308395,0.62488663,9.519346,0.016493361,-0.0030543262,-0.0061086523,-0.06553344428539276,0.022380568087100983,-1.4515631198883057,1015.64453,
2021.01.16 15:50:11,31.0,24.0,30.359999,1.5,-31.08,-0.12689269,0.5434838,9.605537,0.0067195175,0.0018325958,0.0036651916,-0.05651507154107094,0.013209600001573563,-1.461846947669983,1015.64453,
2021.01.16 15:50:11,31.0,24.0,30.539999,1.8,-31.5,-0.20829555,0.58897364,9.674969,-0.009773844,6.1086525E-4,-0.004886922,-0.06078694015741348,0.021525999531149864,-1.4458506107330322,1015.64453,
2021.01.16 15:50:11,31.0,24.0,30.779999,2.1599998,-31.38,-0.22266077,0.62728083,9.739613,-0.009162978,0.0036651916,-0.014049901,-0.06429953128099442,0.02285737730562687,-1.431410789489746,1015.64453,
2021.01.16 15:50:11,31.0,24.0,31.14,2.3999999,-30.96,-0.2705448,0.61530983,9.627085,-0.005497787,-0.01038471,-0.0067195175,-0.06380251795053482,0.028095068410038948,-1.4256125688552856,1015.64575,
2021.01.16 15:50:11,31.0,24.0,31.98,2.52,-31.26,-0.25617957,0.6440403,9.593566,0.0061086523,0.0030543262,-0.007941248,-0.0670081302523613,0.02669692412018776,-1.422102928161621,1015.64575,
2021.01.16 15:50:11,31.0,24.0,31.5,2.6399999,-30.779999,-0.11252748,0.5291186,9.698911,-0.007941248,-0.014660766,0.015271631,-0.054496750235557556,0.011601554229855537,-1.4325590133666992,1015.64575,
2021.01.16 15:50:11,31.0,24.0,31.26,1.9799999,-31.199999,-0.24899697,0.59615624,9.679757,-0.012217305,0.008552114,0.007941248,-0.061489954590797424,0.025717800483107567,-1.4420335292816162,1015.64575,
2021.01.16 15:50:11,31.0,24.0,30.96,1.8,-31.5,-0.25617957,0.6847417,9.718064,-0.014049901,-0.007330383,-0.008552114,-0.07032009959220886,0.026355069130659103,-1.4366310834884644,1015.64844,
2021.01.16 15:50:12,31.0,24.0,31.14,1.8,-31.199999,-0.18674773,0.60573304,9.672575,-0.004276057,0.0030543262,0.0012217305,-0.06253046542406082,0.019304532557725906,-1.4475098848342896,1015.64844,
2021.01.16 15:50:12,31.0,24.0,31.74,1.56,-31.26,-0.18914193,0.60094464,9.562442,-0.0036651916,-0.008552114,0.017715093,-0.06274949014186859,0.0197770893573761,-1.4570010900497437,1015.64844,
2021.01.16 15:50:12,31.0,24.0,31.74,1.92,-31.26,-0.14604631,0.5386954,9.737218,-0.004276057,-0.0061086523,0.007330383,-0.0552607960999012,0.014997648075222969,-1.4539653062820435,1015.64844,
2021.01.16 15:50:12,31.0,24.0,32.04,1.74,-31.019999,-0.21068975,0.62249243,9.643845,-0.016493361,0.010995574,0.007330383,-0.06444340944290161,0.021843595430254936,-1.4508627653121948,1015.64844,
2021.01.16 15:50:12,31.0,24.0,31.679998,1.62,-31.14,-0.30166942,0.6464345,9.639056,-0.0018325958,-0.01160644,-0.015271631,-0.06693114340305328,0.03128635883331299,-1.4487515687942505,1015.64844,
2021.01.16 15:50:12,31.0,24.0,31.38,1.9799999,-31.56,-0.22266077,0.61770403,9.713276,-0.0030543262,0.018936822,-0.010995574,-0.06349163502454758,0.02291933074593544,-1.4402618408203125,1015.64844,
2021.01.16 15:50:12,31.0,24.0,31.32,1.26,-31.199999,-0.16998832,0.5674258,9.651027,-0.007941248,-0.02565634,0.009773844,-0.05871765315532684,0.017611674964427948,-1.4697028398513794,1015.64844,
2021.01.16 15:50:12,31.0,24.0,30.66,1.4399999,-31.74,-0.12210429,0.62009823,9.703699,0.0030543262,0.004276057,0.007330383,-0.06381147354841232,0.012582608498632908,-1.456109642982483,1015.645,
2021.01.16 15:50:12,31.0,24.0,30.66,1.74,-32.04,-0.2633622,0.62249243,9.655815,6.1086525E-4,-0.007330383,-0.005497787,-0.06435517966747284,0.027268223464488983,-1.4422098398208618,1015.645,
2021.01.16 15:50:12,31.0,24.0,30.84,1.62,-31.679998,-0.19153613,0.5746084,9.720459,0.002443461,-0.0018325958,-0.009773844,-0.05903315544128418,0.01970188319683075,-1.4547443389892578,1015.645,
2021.01.16 15:50:12,31.0,24.0,30.72,2.34,-31.8,-0.19871874,0.59136784,9.595961,0.007330383,0.0061086523,-0.0012217305,-0.06153574958443642,0.02070562355220318,-1.4277161359786987,1015.645,
2021.01.16 15:50:12,31.0,24.0,31.14,2.46,-31.679998,-0.20111294,0.6488287,9.65821,0.014049901,-0.002443461,-0.012217305,-0.06706370413303375,0.020819993689656258,-1.4203219413757324,1015.64355,
2021.01.16 15:50:12,31.0,24.0,31.14,2.3999999,-31.5,-0.22744916,0.58657944,9.7324295,6.1086525E-4,0.0030543262,-0.005497787,-0.0601813942193985,0.023365981876850128,-1.4291815757751465,1015.64355,
2021.01.16 15:50:12,31.0,24.0,30.9,2.58,-31.8,-0.22266077,0.5722142,9.610326,0.002443461,0.0,-0.005497787,-0.059455472975969315,0.023164764046669006,-1.4224330186843872,1015.64355,
2021.01.16 15:50:12,31.0,24.0,31.32,2.46,-31.619999,-0.18674773,0.62249243,9.65821,0.013439035,0.0067195175,-0.007941248,-0.06435113400220871,0.019333235919475555,-1.4244105815887451,1015.64355,
2021.01.16 15:50:12,31.0,24.0,31.38,2.34,-31.74,-0.19632454,0.6344634,9.655815,0.0012217305,-0.0018325958,-0.0061086523,-0.06560006737709045,0.020329458639025688,-1.4267551898956299,1015.65283,
2021.01.16 15:50:12,31.0,24.0,31.199999,1.92,-31.5,-0.19393034,0.60333884,9.715671,0.008552114,0.0030543262,-0.0030543262,-0.0620075948536396,0.019957920536398888,-1.4436768293380737,1015.65283,
2021.01.16 15:50:12,31.0,24.0,31.32,2.1,-31.08,-0.22744916,0.59136784,9.636662,0.007941248,-0.004276057,-0.0036651916,-0.06127258762717247,0.02359810285270214,-1.4393088817596436,1015.65283,
2021.01.16 15:50:12,31.0,24.0,31.019999,2.28,-31.5,-0.21787235,0.58657944,9.610326,0.009773844,-0.0030543262,-0.009773844,-0.06094512343406677,0.022666770964860916,-1.4318640232086182,1015.65283,
2021.01.16 15:50:12,31.0,24.0,30.84,2.3999999,-31.32,-0.19393034,0.60333884,9.655815,0.004276057,-0.004276057,-0.004886922,-0.062390826642513275,0.02008160576224327,-1.4265841245651245,1015.64404,
2021.01.16 15:50:12,31.0,24.0,31.14,2.7,-31.439999,-0.19153613,0.61052144,9.706094,-0.0030543262,0.0,-0.0012217305,-0.06280588358640671,0.019731035456061363,-1.417770266532898,1015.64404,
2021.01.16 15:50:12,31.0,24.0,31.26,2.52,-31.74,-0.1412579,0.58418524,9.588778,0.0030543262,0.0,-6.1086525E-4,-0.06084204837679863,0.014730519615113735,-1.4265248775482178,1015.64404,
2021.01.16 15:50:12,31.0,24.0,31.14,2.3999999,-31.56,-0.16998832,0.56982,9.61272,0.0036651916,-0.015882496,0.0061086523,-0.05919918790459633,0.017681844532489777,-1.4312347173690796,1015.64404,
2021.01.16 15:50:12,31.0,24.0,31.26,2.46,-31.26,-0.24420857,0.6703765,9.624691,0.0012217305,-6.1086525E-4,-0.002443461,-0.06951712816953659,0.02536769211292267,-1.4183363914489746,1015.64453,
2021.01.16 15:50:12,31.0,24.0,31.26,2.22,-31.5,-0.17717093,0.581791,9.706094,-0.004276057,-0.005497787,0.0012217305,-0.05985921248793602,0.01825154945254326,-1.4368479251861572,1015.64453,
2021.01.16 15:50:13,31.0,24.0,31.26,2.28,-31.32,-0.16759412,0.61530983,9.586384,-0.008552114,-0.007330383,0.017104227,-0.0640881210565567,0.01748073473572731,-1.431164264678955,1015.64453,
2021.01.16 15:50:13,31.0,24.0,31.56,2.22,-31.38,-0.19153613,0.61530983,9.672575,-0.0036651916,-0.014049901,0.007941248,-0.06351584196090698,0.01979939080774784,-1.4343639612197876,1015.64453,
2021.01.16 15:50:13,31.0,24.0,31.38,2.34,-32.04,-0.1436521,0.60094464,9.753978,-0.01038471,-0.0018325958,0.008552114,-0.06152578070759773,0.01472647488117218,-1.4314736127853394,1015.6477,
2021.01.16 15:50:13,31.0,24.0,31.08,2.76,-32.219997,-0.17956513,0.59376204,9.636662,-0.0018325958,0.009773844,0.007941248,-0.06152646616101265,0.018631383776664734,-1.4154936075210571,1015.6477,
2021.01.16 15:50:13,31.0,24.0,31.14,2.58,-32.1,-0.1388637,0.63206923,9.622296,0.004276057,-0.010995574,0.0036651916,-0.06558693945407867,0.014430449344217777,-1.4185130596160889,1015.6477,
2021.01.16 15:50:13,31.0,24.0,31.199999,1.9799999,-31.98,-0.20350714,0.58418524,9.679757,0.0030543262,-0.0012217305,0.0018325958,-0.06026482954621315,0.02102089487016201,-1.4423636198043823,1015.6477,
2021.01.16 15:50:13,31.0,24.0,31.26,1.86,-31.32,-0.18195933,0.63206923,9.617508,-0.0018325958,0.009773844,0.005497787,-0.06561460345983505,0.01891733519732952,-1.4427427053451538,1015.6455,
2021.01.16 15:50:13,31.0,24.0,31.56,1.5,-31.14,-0.15562311,0.61052144,9.627085,0.0061086523,-0.014049901,0.0018325958,-0.06332399696111679,0.016163725405931473,-1.4585703611373901,1015.6455,
2021.01.16 15:50:13,31.0,24.0,31.199999,1.5,-31.5,-0.16280572,0.59855044,9.694122,-0.007330383,0.009162978,0.009773844,-0.061656687408685684,0.016792692244052887,-1.4581196308135986,1015.6455,
2021.01.16 15:50:13,31.0,24.0,31.14,1.8,-31.439999,-0.17717093,0.59136784,9.569624,-0.01038471,-0.0030543262,0.0030543262,-0.06170731782913208,0.01851177029311657,-1.4480030536651611,1015.6455,
2021.01.16 15:50:13,31.0,24.0,31.14,1.5,-31.619999,-0.20350714,0.5793968,9.639056,-0.0018325958,-0.009773844,0.0018325958,-0.060023706406354904,0.021109629422426224,-1.458581566810608,1015.6406,
2021.01.16 15:50:13,31.0,24.0,31.14,1.38,-31.679998,-0.17238252,0.60573304,9.648633,-0.019547688,-0.025045475,0.0030543262,-0.06268689781427383,0.017864102497696877,-1.4601433277130127,1015.6406,
2021.01.16 15:50:13,31.0,24.0,31.679998,1.1999999,-31.38,-0.1388637,0.6560113,9.710882,-0.016493361,0.0018325958,0.0061086523,-0.06744488328695297,0.014298827387392521,-1.4641703367233276,1015.6406,
2021.01.16 15:50:13,31.0,24.0,31.679998,1.56,-31.56,-0.14604631,0.51714754,9.653421,-0.01282817,-0.0061086523,0.0067195175,-0.053514156490564346,0.015127815306186676,-1.4663249254226685,1015.6406,
2021.01.16 15:50:13,31.0,24.0,31.859999,1.1999999,-31.32,-0.11971009,0.5506664,9.555259,-0.0012217305,0.0,0.0012217305,-0.057561490684747696,0.012527533806860447,-1.4750263690948486,1015.6328,
2021.01.16 15:50:13,31.0,24.0,31.92,1.38,-31.619999,-0.25378537,0.6512229,9.639056,-0.004886922,0.007941248,-0.014049901,-0.06743504106998444,0.026322780176997185,-1.456629753112793,1015.6328,
2021.01.16 15:50:13,31.0,24.0,31.8,1.38,-31.8,-0.18195933,0.61530983,9.782708,-0.014049901,0.013439035,-0.004886922,-0.06280411779880524,0.018597953021526337,-1.4619472026824951,1015.6328,
2021.01.16 15:50:13,31.0,24.0,32.1,0.65999997,-31.5,-0.1604115,0.5363012,9.627085,-0.0018325958,0.014660766,0.007330383,-0.05564230680465698,0.01666097901761532,-1.4936532974243164,1015.6328,
2021.01.16 15:50:13,31.0,24.0,31.8,1.26,-31.8,-0.17956513,0.545878,9.593566,0.013439035,-0.004276057,0.002443461,-0.05682920664548874,0.018715061247348785,-1.4718348979949951,1015.63086,
2021.01.16 15:50:13,31.0,24.0,31.38,1.14,-31.32,-0.23223756,0.60333884,9.574412,-0.0012217305,0.015882496,-0.01160644,-0.06291408836841583,0.024251310154795647,-1.4681190252304077,1015.63086,
2021.01.16 15:50:13,31.0,24.0,31.32,1.14,-31.32,-0.17717093,0.5746084,9.797073,-0.012217305,0.014660766,6.1086525E-4,-0.05857435613870621,0.01808209717273712,-1.4733970165252686,1015.63086,
2021.01.16 15:50:13,31.0,24.0,30.72,1.68,-31.38,-0.21068975,0.61530983,9.68694,-0.0030543262,0.015882496,-0.004886922,-0.06341934204101562,0.021746447309851646,-1.447967767715454,1015.63086,
2021.01.16 15:50:13,31.0,24.0,31.14,1.74,-31.439999,-0.16759412,0.5674258,9.636662,0.0030543262,0.0067195175,6.1086525E-4,-0.058805208653211594,0.017389552667737007,-1.4531184434890747,1015.6316,
2021.01.16 15:50:13,31.0,24.0,31.38,2.04,-31.56,-0.18914193,0.5602432,9.706094,0.005497787,0.008552114,-0.0018325958,-0.057645875960588455,0.01948445849120617,-1.4450045824050903,1015.6316,
2021.01.16 15:50:13,31.0,24.0,31.38,1.62,-31.199999,-0.17238252,0.5793968,9.713276,-0.0061086523,0.012217305,-0.0036651916,-0.05957002937793732,0.017745241522789,-1.4574841260910034,1015.6316,
2021.01.16 15:50:14,31.0,24.0,31.619999,1.0799999,-30.96,-0.18435353,0.5770026,9.636662,0.0036651916,0.0030543262,-0.004276057,-0.05979346111416817,0.01912810280919075,-1.475541353225708,1015.6316,
2021.01.16 15:50:14,31.0,24.0,31.74,1.26,-30.66,-0.19871874,0.545878,9.617508,0.012217305,0.0012217305,-0.01038471,-0.05668587237596512,0.020659247413277626,-1.4736170768737793,1015.6416,
2021.01.16 15:50:14,31.0,24.0,31.679998,0.65999997,-30.0,-0.22026655,0.61291564,9.706094,0.002443461,0.007330383,-0.0030543262,-0.06304758042097092,0.022689741104841232,-1.4873006343841553,1015.6416,
2021.01.16 15:50:14,31.0,24.0,31.56,1.0799999,-30.3,-0.23942018,0.59855044,9.718064,-0.0036651916,-0.0030543262,-0.007330383,-0.061495210975408554,0.024631628766655922,-1.4741216897964478,1015.6416,
2021.01.16 15:50:14,31.0,24.0,31.56,1.92,-30.66,-0.15322891,0.5315128,9.667787,-0.0012217305,6.1086525E-4,-0.002443461,-0.05491553992033005,0.015848103910684586,-1.4545798301696777,1015.6416,
2021.01.16 15:50:14,31.0,24.0,31.199999,1.8,-30.96,-0.16998832,0.5267244,9.610326,0.0012217305,-0.0036651916,0.007330383,-0.05474484711885452,0.01768624596297741,-1.4564019441604614,1015.6467,
2021.01.16 15:50:14,31.0,24.0,31.5,1.9799999,-31.5,-0.22984336,0.61052144,9.715671,-0.0061086523,0.0030543262,-0.01038471,-0.0627388134598732,0.023652561008930206,-1.4415138959884644,1015.6467,
2021.01.16 15:50:14,31.0,24.0,31.439999,2.1,-31.679998,-0.22984336,0.5746084,9.751583,-0.012217305,0.002443461,-0.01160644,-0.05884026363492012,0.023565487936139107,-1.441092610359192,1015.6467,
2021.01.16 15:50:14,31.0,24.0,31.74,2.04,-31.8,-0.15322891,0.5410896,9.622296,0.0036651916,0.004886922,-0.0018325958,-0.0561666302382946,0.015923013910651207,-1.4481321573257446,1015.6467,
2021.01.16 15:50:14,31.0,24.0,31.56,1.9799999,-31.439999,-0.18435353,0.60094464,9.715671,0.019547688,-0.014049901,0.0,-0.06176334246993065,0.01897258870303631,-1.4437800645828247,1015.6323,
2021.01.16 15:50:14,31.0,24.0,31.199999,2.1,-31.439999,-0.15801731,0.5722142,9.682152,0.0036651916,6.1086525E-4,-0.014049901,-0.05902338773012161,0.016319027170538902,-1.441778302192688,1015.6323,
2021.01.16 15:50:14,31.0,24.0,31.14,2.1599998,-31.56,-0.17956513,0.5530606,9.737218,0.014660766,0.054367006,-0.009162978,-0.05672803521156311,0.018439022824168205,-1.4413189888000488,1015.6323,
2021.01.16 15:50:14,31.0,24.0,30.84,2.1599998,-31.8,-0.29448682,0.6799533,9.904813,0.014660766,0.016493361,-0.004276057,-0.06851106882095337,0.02972293272614479,-1.4248054027557373,1015.6323,
2021.01.16 15:50:14,31.0,24.0,31.199999,1.9799999,-32.219997,-0.33518824,0.62728083,9.583989,0.015271631,-0.03176499,-0.015271631,-0.06531786918640137,0.034959521144628525,-1.4336246252059937,1015.62964,
2021.01.16 15:50:14,31.0,24.0,31.679998,2.1599998,-32.34,-0.22984336,0.5793968,9.648633,0.0421497,0.0036651916,0.0061086523,-0.059960633516311646,0.02381683513522148,-1.4376524686813354,1015.62964,
2021.01.16 15:50:14,31.0,24.0,31.859999,1.9799999,-31.619999,-0.21068975,0.60333884,9.639056,0.019547688,-0.017715093,0.03481932,-0.06249670311808586,0.021854445338249207,-1.4433197975158691,1015.62964,
2021.01.16 15:50:14,31.0,24.0,31.859999,1.68,-31.5,-0.076614454,0.56982,9.65821,0.02076942,-0.015882496,0.021991149,-0.05892835184931755,0.007932406850159168,-1.4590469598770142,1015.62964,
2021.01.16 15:50:14,31.0,24.0,31.439999,2.1,-31.619999,-0.33039984,0.7422025,9.746795,0.017715093,-0.06536258,0.014049901,-0.0759582370519638,0.03388533368706703,-1.421252965927124,1015.6304,
2021.01.16 15:50:14,31.0,24.0,31.32,2.04,-31.5,-0.11971009,0.61530983,9.67018,0.0421497,-0.03481932,0.04153884,-0.06353908777236938,0.012378670275211334,-1.4402533769607544,1015.6304,
2021.01.16 15:50:14,31.0,24.0,31.26,1.8,-32.219997,-0.10534488,0.7206547,9.552865,0.02321288,-0.06719518,0.04642576,-0.07529141753911972,0.011027121916413307,-1.4343074560165405,1015.6304,
2021.01.16 15:50:14,31.0,24.0,31.199999,1.38,-32.16,0.055066638,0.6655881,9.67018,0.039095376,-0.021380283,0.050701816,-0.06871943175792694,-0.0056944177486002445,-1.4574384689331055,1015.6304,
2021.01.16 15:50:14,31.0,24.0,31.679998,1.02,-31.859999,0.0023942017,0.641646,9.648633,0.007941248,-0.020158553,0.037873644,-0.06640346348285675,-2.4813893833197653E-4,-1.472299575805664,1015.6343,
2021.01.16 15:50:14,31.0,24.0,31.5,1.0799999,-32.16,-0.090979666,0.6607997,9.746795,0.021380283,-0.014660766,0.014049901,-0.06769008934497833,0.009334045462310314,-1.4662832021713257,1015.6343,
2021.01.16 15:50:14,31.0,24.0,31.619999,1.1999999,-31.98,-0.11252748,0.6919243,10.031705,0.021991149,-0.018325957,-6.1086525E-4,-0.06886035948991776,0.011216714046895504,-1.4617643356323242,1015.6343,
2021.01.16 15:50:14,31.0,24.0,31.74,1.5,-32.1,0.2633622,0.9552865,8.348581,0.13194689,-0.043982297,-0.005497787,-0.11387335509061813,-0.03153528645634651,-1.418569564819336,1015.6343,
2021.01.16 15:50:15,31.0,24.0,31.56,1.38,-32.399998,-0.11731588,0.79248077,10.055647,0.06352998,0.09101892,-0.022602014,-0.07864163815975189,0.011666136793792248,-1.4447880983352661,1015.6301,
2021.01.16 15:50:15,31.0,24.0,31.439999,0.84,-32.219997,0.08140286,0.7781156,10.04607,-0.028099801,-0.0580322,0.016493361,-0.07729785889387131,-0.00810277834534645,-1.4668883085250854,1015.6301,
2021.01.16 15:50:15,31.0,24.0,30.9,0.84,-31.92,0.045489833,0.7445967,9.088389,0.03970624,-0.092240654,-0.015271631,-0.08174475282430649,-0.00500522693619132,-1.460779070854187,1015.6301,
