Time,X-cord,Y-cord,Mag_x,Mag_y,Mag_z,Acc_x,Acc_y,Acc_z,Gyro_x,Gyro_y,Gyro_z,Orn_x,Orn_y,Orn_z,Pressure,
2021.01.16 15:49:06,27.0,24.0,29.099998,2.8799999,-34.92,-0.1436521,1.2521675,8.966286,0.27916542,-0.14966199,0.050701816,-0.13873788714408875,0.01601998880505562,-1.30576491355896,1015.646,
2021.01.16 15:49:06,27.0,24.0,28.98,2.52,-34.98,-0.39025488,1.3263878,8.619126,0.18325958,0.026267206,-0.036651913,-0.15253722667694092,0.045246873050928116,-1.2864238023757935,1015.6499,
2021.01.16 15:49:06,27.0,24.0,29.039999,2.46,-35.28,-0.18914193,1.2856863,9.481039,-0.070249505,-0.028099801,0.064751714,-0.134757399559021,0.01994684711098671,-1.3201184272766113,1015.6499,
2021.01.16 15:49:06,27.0,24.0,29.22,1.8,-35.16,-0.16759412,1.328782,9.864111,-0.111177474,0.05375614,0.06414085,-0.13388359546661377,0.016988657414913177,-1.346038579940796,1015.6499,
2021.01.16 15:49:06,27.0,24.0,29.34,1.68,-34.86,-0.009576807,1.1899183,10.280702,-0.087964594,0.10629055,0.07391469,-0.11523012071847916,9.31532122194767E-4,-1.3793613910675049,1015.6499,
2021.01.16 15:49:06,27.0,24.0,29.46,2.34,-35.16,-0.29927522,1.2401965,9.866506,0.03726278,0.099571034,0.009773844,-0.12498495727777481,0.030323144048452377,-1.335157871246338,1015.6467,
2021.01.16 15:49:06,27.0,24.0,29.58,2.76,-35.04,-0.35913026,1.2976574,9.325416,0.07391469,0.08124508,0.021380283,-0.13816377520561218,0.03849188983440399,-1.3039101362228394,1015.6467,
2021.01.16 15:49:06,27.0,24.0,29.939999,3.12,-34.92,-0.33518824,1.2186487,9.291897,0.01282817,0.103847094,0.050701816,-0.1303236484527588,0.03605754300951958,-1.3061015605926514,1015.6467,
2021.01.16 15:49:06,27.0,24.0,29.64,3.06,-34.8,-0.30885202,1.1994951,9.667787,-0.05009095,0.1020145,0.06291912,-0.1233782023191452,0.03193564713001251,-1.3157669305801392,1015.6467,
2021.01.16 15:49:06,27.0,24.0,29.82,2.52,-34.32,-0.088585466,1.1779473,9.399636,-0.010995574,0.032375857,0.061086524,-0.12466299533843994,0.009424070827662945,-1.3441274166107178,1015.65454,
2021.01.16 15:49:06,27.0,24.0,29.82,1.68,-34.2,-0.08379706,1.2856863,9.303867,-0.032986723,0.0036651916,0.014660766,-0.13731320202350616,0.009006447158753872,-1.3578120470046997,1015.65454,
2021.01.16 15:49:06,27.0,24.0,29.64,1.26,-34.26,-0.0047884034,1.3431472,9.844957,-0.0421497,-0.028710667,0.015271631,-0.13559280335903168,4.8638126463629305E-4,-1.3747999668121338,1015.65454,
2021.01.16 15:49:06,27.0,24.0,29.58,1.14,-34.44,-0.32561144,1.2761095,9.428367,0.031154128,0.0421497,-0.019547688,-0.13445118069648743,0.03452157601714134,-1.3664418458938599,1015.65454,
2021.01.16 15:49:06,27.0,24.0,29.34,1.14,-34.2,-0.29448682,1.2090719,9.610326,0.056199603,-0.028710667,0.03481932,-0.12509402632713318,0.030633166432380676,-1.378420114517212,1015.65845,
2021.01.16 15:49:06,27.0,24.0,29.4,1.3199999,-34.14,-0.36152446,1.2473791,9.615114,0.065973446,0.039095376,0.004886922,-0.12892045080661774,0.037581898272037506,-1.3659573793411255,1015.65845,
2021.01.16 15:49:06,27.0,24.0,29.58,1.4399999,-34.079998,-0.25857377,1.30484,9.753978,0.07880162,-0.0012217305,0.0036651916,-0.13293947279453278,0.026503365486860275,-1.3629058599472046,1015.65845,
2021.01.16 15:49:06,27.0,24.0,30.179998,0.96,-33.78,-0.2825158,1.2641385,9.689334,0.06963864,-0.004886922,-0.021380283,-0.12967972457408905,0.029149143025279045,-1.3867597579956055,1015.65845,
2021.01.16 15:49:07,27.0,24.0,30.359999,0.78,-33.84,-0.33279404,1.2425907,9.799467,0.08124508,0.03604105,-0.040927973,-0.12605683505535126,0.03394737467169762,-1.3960074186325073,1015.63574,
2021.01.16 15:49:07,27.0,24.0,30.48,0.78,-33.96,-0.4381389,1.3144168,9.591172,0.08002335,-0.014660766,-0.044593163,-0.13605590164661407,0.04564974084496498,-1.38062584400177,1015.63574,
2021.01.16 15:49:07,27.0,24.0,29.88,0.53999996,-33.719997,-0.50517654,1.3694834,9.303867,0.09773844,-0.0061086523,-0.03848451,-0.14593368768692017,0.05424421280622482,-1.3711875677108765,1015.63574,
2021.01.16 15:49:07,27.0,24.0,29.64,0.48,-34.079998,-0.48362875,1.3814543,9.490616,0.100792766,0.043982297,-0.013439035,-0.14436015486717224,0.05091458559036255,-1.37288498878479,1015.63574,
2021.01.16 15:49:07,27.0,24.0,29.82,0.17999999,-34.38,-0.557849,1.4197617,9.7324295,0.01038471,-0.007941248,-0.015882496,-0.14462359249591827,0.057255927473306656,-1.379979133605957,1015.65186,
2021.01.16 15:49:07,27.0,24.0,29.82,0.0,-34.44,-0.39743748,1.4437037,9.622296,0.04337143,-0.031154128,0.004276057,-0.14880146086215973,0.041280347853899,-1.3866766691207886,1015.65186,
2021.01.16 15:49:07,27.0,24.0,30.48,0.29999998,-34.2,-0.4165911,1.352724,9.40203,0.029932396,0.0030543262,-0.0030543262,-0.14275695383548737,0.04427967220544815,-1.3879765272140503,1015.65186,
2021.01.16 15:49:07,27.0,24.0,30.599998,0.17999999,-34.2,-0.272939,1.283292,9.615114,-0.004276057,0.002443461,-0.0036651916,-0.13262920081615448,0.02837883122265339,-1.4096633195877075,1015.65186,
2021.01.16 15:49:07,27.0,24.0,30.42,0.65999997,-34.38,-0.4165911,1.4197617,9.569624,0.0036651916,0.032375857,-0.047036625,-0.14714954793453217,0.04350518435239792,-1.3699543476104736,1015.65405,
2021.01.16 15:49:07,27.0,24.0,30.42,0.71999997,-34.559998,-0.47884035,1.484405,9.634268,-0.02076942,0.0061086523,-0.043982297,-0.15268786251544952,0.04966092109680176,-1.3580920696258545,1015.65405,
2021.01.16 15:49:07,27.0,24.0,30.0,0.9,-34.8,-0.45729253,1.3862427,9.734824,-0.008552114,0.039095376,-0.035430185,-0.1412956863641739,0.046940408647060394,-1.3626391887664795,1015.65405,
2021.01.16 15:49:07,27.0,24.0,30.06,1.02,-34.44,-0.51235914,1.42455,9.7324295,0.014660766,0.017715093,-0.03970624,-0.14514122903347015,0.05259597674012184,-1.3540312051773071,1015.65405,
2021.01.16 15:49:07,27.0,24.0,30.119999,1.02,-34.26,-0.5363012,1.508347,9.555259,0.014660766,0.026267206,-0.03726278,-0.15632125735282898,0.056067463010549545,-1.3406634330749512,1015.5989,
2021.01.16 15:49:07,27.0,24.0,30.3,1.0799999,-34.079998,-0.5315128,1.4556746,9.643845,0.0,0.02321288,0.0036651916,-0.14958882331848145,0.05505850166082382,-1.3493965864181519,1015.5989,
2021.01.16 15:49:07,27.0,24.0,30.48,0.71999997,-34.02,-0.41180268,1.42455,9.734824,-6.1086525E-4,0.029932396,-0.005497787,-0.14517612755298615,0.042276810854673386,-1.3729711771011353,1015.5989,
2021.01.16 15:49:07,27.0,24.0,30.119999,0.59999996,-34.32,-0.50996494,1.3982137,9.6845455,0.017104227,0.015271631,-0.015271631,-0.14318931102752686,0.05260901525616646,-1.3715019226074219,1015.5989,
2021.01.16 15:49:07,27.0,24.0,30.06,0.59999996,-34.26,-0.60094464,1.4628572,9.586384,0.015882496,-0.0012217305,0.0,-0.1511370688676834,0.06260538846254349,-1.3578166961669922,1015.6279,
2021.01.16 15:49:07,27.0,24.0,30.06,0.42,-33.66,-0.6536171,1.5059528,9.660604,0.009773844,0.0018325958,0.026267206,-0.1542942374944687,0.06755504012107849,-1.361491084098816,1015.6279,
2021.01.16 15:49:07,27.0,24.0,30.06,0.42,-33.78,-0.58418524,1.5394717,9.7563715,0.030543262,0.034208454,0.036651913,-0.15622581541538239,0.05980589985847473,-1.3616290092468262,1015.6279,
2021.01.16 15:49:07,27.0,24.0,30.359999,0.78,-33.6,-0.90261406,1.520318,9.665392,0.056199603,0.021380283,0.06658431,-0.1553516387939453,0.09311612695455551,-1.3394877910614014,1015.6279,
2021.01.16 15:49:07,27.0,24.0,30.359999,0.71999997,-33.66,-0.5674258,1.5705963,9.485827,0.03726278,-0.007941248,0.118507855,-0.16379675269126892,0.05974707379937172,-1.3455036878585815,1015.6328,
2021.01.16 15:49:07,27.0,24.0,30.42,0.78,-34.26,-0.46447513,1.3958195,9.91439,-0.007330383,0.023823744,0.1337795,-0.13971669971942902,0.04681435599923134,-1.3740730285644531,1015.6328,
2021.01.16 15:49:07,27.0,24.0,30.9,0.48,-34.079998,-0.2825158,1.3742718,9.284714,0.045814894,-0.004276057,0.11728613,-0.14688052237033844,0.030418671667575836,-1.3854143619537354,1015.6328,
2021.01.16 15:49:07,27.0,24.0,31.26,0.29999998,-33.899998,-0.25378537,1.4556746,9.631873,0.02076942,-0.0061086523,0.058643065,-0.14994461834430695,0.026342401280999184,-1.3921340703964233,1015.6328,
2021.01.16 15:49:07,27.0,24.0,31.32,-0.12,-33.96,-0.4285621,1.5059528,9.586384,0.027488936,0.019547688,0.021380283,-0.15566645562648773,0.0446755476295948,-1.3927295207977295,1015.6355,
2021.01.16 15:49:08,27.0,24.0,31.439999,-0.29999998,-33.6,-0.46208093,1.5897499,9.682152,0.0,0.0018325958,-0.0012217305,-0.16255997121334076,0.047688838094472885,-1.3922523260116577,1015.6355,
2021.01.16 15:49:08,27.0,24.0,31.32,-0.06,-33.719997,-0.5554548,1.5131354,9.622296,0.02321288,6.1086525E-4,-0.0012217305,-0.15572068095207214,0.05766180902719498,-1.3873168230056763,1015.6355,
2021.01.16 15:49:08,27.0,24.0,30.779999,-0.29999998,-33.54,-0.49799395,1.4341269,9.617508,0.01282817,0.005497787,6.1086525E-4,-0.14783038198947906,0.05173373594880104,-1.4043993949890137,1015.6355,
2021.01.16 15:49:08,27.0,24.0,30.779999,-0.24,-33.059998,-0.5315128,1.4580688,9.3421755,0.017715093,-0.018936822,-0.005497787,-0.15457873046398163,0.056832630187273026,-1.3953757286071777,1015.6279,
2021.01.16 15:49:08,27.0,24.0,30.72,-0.12,-33.0,-0.5770026,1.4867992,9.449914,-0.014049901,-0.008552114,-0.008552114,-0.1557699739933014,0.0609833225607872,-1.3884896039962769,1015.6279,
2021.01.16 15:49:08,27.0,24.0,30.599998,-0.24,-33.0,-0.48841715,1.6041151,9.445126,-0.029321533,-0.017104227,0.0061086523,-0.16800975799560547,0.05166500806808472,-1.3811588287353516,1015.6279,
2021.01.16 15:49:08,27.0,24.0,30.359999,-0.29999998,-33.54,-0.5267244,1.553837,9.725247,-0.057421334,0.01282817,0.009773844,-0.15820641815662384,0.05410764738917351,-1.3890177011489868,1015.6279,
2021.01.16 15:49:08,27.0,24.0,30.359999,-0.17999999,-33.84,-0.47884035,1.532289,9.797073,-0.040317107,-0.007330383,0.02443461,-0.15496380627155304,0.04883699119091034,-1.3890987634658813,1015.62866,
2021.01.16 15:49:08,27.0,24.0,30.359999,-0.29999998,-33.899998,-0.4357447,1.5682021,9.677363,-0.021380283,-0.02565634,0.022602014,-0.1604921668767929,0.04499682039022446,-1.387691617012024,1015.62866,
2021.01.16 15:49:08,27.0,24.0,30.42,-0.42,-33.78,-0.5315128,1.5705963,9.751583,-0.017104227,0.004886922,-0.0012217305,-0.15945659577846527,0.05445140227675438,-1.390418529510498,1015.62866,
2021.01.16 15:49:08,27.0,24.0,30.539999,-0.42,-33.36,-0.45489833,1.5873557,9.660604,-6.1086525E-4,0.009773844,6.1086525E-4,-0.16267995536327362,0.047053225338459015,-1.3924809694290161,1015.62866,
2021.01.16 15:49:08,27.0,24.0,30.539999,-0.53999996,-33.18,-0.545878,1.5514427,9.615114,0.021991149,-0.014660766,0.0018325958,-0.15972290933132172,0.05671203136444092,-1.3974143266677856,1015.6267,
2021.01.16 15:49:08,27.0,24.0,30.539999,-0.42,-33.18,-0.5243302,1.4772224,9.65821,0.020158553,-0.0030543262,0.014049901,-0.1515539437532425,0.0542353093624115,-1.403817892074585,1015.6267,
2021.01.16 15:49:08,27.0,24.0,30.3,-0.24,-33.12,-0.29927522,1.30484,9.598354,0.007941248,-0.03176499,0.030543262,-0.13505101203918457,0.031169747933745384,-1.423294186592102,1015.6267,
2021.01.16 15:49:08,27.0,24.0,30.66,0.06,-33.3,-0.45968673,1.4772224,9.504981,0.032986723,-0.032986723,-0.009773844,-0.15400496125221252,0.0483250692486763,-1.3871732950210571,1015.6267,
2021.01.16 15:49:08,27.0,24.0,31.019999,0.0,-33.48,-0.34476504,1.5514427,9.595961,0.021380283,0.015271631,0.005497787,-0.16018803417682648,0.03591269627213478,-1.3878066539764404,1015.6262,
2021.01.16 15:49:08,27.0,24.0,30.9,0.0,-33.48,-0.39504328,1.5251064,9.557653,0.017104227,-0.0061086523,-0.0018325958,-0.1581023633480072,0.04130914807319641,-1.387476921081543,1015.6262,
2021.01.16 15:49:08,27.0,24.0,30.539999,-0.17999999,-33.96,-0.320823,1.4460979,9.682152,6.1086525E-4,0.012217305,0.004276057,-0.14818096160888672,0.03312338888645172,-1.4029147624969482,1015.6262,
2021.01.16 15:49:08,27.0,24.0,30.42,-0.35999998,-33.66,-0.40222588,1.541866,9.615114,6.1086525E-4,-0.015882496,-0.02687807,-0.1588682383298874,0.04180828854441643,-1.3944255113601685,1015.6262,
2021.01.16 15:49:08,27.0,24.0,29.939999,-0.24,-33.54,-0.38307226,1.5370775,9.65821,0.0,0.0030543262,-0.031154128,-0.1577017605304718,0.039642084389925,-1.3904372453689575,1015.604,
2021.01.16 15:49:08,27.0,24.0,30.24,-0.65999997,-33.66,-0.38067806,1.496376,9.514558,0.012217305,0.007330383,-0.03726278,-0.15587177872657776,0.03998873382806778,-1.4074939489364624,1015.604,
2021.01.16 15:49:08,27.0,24.0,30.599998,-0.78,-33.239998,-0.44771573,1.5035586,9.662998,-0.014049901,0.015882496,-0.03726278,-0.15419897437095642,0.04629989340901375,-1.415434718132019,1015.604,
2021.01.16 15:49:08,27.0,24.0,30.599998,-0.59999996,-33.3,-0.47884035,1.5753847,9.646238,-0.013439035,-0.01038471,-0.034208454,-0.16169112920761108,0.04959940165281296,-1.3993345499038696,1015.604,
2021.01.16 15:49:08,27.0,24.0,30.66,-0.65999997,-33.96,-0.45489833,1.4915876,9.586384,-0.0067195175,0.007330383,-0.020158553,-0.154185950756073,0.04741697758436203,-1.4075056314468384,1015.6196,
2021.01.16 15:49:08,27.0,24.0,30.119999,-0.12,-33.84,-0.4165911,1.5107412,9.581595,-0.014049901,0.0036651916,-0.010995574,-0.15623851120471954,0.04345089569687843,-1.3861525058746338,1015.6196,
2021.01.16 15:49:09,27.0,24.0,30.539999,0.17999999,-33.899998,-0.49081135,1.5155296,9.624691,-0.018325957,-0.002443461,-0.010995574,-0.1559808999300003,0.05095089226961136,-1.3759362697601318,1015.6196,
2021.01.16 15:49:09,27.0,24.0,30.3,0.35999998,-34.14,-0.4405331,1.4532804,9.722853,-0.027488936,-0.012217305,0.0061086523,-0.14822228252887726,0.045278072357177734,-1.3784106969833374,1015.6196,
2021.01.16 15:49:09,27.0,24.0,30.3,0.35999998,-33.42,-0.44532153,1.4700398,9.68694,-0.017104227,-0.0061086523,0.0036651916,-0.15044920146465302,0.04593898728489876,-1.3793774843215942,1015.62427,
2021.01.16 15:49:09,27.0,24.0,30.66,0.17999999,-33.54,-0.3878607,1.4772224,9.64145,-0.013439035,-0.013439035,0.0036651916,-0.15191249549388885,0.04020678251981735,-1.3872772455215454,1015.62427,
2021.01.16 15:49:09,27.0,24.0,30.3,-0.17999999,-33.42,-0.4141969,1.4556746,9.677363,-0.015271631,-0.005497787,-6.1086525E-4,-0.14916670322418213,0.04277448728680611,-1.3999354839324951,1015.62427,
2021.01.16 15:49:09,27.0,24.0,30.539999,-0.59999996,-33.42,-0.36870706,1.4293385,9.706094,-0.01038471,0.007330383,0.008552114,-0.14610719680786133,0.037968918681144714,-1.4202414751052856,1015.62427,
2021.01.16 15:49:09,27.0,24.0,30.72,-0.59999996,-33.66,-0.45729253,1.460463,9.581595,0.014049901,-0.023823744,-0.008552114,-0.15109018981456757,0.04768994823098183,-1.4109677076339722,1015.63403,
2021.01.16 15:49:09,27.0,24.0,30.359999,-0.84,-33.18,-0.48123455,1.4532804,9.603143,0.004276057,0.0030543262,-0.0061086523,-0.15000876784324646,0.05007031187415123,-1.4202091693878174,1015.63403,
2021.01.16 15:49:09,27.0,24.0,30.3,-0.35999998,-33.66,-0.4261679,1.4437037,9.646238,-0.004276057,-0.0012217305,0.009162978,-0.148419588804245,0.04415098577737808,-1.4050772190093994,1015.63403,
2021.01.16 15:49:09,27.0,24.0,30.179998,-0.06,-33.78,-0.33758244,1.4149733,9.605537,-0.0012217305,-0.007941248,0.016493361,-0.14616726338863373,0.035130105912685394,-1.3995155096054077,1015.63403,
2021.01.16 15:49:09,27.0,24.0,30.0,-0.24,-33.48,-0.33758244,1.3958195,9.667787,-0.0067195175,0.021380283,0.0,-0.14330142736434937,0.03490409255027771,-1.4094266891479492,1015.6443,
2021.01.16 15:49:09,27.0,24.0,30.0,0.29999998,-34.2,-0.45010993,1.5059528,9.512163,-0.012217305,0.016493361,-0.02321288,-0.15684284269809723,0.04728413745760918,-1.367171049118042,1015.6443,
2021.01.16 15:49:09,27.0,24.0,30.24,0.06,-33.6,-0.320823,1.4772224,9.818622,-0.026267206,0.015271631,-0.010995574,-0.14925262331962585,0.03266333043575287,-1.3941329717636108,1015.6443,
2021.01.16 15:49:09,27.0,24.0,30.599998,-0.24,-33.18,-0.47644615,1.496376,9.665392,-0.01282817,0.010995574,-0.018936822,-0.15341514348983765,0.0492541678249836,-1.3977305889129639,1015.6443,
2021.01.16 15:49:09,27.0,24.0,30.539999,-0.12,-33.239998,-0.40222588,1.4341269,9.624691,-0.012217305,0.0018325958,-0.02565634,-0.14778955280780792,0.04176674038171768,-1.4021342992782593,1015.64404,
2021.01.16 15:49:09,27.0,24.0,30.48,-0.35999998,-33.12,-0.4357447,1.4460979,9.572019,-0.0036651916,0.0036651916,-0.02565634,-0.14978884160518646,0.045491352677345276,-1.4068405628204346,1015.64404,
2021.01.16 15:49:09,27.0,24.0,30.3,-0.29999998,-33.719997,-0.45489833,1.42455,9.768343,-0.017715093,0.01160644,-0.019547688,-0.1446578949689865,0.046535007655620575,-1.4063656330108643,1015.64404,
2021.01.16 15:49:09,27.0,24.0,30.24,-0.06,-33.78,-0.47644615,1.4389153,9.627085,0.01160644,0.01282817,-0.029321533,-0.1481882631778717,0.04944983497262001,-1.3924739360809326,1015.64404,
2021.01.16 15:49:09,27.0,24.0,30.539999,0.24,-33.899998,-0.5722142,1.4652514,9.572019,0.009773844,-0.0030543262,-0.027488936,-0.15163086354732513,0.05970882996916771,-1.3757165670394897,1015.6592,
2021.01.16 15:49:09,27.0,24.0,30.72,0.29999998,-33.36,-0.5554548,1.4173675,9.586384,0.0,0.008552114,-0.007330383,-0.14654642343521118,0.05787734314799309,-1.3844103813171387,1015.6592,
2021.01.16 15:49:09,27.0,24.0,31.08,0.42,-33.36,-0.48602295,1.4053963,9.646238,-0.004276057,-0.004276057,0.0067195175,-0.14449504017829895,0.0503421425819397,-1.387654423713684,1015.6592,
2021.01.16 15:49:09,27.0,24.0,30.599998,0.48,-33.899998,-0.46208093,1.4269443,9.536105,0.007330383,-0.0036651916,-0.0012217305,-0.14836238324642181,0.0484180673956871,-1.3762564659118652,1015.6592,
2021.01.16 15:49:09,27.0,24.0,30.3,0.65999997,-33.96,-0.49081135,1.4556746,9.583989,-0.0012217305,-6.1086525E-4,0.0012217305,-0.15053971111774445,0.05116689205169678,-1.3644291162490845,1015.65796,
2021.01.16 15:49:09,27.0,24.0,30.48,0.24,-34.2,-0.34237084,1.4149733,9.696517,-0.010995574,-0.007941248,0.014660766,-0.14481417834758759,0.035293981432914734,-1.390743374824524,1015.65796,
2021.01.16 15:49:09,27.0,24.0,30.06,0.12,-33.78,-0.46447513,1.4460979,9.639056,0.01038471,0.005497787,-0.007941248,-0.14874419569969177,0.04814953729510307,-1.3851596117019653,1015.65796,
2021.01.16 15:49:10,27.0,24.0,30.599998,-0.12,-33.3,-0.5434838,1.4987702,9.691729,0.004276057,-0.015882496,-0.005497787,-0.1531919687986374,0.0560184046626091,-1.390932321548462,1015.65796,
2021.01.16 15:49:10,27.0,24.0,30.599998,-0.84,-33.54,-0.45968673,1.4748282,9.64145,0.009162978,-0.01282817,0.012217305,-0.1516212373971939,0.047642096877098083,-1.4183727502822876,1015.6636,
2021.01.16 15:49:10,27.0,24.0,30.42,-0.71999997,-33.54,-0.3878607,1.4389153,9.574412,0.02076942,-0.013439035,0.012217305,-0.1490507274866104,0.04048798978328705,-1.4188159704208374,1015.6636,
2021.01.16 15:49:10,27.0,24.0,30.539999,-0.84,-33.719997,-0.36391866,1.436521,9.586384,0.015271631,0.0018325958,0.005497787,-0.14863789081573486,0.03794381767511368,-1.4237451553344727,1015.6636,
2021.01.16 15:49:10,27.0,24.0,29.939999,-0.35999998,-33.6,-0.37349546,1.4293385,9.660604,0.009773844,-0.007941248,-0.0036651916,-0.14678165316581726,0.03864246606826782,-1.4072251319885254,1015.6636,
2021.01.16 15:49:10,27.0,24.0,29.939999,-0.24,-33.48,-0.45010993,1.4341269,9.497798,0.016493361,-0.0030543262,-0.014660766,-0.14969810843467712,0.04735554754734039,-1.3973662853240967,1015.66113,
2021.01.16 15:49:10,27.0,24.0,29.82,0.06,-33.719997,-0.4357447,1.400608,9.591172,6.1086525E-4,-0.0030543262,-0.01160644,-0.14485865831375122,0.04540063068270683,-1.3916517496109009,1015.66113,
2021.01.16 15:49:10,27.0,24.0,29.519999,0.78,-33.84,-0.46447513,1.5059528,9.598354,0.0018325958,-0.007941248,-0.028710667,-0.1554492563009262,0.0483534000813961,-1.350903868675232,1015.66113,
2021.01.16 15:49:10,27.0,24.0,30.0,0.53999996,-33.96,-0.47405192,1.5490485,9.562442,-0.0067195175,-0.0018325958,-0.015882496,-0.1604042947292328,0.04953380674123764,-1.3554037809371948,1015.66113,
2021.01.16 15:49:10,27.0,24.0,30.0,1.0799999,-33.78,-0.36391866,1.5705963,9.710882,-0.005497787,-0.004276057,-0.015271631,-0.16023659706115723,0.037457820028066635,-1.343832015991211,1015.6553,
2021.01.16 15:49:10,27.0,24.0,30.119999,1.0799999,-33.48,-0.37349546,1.5179238,9.552865,0.0018325958,-0.013439035,-0.009773844,-0.1574615240097046,0.03907783702015877,-1.348831295967102,1015.6553,
2021.01.16 15:49:10,27.0,24.0,30.3,0.9,-33.42,-0.272939,1.4173675,9.703699,0.0061086523,0.004276057,-0.01282817,-0.1449824571609497,0.028119901195168495,-1.3743703365325928,1015.6553,
2021.01.16 15:49:10,27.0,24.0,30.119999,1.14,-33.18,-0.45729253,1.4891934,9.514558,0.012217305,-0.012217305,-0.039095376,-0.15508155524730682,0.04802544787526131,-1.347546100616455,1015.6553,
2021.01.16 15:49:10,27.0,24.0,30.24,0.9,-33.36,-0.50278234,1.5011644,9.533711,0.009162978,0.002443461,-0.05009095,-0.15596304833889008,0.05268850922584534,-1.3524335622787476,1015.6504,
2021.01.16 15:49:10,27.0,24.0,30.119999,1.0799999,-33.42,-0.46208093,1.4628572,9.64145,-0.0067195175,-6.1086525E-4,-0.034208454,-0.1504073590040207,0.04788985103368759,-1.353610873222351,1015.6504,
2021.01.16 15:49:10,27.0,24.0,30.179998,0.96,-33.54,-0.4141969,1.4628572,9.514558,0.007330383,-0.0067195175,-0.02565634,-0.15241266787052155,0.04350549727678299,-1.356804370880127,1015.6504,
2021.01.16 15:49:10,27.0,24.0,30.48,0.71999997,-33.84,-0.47644615,1.5035586,9.526528,-0.0061086523,-0.009162978,-0.02443461,-0.15634511411190033,0.04997093603014946,-1.358046531677246,1015.6504,
2021.01.16 15:49:10,27.0,24.0,30.06,0.78,-34.02,-0.3854665,1.4580688,9.581595,-0.01160644,-0.0012217305,-0.01038471,-0.1508951336145401,0.040208201855421066,-1.3623907566070557,1015.64404,
2021.01.16 15:49:10,27.0,24.0,30.24,0.84,-34.26,-0.39983168,1.472434,9.586384,-0.007941248,-0.017715093,-0.02076942,-0.1522749960422516,0.04168413206934929,-1.3581995964050293,1015.64404,
2021.01.16 15:49:10,27.0,24.0,30.0,0.9,-34.32,-0.48123455,1.4939818,9.528923,-0.002443461,-0.002443461,-0.025045475,-0.1553231030702591,0.050459641963243484,-1.3469934463500977,1015.64404,
2021.01.16 15:49:10,27.0,24.0,29.16,1.0799999,-34.44,-0.38067806,1.4149733,9.605537,-0.017104227,-0.016493361,-0.007330383,-0.1461431235074997,0.039610374718904495,-1.34951651096344,1015.64404,
2021.01.16 15:49:10,27.0,24.0,29.4,0.9,-34.26,-0.47405192,1.5011644,9.514558,-0.004276057,-0.007330383,-0.017104227,-0.1562948375940323,0.049782685935497284,-1.3419300317764282,1015.646,
2021.01.16 15:49:10,27.0,24.0,29.039999,0.65999997,-34.26,-0.46926352,1.496376,9.655815,-0.021380283,-0.02076942,-0.005497787,-0.1535700410604477,0.04856085032224655,-1.3512152433395386,1015.646,
2021.01.16 15:49:10,27.0,24.0,29.16,0.48,-34.32,-0.33758244,1.4221559,9.629479,-0.009162978,-0.007941248,0.0061086523,-0.14653904736042023,0.03504283353686333,-1.3718780279159546,1015.646,
2021.01.16 15:49:10,27.0,24.0,30.179998,0.12,-34.32,-0.38067806,1.4460979,9.519346,0.0030543262,-0.014049901,-0.0061086523,-0.15064023435115814,0.039968639612197876,-1.3838095664978027,1015.646,
2021.01.16 15:49:11,27.0,24.0,30.179998,0.48,-34.32,-0.40222588,1.5179238,9.68694,-0.01038471,-0.012217305,-0.005497787,-0.15530233085155487,0.04149865359067917,-1.3658533096313477,1015.6548,
2021.01.16 15:49:11,27.0,24.0,30.179998,0.65999997,-34.5,-0.33039984,1.4389153,9.572019,0.0,-0.017715093,0.0061086523,-0.14912043511867523,0.03450355678796768,-1.3689067363739014,1015.6548,
2021.01.16 15:49:11,27.0,24.0,29.88,0.53999996,-34.5,-0.33758244,1.3910311,9.52174,0.0061086523,-0.015271631,0.0012217305,-0.1449740082025528,0.03543901443481445,-1.3753997087478638,1015.6548,
2021.01.16 15:49:11,27.0,24.0,29.4,0.53999996,-34.44,-0.34715924,1.4556746,9.545682,0.0012217305,-0.02687807,-0.008552114,-0.1512312889099121,0.03635217249393463,-1.3647271394729614,1015.6548,
2021.01.16 15:49:11,27.0,24.0,29.22,0.78,-34.5,-0.34715924,1.4700398,9.619903,-0.012217305,0.002443461,-0.007330383,-0.15154211223125458,0.03607194870710373,-1.3547755479812622,1015.6516,
2021.01.16 15:49:11,27.0,24.0,29.4,0.59999996,-34.26,-0.37588966,1.4269443,9.660604,6.1086525E-4,-0.02321288,-0.007330383,-0.1465378999710083,0.03888992220163345,-1.368263840675354,1015.6516,
2021.01.16 15:49:11,27.0,24.0,29.519999,1.0799999,-34.32,-0.31364042,1.3934253,9.572019,0.015882496,-0.0061086523,0.002443461,-0.1444808840751648,0.03275466337800026,-1.3575087785720825,1015.6516,
2021.01.16 15:49:11,27.0,24.0,29.279999,1.8,-34.32,-0.47884035,1.4532804,9.507375,0.005497787,-0.0018325958,-0.01160644,-0.15149500966072083,0.050322629511356354,-1.3157397508621216,1015.6516,
2021.01.16 15:49:11,27.0,24.0,28.92,1.68,-34.32,-0.39025488,1.4556746,9.598354,-0.0012217305,-0.0030543262,0.018936822,-0.15038944780826569,0.04063613712787628,-1.322422981262207,1015.645,
2021.01.16 15:49:11,27.0,24.0,29.099998,1.86,-34.5,-0.24660277,1.4389153,9.572019,0.004276057,6.1086525E-4,0.014049901,-0.14915917813777924,0.025757182389497757,-1.3249669075012207,1015.645,
2021.01.16 15:49:11,27.0,24.0,29.279999,1.9799999,-34.5,-0.4357447,1.3982137,9.593566,0.008552114,0.005497787,0.0036651916,-0.1445789635181427,0.045389316976070404,-1.3191947937011719,1015.645,
2021.01.16 15:49:11,27.0,24.0,29.34,1.56,-34.739998,-0.40462008,1.4820108,9.512163,0.01038471,0.0030543262,0.013439035,-0.1544216275215149,0.04251149669289589,-1.3220199346542358,1015.645,
2021.01.16 15:49:11,27.0,24.0,29.4,1.14,-34.32,-0.35673606,1.484405,9.619903,-0.0030543262,0.005497787,0.020158553,-0.15299461781978607,0.03706614300608635,-1.342883586883545,1015.6455,
2021.01.16 15:49:11,27.0,24.0,29.16,1.0799999,-34.14,-0.34955344,1.4628572,9.56723,0.005497787,0.02076942,0.023823744,-0.15162813663482666,0.03652028739452362,-1.3458813428878784,1015.6455,
2021.01.16 15:49:11,27.0,24.0,28.8,0.78,-34.02,-0.29448682,1.3718776,9.560047,0.0061086523,0.0012217305,0.021380283,-0.14246144890785217,0.03079417161643505,-1.3672351837158203,1015.6455,
2021.01.16 15:49:11,27.0,24.0,28.98,1.26,-34.2,-0.38067806,1.412579,9.464279,0.007330383,0.02076942,0.007330383,-0.14804205298423767,0.04020094498991966,-1.3407845497131348,1015.6455,
2021.01.16 15:49:11,27.0,24.0,29.22,1.9799999,-34.559998,-0.36152446,1.4700398,9.600749,6.1086525E-4,0.012217305,0.01038471,-0.15183119475841522,0.03763807564973831,-1.313299298286438,1015.6521,
2021.01.16 15:49:11,27.0,24.0,29.519999,2.04,-34.559998,-0.39264908,1.484405,9.461885,-0.0030543262,0.018936822,0.012217305,-0.15548253059387207,0.041474178433418274,-1.3078974485397339,1015.6521,
2021.01.16 15:49:11,27.0,24.0,29.76,1.74,-34.559998,-0.33039984,1.4269443,9.660604,0.0012217305,0.028099801,0.01160644,-0.14656274020671844,0.03418742120265961,-1.333288311958313,1015.6521,
2021.01.16 15:49:11,27.0,24.0,29.34,1.26,-34.26,-0.30645782,1.448492,9.528923,-0.0036651916,0.0067195175,0.0036651916,-0.1507783979177475,0.032149720937013626,-1.34340238571167,1015.6521,
2021.01.16 15:49:11,27.0,24.0,29.22,0.53999996,-34.32,-0.2825158,1.4508862,9.572019,-0.015271631,0.073303826,-0.051923547,-0.15036620199680328,0.02950618974864483,-1.3678483963012695,1015.6577,
2021.01.16 15:49:11,27.0,24.0,29.16,0.65999997,-34.2,-0.3878607,1.436521,9.399636,-0.02443461,0.053145275,-0.040927973,-0.15152691304683685,0.04123997688293457,-1.3579511642456055,1015.6577,
2021.01.16 15:49:11,27.0,24.0,29.279999,1.14,-34.32,-0.5602432,1.5155296,9.706094,-0.01038471,0.06780604,-0.032375857,-0.15463809669017792,0.05765679478645325,-1.3310000896453857,1015.6577,
2021.01.16 15:49:11,27.0,24.0,29.58,0.96,-34.2,-0.62009823,1.5035586,9.7563715,0.007330383,-0.014049901,-0.0030543262,-0.152604341506958,0.06347290426492691,-1.340160608291626,1015.6577,
2021.01.16 15:49:11,27.0,24.0,30.3,0.9,-33.78,-0.46926352,1.4628572,9.52174,0.047036625,0.0030543262,0.0,-0.15225952863693237,0.049243539571762085,-1.3562158346176147,1015.65625,
2021.01.16 15:49:12,27.0,24.0,30.0,0.78,-34.079998,-0.48123455,1.4676456,9.40203,0.019547688,-0.016493361,0.0030543262,-0.15464992821216583,0.05113948509097099,-1.352846622467041,1015.65625,
2021.01.16 15:49:12,27.0,24.0,29.939999,0.84,-33.899998,-0.48602295,1.4820108,9.41879,0.002443461,0.004886922,0.008552114,-0.15586262941360474,0.05155569687485695,-1.349812388420105,1015.65625,
2021.01.16 15:49:12,27.0,24.0,30.24,1.26,-33.899998,-0.38307226,1.4293385,9.617508,-0.0067195175,0.004886922,0.012217305,-0.14742325246334076,0.03980967774987221,-1.3526594638824463,1015.65625,
2021.01.16 15:49:12,27.0,24.0,29.939999,1.62,-34.559998,-0.46926352,1.4700398,9.572019,-0.0012217305,-0.0012217305,-0.007941248,-0.1522061973810196,0.04898529499769211,-1.325675368309021,1015.65796,
2021.01.16 15:49:12,27.0,24.0,30.48,1.3199999,-34.32,-0.4357447,1.4508862,9.552865,0.002443461,-0.021380283,0.0,-0.15057356655597687,0.04558243602514267,-1.3443070650100708,1015.65796,
2021.01.16 15:49:12,27.0,24.0,30.359999,0.71999997,-34.2,-0.51475334,1.4748282,9.423578,0.0061086523,-0.007941248,-0.012217305,-0.15501734614372253,0.05456974729895592,-1.3548938035964966,1015.65796,
2021.01.16 15:49:12,27.0,24.0,30.359999,0.42,-34.14,-0.5482722,1.5035586,9.61272,-0.02687807,-0.04337143,-0.017104227,-0.15490853786468506,0.0569743886590004,-1.364357590675354,1015.65796,
2021.01.16 15:49:12,27.0,24.0,30.06,0.17999999,-34.02,-0.36631286,1.436521,9.572019,-6.1086525E-4,-0.004886922,0.005497787,-0.14885596930980682,0.03825046867132187,-1.3853809833526611,1015.6438,
2021.01.16 15:49:12,27.0,24.0,29.76,0.48,-34.079998,-0.5315128,1.4891934,9.481039,-0.01160644,-0.021991149,-0.007330383,-0.15555746853351593,0.05600198730826378,-1.3581334352493286,1015.6438,
2021.01.16 15:49:12,27.0,24.0,29.88,0.17999999,-34.14,-0.4405331,1.4293385,9.483433,-0.018325957,-0.009773844,0.014660766,-0.14943481981754303,0.04641954228281975,-1.3799084424972534,1015.6438,
2021.01.16 15:49:12,27.0,24.0,29.88,0.17999999,-34.02,-0.4285621,1.3790601,9.583989,-0.037873644,-0.026267206,0.008552114,-0.1427704095840454,0.0446866936981678,-1.389138102531433,1015.6438,
2021.01.16 15:49:12,27.0,24.0,30.72,0.0,-33.719997,-0.39983168,1.4077905,9.545682,-0.040927973,-0.031154128,6.1086525E-4,-0.14629735052585602,0.04186166077852249,-1.398401141166687,1015.6531,
2021.01.16 15:49:12,27.0,24.0,30.42,-0.29999998,-33.42,-0.4333505,1.4580688,9.581595,-0.03726278,-0.05497787,-0.017104227,-0.15086345374584198,0.04519658535718918,-1.4017947912216187,1015.6531,
2021.01.16 15:49:12,27.0,24.0,30.0,0.24,-33.899998,-0.35673606,1.4556746,9.665392,-0.037873644,-0.052534413,-0.013439035,-0.14938323199748993,0.03689185157418251,-1.3835283517837524,1015.6531,
2021.01.16 15:49:12,27.0,24.0,29.76,0.59999996,-33.899998,-0.34715924,1.364695,9.459491,-0.013439035,-0.020158553,0.004276057,-0.143183633685112,0.0366831049323082,-1.377305507659912,1015.6531,
2021.01.16 15:49:12,27.0,24.0,29.22,1.02,-34.079998,-0.40701428,1.4053963,9.588778,-0.032375857,-0.025045475,0.0012217305,-0.1454015076160431,0.042421478778123856,-1.3536436557769775,1015.65967,
2021.01.16 15:49:12,27.0,24.0,29.82,0.96,-34.02,-0.35194764,1.3120226,9.562442,-0.028710667,-0.01282817,0.023823744,-0.13626328110694885,0.03678859770298004,-1.3731112480163574,1015.65967,
2021.01.16 15:49:12,27.0,24.0,30.3,1.02,-34.14,-0.23463176,1.2856863,9.464279,-0.04337143,-0.0421497,0.01282817,-0.13497872650623322,0.024786220863461494,-1.3794282674789429,1015.65967,
2021.01.16 15:49:12,27.0,24.0,30.24,0.35999998,-34.32,-0.2801216,1.3455414,9.662998,-0.017715093,-0.0036651916,0.009162978,-0.13829976320266724,0.028980981558561325,-1.3945329189300537,1015.65967,
2021.01.16 15:49:12,27.0,24.0,30.24,-0.24,-34.38,-0.24899697,1.2952632,9.629479,-0.026267206,-0.032375857,0.004276057,-0.13366352021694183,0.025852020829916,-1.420397400856018,1015.66016,
2021.01.16 15:49:12,27.0,24.0,30.0,0.24,-34.68,-0.24181437,1.3192052,9.564836,0.0030543262,-0.014660766,-0.017715093,-0.1370144784450531,0.025276219472289085,-1.3981616497039795,1015.66016,
2021.01.16 15:49:12,27.0,24.0,30.24,0.17999999,-34.62,-0.2657564,1.340753,9.552865,-0.01282817,0.002443461,-0.01038471,-0.13938681781291962,0.027812374755740166,-1.3981568813323975,1015.66016,
2021.01.16 15:49:12,27.0,24.0,30.24,0.59999996,-34.44,-0.2633622,1.3096284,9.6845455,0.0012217305,-0.004886922,-0.015271631,-0.13436423242092133,0.027187369763851166,-1.3912510871887207,1015.66016,
2021.01.16 15:49:12,27.0,24.0,29.939999,1.4399999,-34.8,-0.30645782,1.3215994,9.603143,0.017715093,-0.002443461,-0.02565634,-0.13669373095035553,0.031901415437459946,-1.3556640148162842,1015.65356,
2021.01.16 15:49:12,27.0,24.0,29.699999,1.1999999,-35.16,-0.32321724,1.340753,9.557653,-6.1086525E-4,0.009773844,-0.007330383,-0.13929249346256256,0.033804751932621,-1.356328010559082,1015.65356,
2021.01.16 15:49:13,27.0,24.0,29.519999,1.3199999,-34.62,-0.24181437,1.2593501,9.622296,0.0030543262,0.002443461,-0.012217305,-0.13009801506996155,0.02512534335255623,-1.3678089380264282,1015.65356,
2021.01.16 15:49:13,27.0,24.0,29.519999,1.1999999,-34.8,-0.31364042,1.3120226,9.545682,0.0061086523,0.0018325958,-0.02076942,-0.13651810586452484,0.032844968140125275,-1.3604824542999268,1015.65356,
2021.01.16 15:49:13,27.0,24.0,29.4,0.84,-34.26,-0.33997664,1.3120226,9.703699,-0.008552114,0.009773844,-0.015882496,-0.13431207835674286,0.035021450370550156,-1.3761759996414185,1015.6616,
2021.01.16 15:49:13,27.0,24.0,29.039999,1.38,-33.899998,-0.39025488,1.3359646,9.572019,0.015882496,-0.0018325958,-0.018325957,-0.13856032490730286,0.04074781760573387,-1.3498057126998901,1015.6616,
2021.01.16 15:49:13,27.0,24.0,28.74,1.68,-34.14,-0.31124622,1.2904748,9.574412,0.007941248,0.0030543262,0.009162978,-0.13390640914440155,0.03249668329954147,-1.344949722290039,1015.6616,
2021.01.16 15:49:13,27.0,24.0,28.859999,1.92,-34.32,-0.2873042,1.3072342,9.627085,-0.009773844,-0.007330383,-0.005497787,-0.13490234315395355,0.02983446791768074,-1.3367984294891357,1015.6616,
2021.01.16 15:49:13,27.0,24.0,29.16,2.22,-34.8,-0.33518824,1.2976574,9.634268,0.0018325958,0.0012217305,-0.004276057,-0.13380607962608337,0.03477722406387329,-1.3260842561721802,1015.6633,
2021.01.16 15:49:13,27.0,24.0,29.64,2.04,-34.98,-0.33518824,1.2856863,9.595961,0.004276057,-0.008552114,-0.0030543262,-0.13310861587524414,0.03491594269871712,-1.3358290195465088,1015.6633,
2021.01.16 15:49:13,27.0,24.0,29.58,1.74,-34.739998,-0.31364042,1.3096284,9.64145,-0.007330383,-0.01038471,0.0,-0.1349363476037979,0.03251895308494568,-1.3452439308166504,1015.6633,
2021.01.16 15:49:13,27.0,24.0,29.099998,1.56,-34.98,-0.2753332,1.3239936,9.653421,0.004276057,0.0036651916,0.002443461,-0.1362476497888565,0.028514094650745392,-1.3465338945388794,1015.6633,
2021.01.16 15:49:13,27.0,24.0,29.099998,1.1999999,-34.62,-0.25857377,1.3239936,9.579201,0.007330383,-0.021991149,0.0012217305,-0.1372959017753601,0.02698669768869877,-1.3597216606140137,1015.6638,
2021.01.16 15:49:13,27.0,24.0,29.039999,1.0799999,-34.2,-0.2753332,1.2976574,9.593566,0.007941248,-0.005497787,0.0,-0.1343926340341568,0.02869190275669098,-1.3681602478027344,1015.6638,
2021.01.16 15:49:13,27.0,24.0,28.859999,1.3199999,-34.8,-0.2801216,1.3311762,9.651027,0.009773844,-0.0067195175,-0.004276057,-0.13700920343399048,0.029016908258199692,-1.3525813817977905,1015.6638,
2021.01.16 15:49:13,27.0,24.0,29.4,1.1999999,-34.559998,-0.2657564,1.3599066,9.677363,0.01160644,-0.02565634,-0.008552114,-0.13955837488174438,0.02745475247502327,-1.3593010902404785,1015.6638,
2021.01.16 15:49:13,27.0,24.0,29.22,1.3199999,-34.68,-0.22026655,1.3263878,9.653421,0.02321288,-0.023823744,-0.007330383,-0.1365107148885727,0.022813500836491585,-1.3588142395019531,1015.657,
2021.01.16 15:49:13,27.0,24.0,29.22,1.3199999,-34.86,-0.21787235,1.2737153,9.483433,0.026267206,-0.02687807,-0.013439035,-0.13347575068473816,0.022969955578446388,-1.361477017402649,1015.657,
2021.01.16 15:49:13,27.0,24.0,29.039999,1.14,-34.559998,-0.2896984,1.3024458,9.555259,0.015882496,-0.0018325958,-0.02687807,-0.1354103535413742,0.030308932065963745,-1.3625702857971191,1015.657,
2021.01.16 15:49:13,27.0,24.0,28.74,1.3199999,-34.5,-0.39025488,1.3263878,9.82341,0.012217305,-0.054367006,-0.0067195175,-0.13410694897174835,0.03970614820718765,-1.3523857593536377,1015.657,
2021.01.16 15:49:13,27.0,24.0,28.92,1.74,-34.92,0.4357447,1.1707647,8.4826565,0.004886922,-0.073303826,-0.09712757,-0.1369737982749939,-0.0513237863779068,-1.3687546253204346,1015.66235,
2021.01.16 15:49:13,27.0,24.0,28.68,1.5,-35.16,-0.92416185,1.2186487,9.952697,-0.09773844,0.02076942,-0.040927973,-0.12132083624601364,0.09258992224931717,-1.3362481594085693,1015.66235,
2021.01.16 15:49:13,27.0,24.0,29.22,1.3199999,-35.28,-0.2633622,1.3742718,10.577583,-0.0067195175,-0.25473082,0.053145275,-0.12915974855422974,0.024893002584576607,-1.3639569282531738,1015.66235,
