Time,X-cord,Y-cord,Mag_x,Mag_y,Mag_z,Acc_x,Acc_y,Acc_z,Gyro_x,Gyro_y,Gyro_z,Orn_x,Orn_y,Orn_z,Pressure,
2021.01.16 15:41:43,1.0,24.0,31.32,-3.6,-36.84,0.059855044,0.8882488,9.677363,0.029932396,-0.27183503,0.053145275,-0.0915280357003212,-0.006184977944940329,-1.5782616138458252,1015.9082,
2021.01.16 15:41:43,1.0,24.0,31.439999,-4.2,-37.2,-0.10055647,0.91937345,9.737218,0.0018325958,-0.0036651916,-0.004276057,-0.09413441270589828,0.010326656512916088,-1.591867446899414,1015.9253,
2021.01.16 15:41:43,1.0,24.0,32.16,-4.98,-37.2,-0.17717093,0.92655605,9.301474,0.0018325958,0.01282817,-0.03970624,-0.09926848113536835,0.01904531754553318,-1.6092159748077393,1015.9253,
2021.01.16 15:41:43,1.0,24.0,32.34,-5.16,-36.84,-0.035913024,0.93373865,9.725247,0.009773844,-0.030543262,-0.018936822,-0.09571776539087296,0.003692745231091976,-1.6205670833587646,1015.9253,
2021.01.16 15:41:43,1.0,24.0,31.679998,-4.8599997,-37.2,-0.19153613,0.9672575,9.512163,-0.027488936,-0.031154128,-0.008552114,-0.10131766647100449,0.02013319730758667,-1.6034046411514282,1015.9253,
2021.01.16 15:41:43,1.0,24.0,31.439999,-4.44,-37.38,-0.12449849,0.9648633,9.854534,-0.002443461,0.0018325958,-0.013439035,-0.09759176522493362,0.012632953003048897,-1.59463369846344,1015.9214,
2021.01.16 15:41:43,1.0,24.0,31.439999,-4.08,-37.02,0.045489833,0.89782566,9.382876,-0.015271631,-0.048258353,0.02076942,-0.09539611637592316,-0.0048481374979019165,-1.588182806968689,1015.9214,
2021.01.16 15:41:43,1.0,24.0,31.439999,-3.48,-37.26,-0.110133275,0.9504981,9.794679,0.032986723,-0.0012217305,0.02076942,-0.09673330932855606,0.011243721470236778,-1.5653530359268188,1015.9214,
2021.01.16 15:41:43,1.0,24.0,31.56,-3.48,-36.899998,0.17717093,0.92176765,9.572019,-0.007330383,-0.03848451,0.02321288,-0.0959857851266861,-0.01850714161992073,-1.5703037977218628,1015.9214,
2021.01.16 15:41:43,1.0,24.0,32.04,-3.54,-36.42,-0.18914193,0.90740246,9.275137,0.02443461,-0.0018325958,0.026267206,-0.0975012257695198,0.020389534533023834,-1.568078637123108,1015.9182,
2021.01.16 15:41:43,1.0,24.0,31.439999,-3.36,-36.66,-0.110133275,0.92655605,9.634268,6.1086525E-4,-0.0061086523,-0.014660766,-0.09587185829877853,0.011430912651121616,-1.5643846988677979,1015.9182,
2021.01.16 15:41:43,1.0,24.0,31.26,-3.6,-36.6,-0.021547815,0.9600749,9.698911,-0.029321533,-0.03481932,0.047036625,-0.0986662432551384,0.002221670001745224,-1.5698447227478027,1015.9182,
2021.01.16 15:41:43,1.0,24.0,31.439999,-3.9599998,-36.42,0.038307227,0.90021986,9.679757,0.004276057,0.04153884,0.02321288,-0.09273278713226318,-0.003957436885684729,-1.58922278881073,1015.9182,
2021.01.16 15:41:43,1.0,24.0,30.9,-3.9599998,-36.78,0.24660277,0.90261406,9.442732,0.004276057,-0.04886922,0.040317107,-0.09526640176773071,-0.02610968053340912,-1.5871646404266357,1015.92236,
2021.01.16 15:41:43,1.0,24.0,30.84,-3.84,-36.6,-0.14844051,0.90261406,9.519346,0.032986723,0.04153884,-0.0012217305,-0.09452484548091888,0.015592297539114952,-1.5814824104309082,1015.92236,
2021.01.16 15:41:43,1.0,24.0,30.72,-3.72,-36.719997,0.06464344,0.8571242,9.68694,-0.015271631,0.0,0.01160644,-0.08825065940618515,-0.006673158146440983,-1.5865325927734375,1015.92236,
2021.01.16 15:41:43,1.0,24.0,30.96,-4.38,-36.719997,-0.074220255,0.9552865,9.64145,-0.015882496,0.043982297,-0.009773844,-0.09875597804784775,0.007697886787354946,-1.5940947532653809,1015.92236,
2021.01.16 15:41:43,1.0,24.0,31.38,-4.14,-36.36,-0.05267244,0.91697925,9.7084875,-0.021991149,0.0018325958,0.008552114,-0.09417054057121277,0.005425347480922937,-1.5928153991699219,1015.926,
2021.01.16 15:41:43,1.0,24.0,31.56,-4.56,-36.239998,-0.055066638,0.93373865,9.7563715,-0.007330383,0.0067195175,0.009773844,-0.09541340172290802,0.005644111894071102,-1.6049022674560547,1015.926,
2021.01.16 15:41:44,1.0,24.0,32.1,-4.7999997,-36.18,-0.08619126,0.8834604,9.490616,-6.1086525E-4,0.028099801,0.007330383,-0.09281648695468903,0.00908148568123579,-1.6148085594177246,1015.926,
2021.01.16 15:41:44,1.0,24.0,31.679998,-4.2,-36.66,0.055066638,0.8858546,9.76116,-6.1086525E-4,0.023823744,0.017104227,-0.09050364047288895,-0.005641343537718058,-1.5985653400421143,1015.926,
2021.01.16 15:41:44,1.0,24.0,31.5,-4.68,-36.78,-0.055066638,0.91458505,9.682152,-0.01282817,-0.004276057,0.023823744,-0.09417994320392609,0.0056873769499361515,-1.608606219291687,1015.89966,
2021.01.16 15:41:44,1.0,24.0,31.859999,-4.5,-36.84,-0.045489833,0.8882488,9.662998,0.0,0.026267206,0.0,-0.09166408330202103,0.004707596730440855,-1.605347752571106,1015.89966,
2021.01.16 15:41:44,1.0,24.0,31.619999,-4.3199997,-36.54,-0.050278235,0.89543146,9.694122,0.002443461,0.007941248,-0.0012217305,-0.09210590273141861,0.00518641946837306,-1.600245475769043,1015.89966,
2021.01.16 15:41:44,1.0,24.0,31.619999,-4.3199997,-36.48,-0.05746084,0.91458505,9.61272,-0.002443461,-0.004886922,0.009773844,-0.09485599398612976,0.005977512802928686,-1.5971450805664062,1015.89966,
2021.01.16 15:41:44,1.0,24.0,31.5,-3.8999999,-36.719997,-0.11492168,0.89064306,9.744401,0.004886922,0.018325957,-0.0030543262,-0.09114093333482742,0.011793064884841442,-1.5871533155441284,1015.9031,
2021.01.16 15:41:44,1.0,24.0,31.619999,-4.44,-36.42,0.019153614,0.82121116,9.593566,-0.01160644,-0.0036651916,0.014660766,-0.08539187163114548,-0.0019965036772191525,-1.6125173568725586,1015.9031,
2021.01.16 15:41:44,1.0,24.0,31.5,-4.2599998,-36.54,-0.08140286,0.8355764,9.603143,0.0030543262,0.015271631,0.0067195175,-0.08678904175758362,0.00847648736089468,-1.6045658588409424,1015.9031,
2021.01.16 15:41:44,1.0,24.0,32.219997,-4.2599998,-35.76,-0.07182605,0.8858546,9.837775,-0.010995574,0.0061086523,0.0012217305,-0.08980165421962738,0.007300916593521833,-1.6025407314300537,1015.9031,
2021.01.16 15:41:44,1.0,24.0,32.34,-4.2599998,-35.579998,-0.038307227,0.8643068,9.679757,-0.021380283,0.0067195175,0.002443461,-0.08905327320098877,0.003957436885684729,-1.6039353609085083,1015.9087,
2021.01.16 15:41:44,1.0,24.0,32.219997,-3.72,-36.059998,-0.088585466,0.878672,9.715671,0.002443461,-0.009162978,0.007330383,-0.09018953889608383,0.009117539040744305,-1.584302306175232,1015.9087,
2021.01.16 15:41:44,1.0,24.0,32.76,-4.2599998,-35.88,-0.06464344,0.878672,9.653421,-6.1086525E-4,-6.1086525E-4,0.0,-0.09076967090368271,0.006696328055113554,-1.6006255149841309,1015.9087,
2021.01.16 15:41:44,1.0,24.0,32.219997,-4.68,-36.3,-0.021547815,0.8499416,9.703699,6.1086525E-4,-0.012217305,0.0030543262,-0.0873662680387497,0.0022205738350749016,-1.6170789003372192,1015.9087,
2021.01.16 15:41:44,1.0,24.0,32.52,-4.92,-36.36,-0.11731588,0.8714894,9.679757,-6.1086525E-4,0.004276057,0.0012217305,-0.08978351950645447,0.012119119986891747,-1.6207886934280396,1015.9121,
2021.01.16 15:41:44,1.0,24.0,32.64,-5.04,-36.239998,0.019153614,0.866701,9.706094,-0.0018325958,0.0018325958,-0.004886922,-0.08905815333127975,-0.0019733572844415903,-1.6258454322814941,1015.9121,
2021.01.16 15:41:44,1.0,24.0,32.64,-4.98,-36.42,-0.05267244,0.81642276,9.689334,-0.009162978,-0.017104227,0.012217305,-0.08406013995409012,0.005436072126030922,-1.6289799213409424,1015.9121,
2021.01.16 15:41:44,1.0,24.0,32.7,-4.3199997,-36.66,-0.08379706,0.8762778,9.605537,0.004886922,0.014660766,-0.008552114,-0.09097106009721756,0.0087236063554883,-1.6000028848648071,1015.9121,
2021.01.16 15:41:44,1.0,24.0,32.7,-3.9599998,-36.18,-0.038307227,0.8475474,9.751583,0.0036651916,-0.016493361,-0.01282817,-0.08669529855251312,0.003928288351744413,-1.595403790473938,1015.91943,
2021.01.16 15:41:44,1.0,24.0,33.239998,-3.8999999,-36.0,-0.11971009,0.89543146,9.720459,0.0030543262,0.009162978,-0.0067195175,-0.09185205399990082,0.012314648367464542,-1.587390422821045,1015.91943,
2021.01.16 15:41:44,1.0,24.0,33.18,-3.84,-35.82,0.0023942017,0.8810662,9.830592,-0.0036651916,0.004276057,-0.0012217305,-0.08938611298799515,-2.4354603374376893E-4,-1.5897114276885986,1015.91943,
2021.01.16 15:41:44,1.0,24.0,32.94,-3.84,-35.82,-0.095768064,0.8331822,9.607931,0.015882496,-0.009162978,-0.0018325958,-0.08649750053882599,0.009967274963855743,-1.5923683643341064,1015.91943,
2021.01.16 15:41:44,1.0,24.0,32.94,-4.02,-36.12,0.007182605,0.878672,9.698911,0.010995574,-0.0030543262,-0.005497787,-0.0903482511639595,-7.40557792596519E-4,-1.5934475660324097,1015.9197,
2021.01.16 15:41:44,1.0,24.0,33.059998,-4.44,-35.82,-0.08140286,0.9528923,9.662998,0.0030543262,0.0,-0.010995574,-0.09829123318195343,0.008423983119428158,-1.5975395441055298,1015.9197,
2021.01.16 15:41:44,1.0,24.0,33.0,-4.5,-36.12,-0.045489833,0.878672,9.742006,0.01282817,0.009773844,-0.018325957,-0.08994979411363602,0.004669418092817068,-1.6080424785614014,1015.9197,
2021.01.16 15:41:45,1.0,24.0,33.42,-4.92,-35.76,-0.047884032,0.8475474,9.672575,0.007330383,0.004276057,-6.1086525E-4,-0.08739946782588959,0.004950454458594322,-1.6238528490066528,1015.9197,
2021.01.16 15:41:45,1.0,24.0,32.82,-5.1,-36.3,-0.1340753,0.90021986,9.660604,0.01038471,-0.0030543262,-0.020158553,-0.09290742129087448,0.013877672143280506,-1.622382402420044,1015.917,
2021.01.16 15:41:45,1.0,24.0,32.1,-4.5,-36.719997,-0.05267244,0.90261406,9.622296,0.0036651916,0.017104227,-0.017104227,-0.0935293510556221,0.005473943892866373,-1.60321843624115,1015.917,
2021.01.16 15:41:45,1.0,24.0,32.1,-4.3199997,-36.3,-0.02873042,0.82599956,9.679757,-0.0036651916,0.0018325958,-0.004276057,-0.08512607961893082,0.0029680842999368906,-1.608597755432129,1015.917,
2021.01.16 15:41:45,1.0,24.0,31.74,-4.3199997,-36.0,-0.04070143,0.8595184,9.722853,-0.009773844,0.0030543262,-0.007941248,-0.08817189931869507,0.004186136648058891,-1.6062833070755005,1015.917,
2021.01.16 15:41:45,1.0,24.0,32.28,-4.62,-35.28,-0.11492168,0.91937345,9.610326,-0.007941248,0.004886922,-0.021991149,-0.0953681468963623,0.011957576498389244,-1.6085423231124878,1015.91797,
2021.01.16 15:41:45,1.0,24.0,32.04,-4.62,-35.28,-0.074220255,0.91697925,9.7563715,-0.0067195175,0.005497787,-0.02321288,-0.09370973706245422,0.007607216015458107,-1.6109304428100586,1015.91797,
2021.01.16 15:41:45,1.0,24.0,31.38,-4.56,-35.76,-0.045489833,0.89303726,9.607931,-0.020158553,0.0067195175,-0.007941248,-0.09268060326576233,0.004734577611088753,-1.609776496887207,1015.91797,
2021.01.16 15:41:45,1.0,24.0,31.56,-4.3199997,-36.059998,-0.11731588,0.8451532,9.600749,-0.01282817,0.009162978,-0.015882496,-0.08779706060886383,0.012218843214213848,-1.6063852310180664,1015.91797,
2021.01.16 15:41:45,1.0,24.0,31.619999,-4.08,-36.239998,-0.1316811,0.8834604,9.792285,-0.0012217305,6.1086525E-4,-0.007941248,-0.08996836096048355,0.013446623459458351,-1.595511555671692,1015.92236,
2021.01.16 15:41:45,1.0,24.0,32.1,-4.44,-36.18,-0.08619126,0.90500826,9.691729,-0.012217305,0.005497787,-0.009162978,-0.09310578554868698,0.008893045596778393,-1.6032191514968872,1015.92236,
2021.01.16 15:41:45,1.0,24.0,32.34,-4.14,-36.0,-0.10534488,0.8738836,9.65821,0.008552114,-0.01282817,-0.0030543262,-0.09022985398769379,0.010906855575740337,-1.5973259210586548,1015.92236,
2021.01.16 15:41:45,1.0,24.0,31.92,-4.3199997,-36.719997,-0.08140286,0.85473,9.7084875,0.008552114,0.008552114,-6.1086525E-4,-0.0878099799156189,0.008384513668715954,-1.6043087244033813,1015.92236,
2021.01.16 15:41:45,1.0,24.0,31.5,-3.9599998,-36.719997,-0.107739076,0.8714894,9.572019,-0.0012217305,-0.007941248,0.007330383,-0.09078947454690933,0.011255151592195034,-1.5895347595214844,1015.92334,
2021.01.16 15:41:45,1.0,24.0,31.199999,-3.36,-36.6,-0.038307227,0.8451532,9.710882,0.017104227,-0.004276057,-0.0036651916,-0.08681214600801468,0.003944752737879753,-1.576056718826294,1015.92334,
2021.01.16 15:41:45,1.0,24.0,31.38,-3.54,-36.84,-0.107739076,0.89303726,9.6845455,-0.009162978,-0.0036651916,0.016493361,-0.09194691479206085,0.011124386452138424,-1.5743693113327026,1015.92334,
2021.01.16 15:41:45,1.0,24.0,31.26,-3.1799998,-36.54,-0.11252748,0.82360536,9.557653,-0.002443461,0.0012217305,-0.0012217305,-0.08595405519008636,0.011773002333939075,-1.5707958936691284,1015.92334,
2021.01.16 15:41:45,1.0,24.0,30.72,-3.12,-36.78,-0.088585466,0.8379706,9.627085,0.0061086523,0.009773844,0.009773844,-0.08682053536176682,0.009201431646943092,-1.5673277378082275,1015.9226,
2021.01.16 15:41:45,1.0,24.0,30.72,-3.78,-37.38,-0.062249243,0.90500826,9.718064,-0.002443461,0.016493361,0.01038471,-0.09285667538642883,0.006405430845916271,-1.5799674987792969,1015.9226,
2021.01.16 15:41:45,1.0,24.0,30.72,-3.6,-37.32,-0.11492168,0.90500826,9.7324295,-0.010995574,0.0580322,-0.007330383,-0.09271586686372757,0.011807569302618504,-1.5739668607711792,1015.9226,
2021.01.16 15:41:45,1.0,24.0,31.019999,-3.78,-37.2,-0.08619126,0.85473,9.627085,0.0061086523,-0.02687807,0.017715093,-0.08854817599058151,0.008952758274972439,-1.585495114326477,1015.9226,
2021.01.16 15:41:45,1.0,24.0,31.56,-3.9599998,-36.84,-0.11252748,0.866701,9.509769,-0.005497787,0.0067195175,-0.018936822,-0.09088054299354553,0.011832277290523052,-1.5889991521835327,1015.92334,
2021.01.16 15:41:45,1.0,24.0,31.439999,-3.4199998,-36.239998,-0.1364695,0.7781156,9.483433,0.036651913,-0.007941248,-0.014660766,-0.08185817301273346,0.014389313757419586,-1.5840134620666504,1015.92334,
2021.01.16 15:41:45,1.0,24.0,31.26,-3.36,-36.3,-0.17717093,0.94331545,9.622296,-0.018325957,-0.012217305,-0.02076942,-0.09770561754703522,0.018410461023449898,-1.5625367164611816,1015.92334,
2021.01.16 15:41:45,1.0,24.0,31.38,-3.48,-36.12,0.011971008,0.8523358,9.811439,-0.002443461,0.002443461,0.02076942,-0.08665403723716736,-0.0012201067293062806,-1.5817502737045288,1015.92334,
2021.01.16 15:41:46,1.0,24.0,31.38,-3.12,-36.18,-0.10295067,0.8762778,9.473856,0.015882496,0.012217305,0.0012217305,-0.09222646802663803,0.01086639054119587,-1.56251859664917,1015.9177,
2021.01.16 15:41:46,1.0,24.0,31.56,-3.6,-36.48,-0.17238252,0.91219085,9.526528,0.017104227,-0.023823744,-0.018325957,-0.0954461321234703,0.01809302531182766,-1.5725175142288208,1015.9177,
2021.01.16 15:41:46,1.0,24.0,31.74,-3.84,-36.239998,-0.12449849,0.8714894,9.667787,-0.009773844,-0.0030543262,0.0018325958,-0.08989323675632477,0.012876949273049831,-1.5878946781158447,1015.9177,
2021.01.16 15:41:46,1.0,24.0,31.32,-3.84,-36.48,-0.107739076,0.89303726,9.665392,-0.0036651916,0.0061086523,0.0,-0.09212807565927505,0.011146429926156998,-1.584891438484192,1015.9177,
2021.01.16 15:41:46,1.0,24.0,31.56,-4.02,-36.96,-0.093373865,0.9504981,9.56723,0.0018325958,-0.004886922,-6.1086525E-4,-0.09901972115039825,0.009759449400007725,-1.5809327363967896,1015.9165,
2021.01.16 15:41:46,1.0,24.0,31.56,-4.2,-36.96,-0.15083471,0.90979666,9.653421,-6.1086525E-4,-0.014049901,-6.1086525E-4,-0.09395705908536911,0.01562372874468565,-1.592359185218811,1015.9165,
2021.01.16 15:41:46,1.0,24.0,31.619999,-4.3199997,-36.84,-0.093373865,0.8571242,9.607931,0.002443461,0.008552114,-0.0061086523,-0.0889703631401062,0.009718108922243118,-1.6028519868850708,1015.9165,
2021.01.16 15:41:46,1.0,24.0,31.859999,-4.44,-36.239998,-0.110133275,0.878672,9.557653,6.1086525E-4,-0.009162978,0.004886922,-0.09167011082172394,0.011522535234689713,-1.6048318147659302,1015.9165,
2021.01.16 15:41:46,1.0,24.0,31.619999,-4.14,-35.64,-0.1604115,0.8762778,9.533711,0.008552114,-0.002443461,-0.014660766,-0.09164318442344666,0.016824128106236458,-1.5969966650009155,1015.9131,
2021.01.16 15:41:46,1.0,24.0,31.679998,-3.78,-35.52,-0.15083471,0.8858546,9.648633,-0.007941248,-0.0061086523,0.0018325958,-0.09154362231492996,0.015631480142474174,-1.5859686136245728,1015.9131,
2021.01.16 15:41:46,1.0,24.0,31.619999,-3.54,-35.7,-0.10295067,0.8762778,9.595961,-0.007330383,0.015882496,-0.004886922,-0.09105958044528961,0.010728130117058754,-1.5787466764450073,1015.9131,
2021.01.16 15:41:46,1.0,24.0,31.859999,-3.3,-35.82,-0.095768064,0.89782566,9.595961,-0.007941248,-0.007330383,0.004276057,-0.0932866632938385,0.009979707188904285,-1.5682413578033447,1015.9131,
2021.01.16 15:41:46,1.0,24.0,31.859999,-3.78,-35.82,-0.14604631,0.8762778,9.619903,-0.004886922,0.007330383,0.0067195175,-0.09082899242639542,0.015180516988039017,-1.58586585521698,1015.9226,
2021.01.16 15:41:46,1.0,24.0,32.04,-3.6,-35.88,-0.095768064,0.8499416,9.660604,-0.012217305,-0.0036651916,0.01038471,-0.08774992823600769,0.00991293415427208,-1.5838638544082642,1015.9226,
2021.01.16 15:41:46,1.0,24.0,31.679998,-3.6,-35.7,-0.023942016,0.82360536,9.562442,-0.007330383,0.01160644,0.017715093,-0.08591688424348831,0.0025037501472979784,-1.5871435403823853,1015.9226,
2021.01.16 15:41:46,1.0,24.0,31.439999,-3.84,-36.18,-0.11971009,0.94810385,9.528923,0.0036651916,0.0030543262,0.005497787,-0.09916331619024277,0.012562152929604053,-1.5772664546966553,1015.9226,
2021.01.16 15:41:46,1.0,24.0,31.679998,-3.72,-36.18,-0.02633622,0.8499416,9.665392,-0.0036651916,-0.007941248,-0.004276057,-0.08771064877510071,0.002724789083003998,-1.5875402688980103,1015.9104,
2021.01.16 15:41:46,1.0,24.0,31.439999,-4.08,-36.12,-0.047884032,0.8403648,9.619903,-0.009773844,0.017104227,0.01282817,-0.08713461458683014,0.004977559205144644,-1.5998228788375854,1015.9104,
2021.01.16 15:41:46,1.0,24.0,31.859999,-4.08,-35.82,-0.06703765,0.8810662,9.593566,0.0012217305,-0.002443461,0.0,-0.09158015251159668,0.006987658329308033,-1.5950506925582886,1015.9104,
2021.01.16 15:41:46,1.0,24.0,31.679998,-3.6599998,-36.059998,-0.107739076,0.8882488,9.557653,0.0,0.0012217305,-0.009162978,-0.09266383200883865,0.01127206813544035,-1.5795832872390747,1015.9104,
2021.01.16 15:41:46,1.0,24.0,31.679998,-3.36,-36.3,-0.04309563,0.830788,9.718064,0.0061086523,0.007330383,-0.01038471,-0.08528085798025131,0.004434560891240835,-1.578534722328186,1015.9114,
2021.01.16 15:41:46,1.0,24.0,31.74,-3.1799998,-36.54,-0.047884032,0.8283938,9.512163,0.0012217305,-0.007330383,-0.0018325958,-0.08686758577823639,0.0050339363515377045,-1.570290446281433,1015.9114,
2021.01.16 15:41:46,1.0,24.0,31.92,-2.9399998,-37.14,-0.095768064,0.8499416,9.574412,0.005497787,-6.1086525E-4,-0.02443461,-0.08853569626808167,0.010002166964113712,-1.5586403608322144,1015.9114,
2021.01.16 15:41:46,1.0,24.0,32.16,-3.48,-37.02,-0.15322891,0.866701,9.694122,-0.005497787,0.005497787,-0.015271631,-0.08915664255619049,0.01580505631864071,-1.574759602546692,1015.9114,
2021.01.16 15:41:46,1.0,24.0,32.1,-3.78,-37.2,-0.17956513,0.842759,9.646238,-0.0018325958,-0.002443461,-0.016493361,-0.08713030070066452,0.01861289143562317,-1.58598792552948,1015.90894,
2021.01.16 15:41:47,1.0,24.0,31.5,-3.54,-36.84,-0.11492168,0.8714894,9.507375,0.0030543262,-0.0012217305,0.0018325958,-0.09140248596668243,0.012087047100067139,-1.574922800064087,1015.90894,
2021.01.16 15:41:47,1.0,24.0,31.26,-3.72,-36.84,-0.1316811,0.8571242,9.64145,-0.0012217305,-0.0067195175,0.0,-0.08865861594676971,0.013656961731612682,-1.5839967727661133,1015.90894,
2021.01.16 15:41:47,1.0,24.0,31.32,-3.36,-36.36,-0.076614454,0.79966336,9.579201,-0.0018325958,0.0018325958,0.01038471,-0.08328337967395782,0.007997830398380756,-1.5805590152740479,1015.90894,
2021.01.16 15:41:47,1.0,24.0,31.14,-3.4199998,-35.82,-0.18435353,0.8595184,9.710882,-0.0067195175,-0.007941248,0.004886922,-0.08826496452093124,0.018981941044330597,-1.577284812927246,1015.9187,
2021.01.16 15:41:47,1.0,24.0,31.679998,-3.78,-35.76,-0.07182605,0.8403648,9.624691,0.0012217305,-0.010995574,0.002443461,-0.0870901569724083,0.007462548092007637,-1.5910018682479858,1015.9187,
2021.01.16 15:41:47,1.0,24.0,31.439999,-3.84,-36.0,-0.10534488,0.80924016,9.488221,0.009162978,-0.002443461,0.018936822,-0.08507779985666275,0.011102244257926941,-1.594553828239441,1015.9187,
2021.01.16 15:41:47,1.0,24.0,31.38,-3.72,-36.36,-0.06943185,0.8571242,9.627085,0.020158553,-0.012217305,0.004276057,-0.08879615366458893,0.007212011609226465,-1.5856094360351562,1015.9187,
2021.01.16 15:41:47,1.0,24.0,31.619999,-3.6,-36.899998,-0.16519992,0.92655605,9.631873,-0.004276057,-0.0018325958,0.009162978,-0.09588775783777237,0.017149699851870537,-1.5707714557647705,1015.9136,
2021.01.16 15:41:47,1.0,24.0,31.56,-3.6,-37.62,-0.074220255,0.8643068,9.629479,0.007330383,0.0061086523,0.0018325958,-0.08951381593942642,0.007707455661147833,-1.5772219896316528,1015.9136,
2021.01.16 15:41:47,1.0,24.0,31.8,-3.3,-37.2,0.02633622,0.80684596,9.564836,0.007941248,-0.008552114,0.018325957,-0.08415588736534119,-0.002753435168415308,-1.5760869979858398,1015.9136,
2021.01.16 15:41:47,1.0,24.0,31.56,-3.84,-36.899998,-0.06703765,0.8738836,9.557653,0.010995574,0.009162978,0.004886922,-0.09117711335420609,0.007013912778347731,-1.584986925125122,1015.9136,
2021.01.16 15:41:47,1.0,24.0,31.199999,-3.6599998,-36.3,-0.10534488,0.90261406,9.600749,0.002443461,-0.0036651916,-0.015271631,-0.09373380988836288,0.010972128249704838,-1.5777618885040283,1015.92114,
2021.01.16 15:41:47,1.0,24.0,31.38,-3.6599998,-35.82,-0.11252748,0.8379706,9.627085,0.004276057,0.012217305,-0.010995574,-0.08681830018758774,0.011688102968037128,-1.587226152420044,1015.92114,
2021.01.16 15:41:47,1.0,24.0,31.08,-3.6,-35.34,-0.090979666,0.89303726,9.488221,0.0,-0.009162978,0.004886922,-0.0938398614525795,0.009588401764631271,-1.578764796257019,1015.92114,
2021.01.16 15:41:47,1.0,24.0,31.5,-2.9399998,-35.1,-0.05746084,0.8619126,9.610326,0.009162978,0.0,-0.008552114,-0.08944519609212875,0.005979001987725496,-1.563641905784607,1015.92114,
2021.01.16 15:41:47,1.0,24.0,31.619999,-3.12,-35.64,-0.107739076,0.91697925,9.619903,-0.016493361,0.0061086523,0.005497787,-0.09502799063920975,0.011199133470654488,-1.5608934164047241,1015.927,
2021.01.16 15:41:47,1.0,24.0,31.08,-3.06,-35.579998,-0.11252748,0.8882488,9.579201,-0.007941248,-0.004276057,-0.012217305,-0.09245608001947403,0.011746523901820183,-1.5619429349899292,1015.927,
2021.01.16 15:41:47,1.0,24.0,31.8,-3.36,-36.0,-0.059855044,0.8331822,9.576807,-0.0036651916,0.007330383,-0.0012217305,-0.08677979558706284,0.006249918602406979,-1.5774483680725098,1015.927,
2021.01.16 15:41:47,1.0,24.0,31.199999,-3.24,-36.42,-0.1364695,0.91697925,9.595961,-0.004276057,-0.0012217305,-0.0067195175,-0.09526003152132034,0.01422059815376997,-1.5616481304168701,1015.927,
2021.01.16 15:41:47,1.0,24.0,31.26,-3.36,-36.84,-0.1316811,0.90979666,9.5385,-0.004276057,-0.0061086523,-0.018325957,-0.09508483856916428,0.013804344460368156,-1.564504623413086,1015.9238,
2021.01.16 15:41:47,1.0,24.0,31.74,-3.4199998,-36.899998,-0.035913024,0.8331822,9.701305,0.004886922,0.013439035,-0.005497787,-0.08567269891500473,0.003701858688145876,-1.578389286994934,1015.9238,
2021.01.16 15:41:47,1.0,24.0,31.199999,-3.72,-37.079998,-0.11492168,0.89303726,9.528923,-0.010995574,-0.005497787,0.002443461,-0.09343888610601425,0.012059716507792473,-1.5776008367538452,1015.9238,
2021.01.16 15:41:47,1.0,24.0,31.859999,-4.14,-37.079998,-0.1604115,0.8810662,9.636662,0.017104227,0.007941248,-0.021991149,-0.0911625325679779,0.016644423827528954,-1.5931808948516846,1015.9238,
2021.01.16 15:41:47,1.0,24.0,31.679998,-3.8999999,-36.899998,-0.090979666,0.8595184,9.595961,-0.008552114,-0.0018325958,6.1086525E-4,-0.08932847529649734,0.009480753913521767,-1.5888597965240479,1015.92017,
2021.01.16 15:41:47,1.0,24.0,31.38,-3.1799998,-36.84,-0.16519992,0.89303726,9.610326,0.007330383,0.018936822,-0.010995574,-0.0926450565457344,0.017188142985105515,-1.5613244771957397,1015.92017,
2021.01.16 15:41:47,1.0,24.0,31.5,-2.8799999,-37.14,-0.107739076,0.80445176,9.615114,-0.004276057,-0.004276057,0.0061086523,-0.08346571773290634,0.011204710230231285,-1.5625739097595215,1015.92017,
2021.01.16 15:41:48,1.0,24.0,31.5,-2.8799999,-37.26,-0.107739076,0.8475474,9.55047,-0.01282817,0.010995574,0.0030543262,-0.08850656449794769,0.011280544102191925,-1.5561269521713257,1015.92017,
2021.01.16 15:41:48,1.0,24.0,31.619999,-2.6399999,-36.96,-0.10055647,0.82599956,9.591172,0.0036651916,-0.010995574,-0.0018325958,-0.08590414375066757,0.01048388984054327,-1.5525754690170288,1015.90796,
2021.01.16 15:41:48,1.0,24.0,32.1,-3.4199998,-36.96,-0.06464344,0.92176765,9.677363,-0.007941248,0.009773844,0.0030543262,-0.0949612706899643,0.006679761689156294,-1.5670239925384521,1015.90796,
2021.01.16 15:41:48,1.0,24.0,31.92,-3.4199998,-36.54,-0.11971009,0.90979666,9.665392,0.005497787,0.004886922,-0.0036651916,-0.09384562075138092,0.012384802103042603,-1.5690191984176636,1015.90796,
2021.01.16 15:41:48,1.0,24.0,31.439999,-3.4199998,-36.239998,-0.1364695,0.8523358,9.516952,0.015882496,-0.004276057,-0.0030543262,-0.08931231498718262,0.014338640496134758,-1.57513427734375,1015.90796,
2021.01.16 15:41:48,1.0,24.0,31.38,-3.78,-36.36,-0.11252748,0.8283938,9.569624,0.014049901,0.007330383,-0.0012217305,-0.08634372800588608,0.01175827719271183,-1.5901397466659546,1015.907,
2021.01.16 15:41:48,1.0,24.0,30.72,-3.0,-36.54,-0.093373865,0.90261406,9.55047,0.01038471,6.1086525E-4,0.0018325958,-0.09422554075717926,0.009776575490832329,-1.5550107955932617,1015.907,
2021.01.16 15:41:48,1.0,24.0,30.599998,-3.12,-36.54,-0.1604115,0.8762778,9.636662,0.014049901,-0.0012217305,-0.008552114,-0.09066979587078094,0.016644425690174103,-1.5625594854354858,1015.907,
2021.01.16 15:41:48,1.0,24.0,30.84,-3.54,-36.42,-0.09816227,0.8571242,9.579201,0.0,0.0061086523,0.007330383,-0.08923531323671341,0.010247079655528069,-1.5790772438049316,1015.907,
2021.01.16 15:41:48,1.0,24.0,30.9,-3.6,-36.42,-0.15322891,0.92895025,9.572019,0.016493361,-0.005497787,0.002443461,-0.0967332273721695,0.01600663736462593,-1.5714006423950195,1015.92065,
2021.01.16 15:41:48,1.0,24.0,31.019999,-4.38,-36.42,-0.074220255,0.94570965,9.524135,0.007941248,-0.005497787,6.1086525E-4,-0.09896871447563171,0.007792702876031399,-1.5947457551956177,1015.92065,
2021.01.16 15:41:48,1.0,24.0,31.26,-4.02,-36.54,-0.08379706,0.8738836,9.648633,0.015271631,6.1086525E-4,0.0036651916,-0.0903208926320076,0.008684645406901836,-1.5928800106048584,1015.92065,
2021.01.16 15:41:48,1.0,24.0,31.26,-3.6,-36.78,-0.038307227,0.90500826,9.600749,0.0012217305,-0.005497787,0.007330383,-0.09398586302995682,0.003990003373473883,-1.5746763944625854,1015.92065,
2021.01.16 15:41:48,1.0,24.0,31.5,-3.6,-36.54,-0.08619126,0.89782566,9.49301,0.01160644,-0.005497787,-0.008552114,-0.09429319947957993,0.009079196490347385,-1.5745455026626587,1015.916,
2021.01.16 15:41:48,1.0,24.0,31.26,-3.48,-36.36,-0.1316811,0.92895025,9.694122,0.007330383,-6.1086525E-4,-0.01160644,-0.09552565962076187,0.013582766056060791,-1.5693635940551758,1015.916,
2021.01.16 15:41:48,1.0,24.0,31.26,-3.6599998,-36.3,-0.12210429,0.8882488,9.555259,-0.0061086523,-0.01038471,-0.015882496,-0.09268524497747421,0.012778056785464287,-1.5788477659225464,1015.916,
2021.01.16 15:41:48,1.0,24.0,31.26,-3.48,-36.3,-0.1364695,0.89782566,9.548077,0.017715093,-0.007330383,-0.004886922,-0.09374690055847168,0.014291904866695404,-1.5716166496276855,1015.916,
2021.01.16 15:41:48,1.0,24.0,30.539999,-3.24,-36.48,-0.095768064,0.89303726,9.533711,0.005497787,-0.004886922,-0.01038471,-0.09339430183172226,0.010044864378869534,-1.5640143156051636,1015.92505,
2021.01.16 15:41:48,1.0,24.0,30.9,-3.24,-36.78,-0.11971009,0.92655605,9.677363,-0.0018325958,-0.01160644,-0.0030543262,-0.09544646739959717,0.012369482778012753,-1.5604133605957031,1015.92505,
2021.01.16 15:41:48,1.0,24.0,30.66,-3.36,-37.2,-0.14604631,0.8690952,9.56723,-0.008552114,0.004886922,-0.002443461,-0.09058170020580292,0.01526407990604639,-1.568777322769165,1015.92505,
2021.01.16 15:41:48,1.0,24.0,30.66,-3.6599998,-37.02,-0.088585466,0.8331822,9.56723,0.0018325958,-0.021380283,-6.1086525E-4,-0.08686421811580658,0.009258994832634926,-1.5843210220336914,1015.92505,
2021.01.16 15:41:48,1.0,24.0,31.32,-3.6,-37.02,-0.10055647,0.8810662,9.562442,0.002443461,-6.1086525E-4,-6.1086525E-4,-0.09187373518943787,0.010515385307371616,-1.5759179592132568,1015.91846,
2021.01.16 15:41:48,1.0,24.0,31.38,-3.48,-36.84,-0.10295067,0.9720459,9.6845455,-0.017104227,-0.007330383,0.002443461,-0.10003019124269485,0.010630007833242416,-1.5627456903457642,1015.91846,
2021.01.16 15:41:48,1.0,24.0,31.56,-3.24,-36.42,-0.16519992,0.866701,9.648633,0.01038471,0.007330383,-6.1086525E-4,-0.08957280963659286,0.017119914293289185,-1.568251371383667,1015.91846,
2021.01.16 15:41:48,1.0,24.0,31.74,-3.0,-36.54,-0.059855044,0.91937345,9.519346,0.017715093,-0.007330383,0.014660766,-0.09627897292375565,0.0062876432202756405,-1.5534824132919312,1015.91846,
2021.01.16 15:41:49,1.0,24.0,31.5,-3.4199998,-36.84,-0.05746084,0.90261406,9.576807,0.002443461,-0.01160644,0.007941248,-0.09397072345018387,0.0059999278746545315,-1.568572759628296,1015.9204,
2021.01.16 15:41:49,1.0,24.0,31.32,-3.6599998,-37.02,-0.05267244,0.90740246,9.662998,0.01282817,0.0061086523,0.017715093,-0.0936289057135582,0.005450887605547905,-1.576162338256836,1015.9204,
2021.01.16 15:41:49,1.0,24.0,31.5,-3.72,-37.38,-0.07182605,0.91219085,9.639056,0.0,-0.01282817,0.002443461,-0.09435126930475235,0.007451426703482866,-1.5759153366088867,1015.9204,
2021.01.16 15:41:49,1.0,24.0,31.5,-3.8999999,-37.32,-0.038307227,0.89303726,9.56723,0.021991149,0.01160644,0.0067195175,-0.09307292103767395,0.004003982525318861,-1.5836490392684937,1015.9204,
2021.01.16 15:41:49,1.0,24.0,31.679998,-3.78,-36.84,-0.079008654,0.94810385,9.409213,0.018325957,-0.032986723,-0.0030543262,-0.10042087733745575,0.008396748453378677,-1.5721074342727661,1015.9165,
2021.01.16 15:41:49,1.0,24.0,31.619999,-3.8999999,-36.54,-0.11492168,0.90021986,9.583989,0.01282817,0.018936822,-0.004886922,-0.09364808350801468,0.011990431696176529,-1.584612250328064,1015.9165,
2021.01.16 15:41:49,1.0,24.0,31.56,-3.84,-35.94,0.023942016,0.8762778,9.782708,-0.009773844,6.1086525E-4,0.014660766,-0.08933547884225845,-0.002447376260533929,-1.590546727180481,1015.9165,
2021.01.16 15:41:49,1.0,24.0,31.8,-3.6599998,-36.18,-0.11252748,0.93852705,9.490616,0.0036651916,-0.0036651916,-0.0036651916,-0.09856264293193817,0.011856154538691044,-1.5722360610961914,1015.9165,
2021.01.16 15:41:49,1.0,24.0,31.679998,-3.4199998,-36.48,-0.10055647,0.92655605,9.471462,0.01038471,-0.01160644,-0.009773844,-0.09751033782958984,0.010616385377943516,-1.5650333166122437,1015.90845,
2021.01.16 15:41:49,1.0,24.0,32.16,-3.0,-36.059998,-0.062249243,0.94331545,9.64145,-0.005497787,-0.005497787,0.007941248,-0.0975271537899971,0.006456329021602869,-1.5537070035934448,1015.90845,
2021.01.16 15:41:49,1.0,24.0,32.04,-3.0,-36.239998,-0.05746084,0.90740246,9.624691,-0.010995574,0.007330383,0.01038471,-0.09399908781051636,0.005970078520476818,-1.5572017431259155,1015.90845,
2021.01.16 15:41:49,1.0,24.0,31.439999,-3.36,-35.88,-0.038307227,0.9600749,9.627085,0.0012217305,-0.002443461,0.010995574,-0.09939701855182648,0.003979088738560677,-1.5634645223617554,1015.90845,
2021.01.16 15:41:49,1.0,24.0,31.5,-3.48,-35.64,-0.04070143,0.9792285,9.560047,0.0,-0.021991149,0.01160644,-0.1020723506808281,0.004257424734532833,-1.5649493932724,1015.9077,
2021.01.16 15:41:49,1.0,24.0,31.14,-3.72,-36.0,-0.059855044,0.94331545,9.665392,0.004886922,-0.005497787,0.012217305,-0.09728725254535675,0.006192638073116541,-1.5768424272537231,1015.9077,
2021.01.16 15:41:49,1.0,24.0,31.38,-4.08,-36.36,0.011971008,0.91458505,9.629479,0.002443461,0.002443461,0.007941248,-0.09469349682331085,-0.0012431618524715304,-1.5907617807388306,1015.9077,
2021.01.16 15:41:49,1.0,24.0,31.26,-3.9599998,-36.899998,-0.059855044,0.92416185,9.615114,0.007941248,-0.007941248,0.009773844,-0.09581934660673141,0.0062250192277133465,-1.5834596157073975,1015.9077,
2021.01.16 15:41:49,1.0,24.0,31.14,-4.2,-36.96,-0.08619126,0.94810385,9.449914,0.01038471,-0.017715093,-0.015271631,-0.099990613758564,0.009120598435401917,-1.5857725143432617,1015.9133,
2021.01.16 15:41:49,1.0,24.0,31.56,-4.44,-37.079998,0.04309563,0.94092125,9.739613,0.018936822,0.009773844,0.0,-0.09630785137414932,-0.004424749873578548,-1.5981290340423584,1015.9133,
2021.01.16 15:41:49,1.0,24.0,31.32,-3.8999999,-36.899998,-0.08140286,0.9888053,9.639056,-0.007330383,-0.020158553,0.007330383,-0.1022220104932785,0.00844490621238947,-1.5736137628555298,1015.9133,
2021.01.16 15:41:49,1.0,24.0,31.859999,-4.2,-36.66,-0.02633622,0.94331545,9.452309,0.02321288,-0.009162978,-0.014049901,-0.09946762025356293,0.0027862137649208307,-1.5874825716018677,1015.9133,
2021.01.16 15:41:49,1.0,24.0,31.98,-3.78,-36.78,-0.14844051,0.94092125,9.576807,0.027488936,6.1086525E-4,-0.004276057,-0.09792398661375046,0.015498758293688297,-1.5745527744293213,1015.92017,
2021.01.16 15:41:49,1.0,24.0,31.859999,-3.78,-37.02,-0.021547815,0.9624691,9.672575,0.005497787,-0.002443461,-0.007330383,-0.0991782397031784,0.0022277189418673515,-1.5735920667648315,1015.92017,
2021.01.16 15:41:49,1.0,24.0,31.98,-4.2,-37.26,-0.15083471,0.90740246,9.842564,0.0030543262,-0.004886922,0.010995574,-0.09192108362913132,0.015323538333177567,-1.593639850616455,1015.92017,
2021.01.16 15:41:49,1.0,24.0,31.439999,-3.8999999,-37.32,0.23223756,1.103727,8.899248,0.0018325958,-0.1423316,0.034208454,-0.12335306406021118,-0.026090392842888832,-1.551694631576538,1015.92017,
2021.01.16 15:41:49,1.0,24.0,31.199999,-4.44,-37.44,-0.6440403,0.6368576,9.6845455,0.18142697,-0.02443461,0.026267206,-0.06552134454250336,0.0664040818810463,-1.6352500915527344,1015.9116,
2021.01.16 15:41:50,1.0,24.0,31.14,-4.68,-37.26,0.29688102,0.80445176,10.129868,-0.1001819,0.17531833,0.018325957,-0.07921365648508072,-0.02929910644888878,-1.6263091564178467,1015.9116,
2021.01.16 15:41:50,1.0,24.0,30.84,-4.68,-36.96,0.11252748,1.1372458,9.739613,-0.021380283,-0.14477506,0.019547688,-0.11623094230890274,-0.011553075164556503,-1.58371102809906,1015.9116,
