Time,X-cord,Y-cord,Mag_x,Mag_y,Mag_z,Acc_x,Acc_y,Acc_z,Gyro_x,Gyro_y,Gyro_z,Orn_x,Orn_y,Orn_z,Pressure,
2021.01.16 16:04:22,81.0,24.0,43.559998,11.58,-30.539999,0.31364042,0.44771573,9.715671,0.2321288,-0.23518312,-0.03970624,-0.046025291085243225,-0.032270703464746475,-1.2886244058609009,1015.9536,
2021.01.16 16:04:22,81.0,24.0,43.26,11.46,-30.3,-0.6536171,0.5434838,8.882488,0.27672195,0.027488936,-0.14538592,-0.06094543635845184,0.07345252484083176,-1.252729892730713,1015.9536,
2021.01.16 16:04:22,81.0,24.0,43.2,11.58,-30.72,-0.0047884034,0.31364042,9.488221,-0.076358154,0.004886922,0.0580322,-0.03304372727870941,5.046681617386639E-4,-1.2871336936950684,1015.9436,
2021.01.16 16:04:22,81.0,24.0,42.96,11.5199995,-30.96,0.023942016,0.2657564,10.149021,0.0580322,-0.03848451,-0.008552114,-0.026179365813732147,-0.0023590424098074436,-1.2918802499771118,1015.9436,
2021.01.16 16:04:22,81.0,24.0,42.96,11.16,-31.38,0.016759412,0.33279404,9.653421,0.12705997,0.015882496,-0.02321288,-0.034460507333278656,-0.0017361093778163195,-1.29374098777771,1015.9436,
2021.01.16 16:04:22,81.0,24.0,42.84,11.28,-31.74,-0.18914193,0.4189853,9.552865,0.061086524,-0.07452556,-0.01160644,-0.04382297769188881,0.019796909764409065,-1.2785667181015015,1015.9436,
2021.01.16 16:04:22,81.0,24.0,42.78,11.5199995,-31.74,-0.17238252,0.49320555,9.411607,0.047647487,-0.025045475,6.1086525E-4,-0.05234731733798981,0.018313901498913765,-1.267462134361267,1015.9514,
2021.01.16 16:04:22,81.0,24.0,42.3,11.5199995,-31.439999,-0.08379706,0.4285621,9.224859,-0.029932396,0.07819075,0.017715093,-0.04642201215028763,0.009083581157028675,-1.2710504531860352,1015.9514,
2021.01.16 16:04:22,81.0,24.0,42.18,11.88,-31.74,-0.21787235,0.46926352,9.540894,-0.1001819,0.093462385,0.02076942,-0.049132052809000015,0.022831665351986885,-1.2565219402313232,1015.9514,
2021.01.16 16:04:22,81.0,24.0,42.18,11.5199995,-31.619999,-0.047884032,0.533907,10.038888,-0.09101892,0.087964594,0.02443461,-0.05313321575522423,0.004769817925989628,-1.2666174173355103,1015.9514,
2021.01.16 16:04:23,81.0,24.0,42.239998,11.34,-31.38,-0.12449849,0.4285621,10.043676,-0.009773844,0.035430185,0.021991149,-0.04264070466160774,0.012395073659718037,-1.276377558708191,1015.9404,
2021.01.16 16:04:23,81.0,24.0,42.12,11.46,-31.38,-0.050278235,0.35194764,9.844957,0.014049901,0.029932396,-0.002443461,-0.03573334217071533,0.005106959491968155,-1.2794779539108276,1015.9404,
2021.01.16 16:04:23,81.0,24.0,42.3,11.46,-31.14,0.074220255,0.29209262,9.655815,0.03970624,-0.016493361,-0.04153884,-0.030240323394536972,-0.007686434779316187,-1.2874464988708496,1015.9404,
2021.01.16 16:04:23,81.0,24.0,42.42,11.28,-31.199999,0.12689269,0.35673606,9.56723,0.037873644,0.014660766,-0.06963864,-0.037266746163368225,-0.013262484222650528,-1.2886929512023926,1015.9404,
2021.01.16 16:04:23,81.0,24.0,42.54,11.34,-31.199999,-0.05267244,0.51714754,9.414001,0.031154128,-0.002443461,-0.122783914,-0.054877858608961105,0.00559505820274353,-1.2720392942428589,1015.9468,
2021.01.16 16:04:23,81.0,24.0,43.02,11.639999,-31.5,-0.5267244,0.6703765,9.651027,-0.010995574,0.017104227,-0.09468412,-0.06924755126237869,0.05452294275164604,-1.24459707736969,1015.9468,
2021.01.16 16:04:23,81.0,24.0,43.079998,11.88,-31.32,-0.5410896,0.6392518,9.674969,-0.02076942,0.014660766,-0.021380283,-0.06587421149015427,0.05586855486035347,-1.2421602010726929,1015.9468,
2021.01.16 16:04:23,81.0,24.0,43.2,12.24,-30.96,-0.4165911,0.5410896,9.923966,-0.022602014,0.019547688,0.0421497,-0.05442175269126892,0.04195365682244301,-1.2480030059814453,1015.9468,
2021.01.16 16:04:23,81.0,24.0,43.079998,12.179999,-31.26,0.06943185,0.45729253,9.832987,0.019547688,0.004276057,0.045814894,-0.04647132009267807,-0.007060997653752565,-1.2663613557815552,1015.9487,
2021.01.16 16:04:23,81.0,24.0,43.02,11.82,-31.199999,-0.033518825,0.37588966,9.562442,0.04153884,-6.1086525E-4,0.009773844,-0.03928849473595619,0.003505243454128504,-1.2757266759872437,1015.9487,
2021.01.16 16:04:23,81.0,24.0,42.78,11.4,-31.199999,-0.15083471,0.3854665,9.624691,0.02321288,-0.023823744,-0.0012217305,-0.040023449808359146,0.015670357272028923,-1.2797695398330688,1015.9487,
2021.01.16 16:04:23,81.0,24.0,42.54,11.16,-31.439999,-0.30885202,0.5386954,9.500193,0.007941248,-0.021991149,-0.009773844,-0.056613124907016754,0.03249863162636757,-1.2672338485717773,1015.9487,
2021.01.16 16:04:23,81.0,24.0,42.66,11.16,-31.679998,-0.22505496,0.59376204,9.888053,-0.025045475,0.008552114,0.016493361,-0.05996091663837433,0.022756364196538925,-1.268052339553833,1015.9536,
2021.01.16 16:04:23,81.0,24.0,42.66,11.16,-31.38,0.011971008,0.48602295,9.665392,0.004886922,0.02076942,0.020158553,-0.05024250969290733,-0.0012385428417474031,-1.2812838554382324,1015.9536,
2021.01.16 16:04:23,81.0,24.0,42.78,11.219999,-31.5,0.095768064,0.34476504,9.619903,-0.005497787,-0.0036651916,-0.004886922,-0.035821616649627686,-0.009954872541129589,-1.2922008037567139,1015.9536,
2021.01.16 16:04:23,81.0,24.0,43.26,11.46,-31.38,-0.023942016,0.4213795,9.775525,0.002443461,0.01160644,-0.047036625,-0.04307876527309418,0.0024491746444255114,-1.2825204133987427,1015.9536,
2021.01.16 16:04:23,81.0,24.0,43.26,11.4,-30.96,-0.29688102,0.58418524,9.653421,0.0012217305,-0.014049901,-0.076358154,-0.0604136697947979,0.03074427880346775,-1.265480637550354,1015.9431,
2021.01.16 16:04:23,81.0,24.0,43.079998,11.58,-31.199999,-0.2825158,0.50757074,9.674969,0.0061086523,0.008552114,-0.02443461,-0.05239192023873329,0.029192397370934486,-1.2659465074539185,1015.9431,
2021.01.16 16:04:23,81.0,24.0,43.14,12.059999,-31.26,-0.21308395,0.48123455,9.78989,0.004886922,6.1086525E-4,-6.1086525E-4,-0.04910513386130333,0.02176227793097496,-1.2602018117904663,1015.9431,
2021.01.16 16:04:23,81.0,24.0,42.42,12.36,-31.26,-0.18435353,0.46926352,9.68694,0.016493361,-0.014660766,-0.0061086523,-0.04839631915092468,0.01902884431183338,-1.2499626874923706,1015.9431,
2021.01.16 16:04:23,81.0,24.0,42.239998,12.48,-31.439999,-0.17717093,0.50757074,9.7563715,0.015271631,-0.017715093,0.014049901,-0.05196913331747055,0.018157515674829483,-1.2436872720718384,1015.9407,
2021.01.16 16:04:23,81.0,24.0,42.48,12.48,-31.8,-0.059855044,0.4333505,9.627085,0.016493361,0.0061086523,-0.0067195175,-0.04498244449496269,0.006217279005795717,-1.252981185913086,1015.9407,
2021.01.16 16:04:23,81.0,24.0,42.36,12.36,-31.8,-0.15562311,0.46208093,9.703699,0.0,-0.03176499,-0.0067195175,-0.04757699370384216,0.016036128625273705,-1.250287413597107,1015.9407,
2021.01.16 16:04:23,81.0,24.0,42.48,11.94,-31.92,-0.21308395,0.521936,9.643845,0.01038471,0.0036651916,-0.017104227,-0.05405523627996445,0.022091737017035484,-1.2538820505142212,1015.9407,
2021.01.16 16:04:23,81.0,24.0,42.6,12.059999,-31.74,-0.30645782,0.5410896,9.607931,-0.017715093,-0.014660766,0.014049901,-0.056229010224342346,0.031885527074337006,-1.2480796575546265,1015.9419,
2021.01.16 16:04:24,81.0,24.0,42.66,12.059999,-31.38,-0.088585466,0.45250413,9.85214,-0.013439035,-0.004276057,0.036651913,-0.04589541628956795,0.00899125263094902,-1.262289047241211,1015.9419,
2021.01.16 16:04:24,81.0,24.0,42.78,11.7,-31.14,-0.055066638,0.46686932,9.617508,0.0036651916,-0.010995574,0.007941248,-0.048504818230867386,0.005725603085011244,-1.2701557874679565,1015.9419,
2021.01.16 16:04:24,81.0,24.0,43.2,11.7,-31.32,-0.16519992,0.48841715,9.639056,-0.015271631,-0.005497787,0.014660766,-0.05061992257833481,0.017136922106146812,-1.2684096097946167,1015.9419,
2021.01.16 16:04:24,81.0,24.0,42.84,11.759999,-31.56,-0.093373865,0.45729253,9.636662,-0.012217305,0.0012217305,0.007941248,-0.04741562530398369,0.009689138270914555,-1.2685338258743286,1015.93994,
2021.01.16 16:04:24,81.0,24.0,42.84,12.0,-31.439999,-0.107739076,0.46686932,9.64145,-0.022602014,0.004276057,0.01038471,-0.04838233441114426,0.011174107901751995,-1.2625024318695068,1015.93994,
2021.01.16 16:04:24,81.0,24.0,42.48,12.12,-31.439999,-0.12689269,0.49320555,9.737218,-0.030543262,0.004276057,0.0067195175,-0.05060404911637306,0.013030980713665485,-1.2554686069488525,1015.93994,
2021.01.16 16:04:24,81.0,24.0,42.239998,12.42,-31.32,-0.01436521,0.46686932,9.749189,-0.02443461,0.0067195175,0.002443461,-0.047851406037807465,0.0014734762953594327,-1.2524135112762451,1015.93994,
2021.01.16 16:04:24,81.0,24.0,42.48,11.88,-31.26,-0.079008654,0.48362875,9.7324295,-0.016493361,-0.0018325958,-0.010995574,-0.04965002462267876,0.008117903023958206,-1.2627720832824707,1015.9392,
2021.01.16 16:04:24,81.0,24.0,42.059998,11.58,-31.5,-0.1316811,0.49559975,9.78989,-6.1086525E-4,0.002443461,-0.01038471,-0.05057587847113609,0.013449911959469318,-1.2640661001205444,1015.9392,
2021.01.16 16:04:24,81.0,24.0,42.18,11.58,-31.56,-0.11731588,0.49081135,9.64145,-6.1086525E-4,-0.02321288,-0.013439035,-0.050858717411756516,0.012167267501354218,-1.2649686336517334,1015.9392,
2021.01.16 16:04:24,81.0,24.0,41.94,11.5199995,-31.56,-0.10534488,0.47405192,9.653421,-0.004276057,0.0012217305,0.0,-0.04906480759382248,0.010912264697253704,-1.26619291305542,1015.9392,
2021.01.16 16:04:24,81.0,24.0,42.239998,11.88,-31.56,-0.090979666,0.39983168,9.801862,-0.015882496,0.0067195175,-0.007941248,-0.04076704755425453,0.009281609207391739,-1.2665131092071533,1015.9287,
2021.01.16 16:04:24,81.0,24.0,42.42,12.0,-31.14,-0.11731588,0.48602295,9.763555,0.0036651916,-0.015882496,-0.017715093,-0.04973465949296951,0.012015115469694138,-1.2588340044021606,1015.9287,
2021.01.16 16:04:24,81.0,24.0,42.48,12.12,-31.32,-0.12449849,0.48602295,9.55047,0.0018325958,-0.0018325958,-0.007330383,-0.05084177106618881,0.01303511019796133,-1.2554495334625244,1015.9287,
2021.01.16 16:04:24,81.0,24.0,42.66,12.0,-31.26,-0.047884032,0.41180268,9.818622,-0.027488936,6.1086525E-4,-0.0012217305,-0.04191591963171959,0.004876820370554924,-1.2673839330673218,1015.9287,
2021.01.16 16:04:24,81.0,24.0,42.18,12.3,-31.199999,-0.08140286,0.37110126,9.734824,-0.009162978,0.01282817,-0.020158553,-0.03810122236609459,0.008361832238733768,-1.259378433227539,1015.9253,
2021.01.16 16:04:24,81.0,24.0,42.059998,12.84,-31.14,-0.095768064,0.4189853,9.667787,-0.0061086523,-0.01282817,-0.028099801,-0.043309058994054794,0.009905570186674595,-1.2430721521377563,1015.9253,
2021.01.16 16:04:24,81.0,24.0,42.239998,13.259999,-31.26,-0.23463176,0.47165772,9.653421,-0.007941248,0.0030543262,-0.021991149,-0.04880591109395027,0.024300770834088326,-1.2275817394256592,1015.9253,
2021.01.16 16:04:24,81.0,24.0,42.059998,13.62,-31.8,-0.088585466,0.40222588,9.82341,-0.021991149,-0.009773844,0.005497787,-0.04092112556099892,0.00901754666119814,-1.2276325225830078,1015.9253,
2021.01.16 16:04:24,81.0,24.0,42.18,13.679999,-31.92,-0.033518825,0.36391866,9.710882,0.0061086523,-0.0030543262,-0.012217305,-0.03745759278535843,0.0034516628365963697,-1.2310148477554321,1015.9397,
2021.01.16 16:04:24,81.0,24.0,41.76,13.799999,-32.64,-0.074220255,0.4141969,9.7324295,0.009162978,-0.010995574,-0.014660766,-0.04253152757883072,0.007625929079949856,-1.2200196981430054,1015.9397,
2021.01.16 16:04:24,81.0,24.0,41.579998,13.08,-32.34,-0.21068975,0.4141969,9.610326,0.0012217305,0.01160644,-0.009773844,-0.04306216165423393,0.02191975712776184,-1.229820728302002,1015.9397,
2021.01.16 16:04:24,81.0,24.0,41.82,12.719999,-31.98,-0.15322891,0.38307226,9.679757,-0.013439035,-0.0018325958,0.0036651916,-0.03954898193478584,0.015828508883714676,-1.2440217733383179,1015.9397,
2021.01.16 16:04:24,81.0,24.0,41.82,12.66,-31.859999,-0.15801731,0.44532153,9.7324295,-0.007330383,0.016493361,0.01038471,-0.04571855440735817,0.016234736889600754,-1.241048812866211,1015.9363,
2021.01.16 16:04:24,81.0,24.0,41.94,12.059999,-31.5,-0.21308395,0.4309563,9.770737,0.0030543262,-0.02076942,0.02565634,-0.044067807495594025,0.021804925054311752,-1.2549889087677002,1015.9363,
2021.01.16 16:04:25,81.0,24.0,42.18,12.179999,-31.5,-0.08140286,0.37588966,9.548077,0.007941248,0.009162978,0.039095376,-0.039346352219581604,0.008525370620191097,-1.260820984840393,1015.9363,
2021.01.16 16:04:25,81.0,24.0,42.36,12.12,-31.199999,0.02873042,0.30885202,9.583989,-0.018936822,0.0012217305,0.02321288,-0.03221454098820686,-0.002997742732986808,-1.2711795568466187,1015.9363,
2021.01.16 16:04:25,81.0,24.0,42.239998,11.94,-31.38,-0.007182605,0.36391866,9.698911,-0.015271631,0.022602014,0.0,-0.03750399500131607,7.40557792596519E-4,-1.2697113752365112,1015.93774,
2021.01.16 16:04:25,81.0,24.0,42.54,11.58,-30.9,-0.062249243,0.41180268,9.768343,-0.01282817,0.014049901,-0.010995574,-0.04213106259703636,0.006372462492436171,-1.2754459381103516,1015.93774,
2021.01.16 16:04:25,81.0,24.0,42.66,11.759999,-31.199999,-0.21068975,0.4285621,9.873688,0.014660766,0.021991149,-0.01160644,-0.04336737468838692,0.021335268393158913,-1.2674663066864014,1015.93774,
2021.01.16 16:04:25,81.0,24.0,42.6,11.759999,-31.5,-0.18674773,0.4141969,9.56723,0.020158553,-0.013439035,0.004276057,-0.043258048593997955,0.019517039880156517,-1.2672812938690186,1015.93774,
2021.01.16 16:04:25,81.0,24.0,42.96,11.5199995,-31.26,-0.088585466,0.32561144,9.588778,0.007330383,0.015882496,0.016493361,-0.033943068236112595,0.009238189086318016,-1.2839292287826538,1015.9336,
2021.01.16 16:04:25,81.0,24.0,42.66,12.12,-31.619999,-0.08619126,0.37588966,9.619903,-0.005497787,0.002443461,-0.004886922,-0.03905273228883743,0.00895944144576788,-1.2653770446777344,1015.9336,
2021.01.16 16:04:25,81.0,24.0,42.18,11.88,-31.26,-0.07182605,0.36152446,9.742006,-0.014049901,0.019547688,0.004886922,-0.037091828882694244,0.007372685242444277,-1.2693523168563843,1015.9336,
2021.01.16 16:04:25,81.0,24.0,42.12,12.12,-31.08,-0.1604115,0.37828386,9.655815,0.01038471,0.0018325958,-0.023823744,-0.03915137052536011,0.016611414030194283,-1.2601536512374878,1015.9336,
2021.01.16 16:04:25,81.0,24.0,41.76,12.3,-31.14,-0.21547815,0.4141969,9.61272,-0.0061086523,0.004886922,-0.004276057,-0.04305098205804825,0.022412188351154327,-1.2493778467178345,1015.9331,
2021.01.16 16:04:25,81.0,24.0,41.879997,11.88,-31.32,-0.19632454,0.36391866,9.598354,-0.0030543262,0.0,-0.002443461,-0.037888623774051666,0.020451126620173454,-1.263378381729126,1015.9331,
2021.01.16 16:04:25,81.0,24.0,41.94,12.0,-31.38,-0.20111294,0.39264908,9.639056,-0.010995574,-0.0030543262,0.009162978,-0.04070386663079262,0.02086135372519493,-1.259031057357788,1015.9331,
2021.01.16 16:04:25,81.0,24.0,42.12,11.759999,-31.439999,-0.16998832,0.35913026,9.667787,-0.01160644,0.012217305,0.014049901,-0.03712429851293564,0.01758114993572235,-1.2688241004943848,1015.9331,
2021.01.16 16:04:25,81.0,24.0,42.239998,11.46,-31.199999,-0.1316811,0.37349546,9.701305,-0.01160644,-0.004276057,0.009773844,-0.038476962596178055,0.013572711497545242,-1.2764928340911865,1015.9365,
2021.01.16 16:04:25,81.0,24.0,42.84,11.88,-30.72,-0.16998832,0.40462008,9.660604,0.004886922,0.007330383,0.002443461,-0.04185258597135544,0.017594218254089355,-1.2685635089874268,1015.9365,
2021.01.16 16:04:25,81.0,24.0,43.32,11.82,-30.84,-0.16519992,0.36631286,9.665392,-0.004276057,-0.0067195175,0.01282817,-0.03787577524781227,0.017090236768126488,-1.2756726741790771,1015.9365,
2021.01.16 16:04:25,81.0,24.0,43.379997,11.88,-30.48,-0.12449849,0.36152446,9.651027,0.0030543262,0.007941248,0.0030543262,-0.037439074367284775,0.012899309396743774,-1.2763874530792236,1015.9365,
2021.01.16 16:04:25,81.0,24.0,43.44,11.82,-30.359999,-0.18914193,0.4381389,9.667787,-0.0018325958,0.004886922,-0.002443461,-0.04527982324361801,0.01956164464354515,-1.2714565992355347,1015.9348,
2021.01.16 16:04:25,81.0,24.0,43.02,11.46,-30.72,-0.16759412,0.37828386,9.629479,0.0036651916,0.008552114,0.007941248,-0.03925780951976776,0.017402518540620804,-1.2805842161178589,1015.9348,
2021.01.16 16:04:25,81.0,24.0,43.02,11.28,-30.42,-0.14604631,0.35434186,9.710882,0.004886922,-6.1086525E-4,0.010995574,-0.03646885231137276,0.015038315206766129,-1.2871659994125366,1015.9348,
2021.01.16 16:04:25,81.0,24.0,43.079998,11.4,-30.66,-0.18195933,0.4357447,9.564836,0.0067195175,0.007330383,0.005497787,-0.045517247170209885,0.01902148500084877,-1.2777513265609741,1015.9348,
2021.01.16 16:04:25,81.0,24.0,43.14,11.7,-30.72,-0.11252748,0.37828386,9.782708,0.007941248,-0.0012217305,0.008552114,-0.03864681348204613,0.011502185836434364,-1.2780073881149292,1015.94556,
2021.01.16 16:04:25,81.0,24.0,43.2,11.82,-30.9,-0.11971009,0.37828386,9.624691,0.017104227,0.004886922,-0.004276057,-0.03928022459149361,0.012437169440090656,-1.2750244140625,1015.94556,
2021.01.16 16:04:25,81.0,24.0,43.2,12.059999,-30.84,-0.15801731,0.3854665,9.68694,0.004886922,-0.004276057,0.002443461,-0.03976611793041229,0.016310960054397583,-1.268693447113037,1015.94556,
2021.01.16 16:04:26,81.0,24.0,43.02,11.94,-31.199999,-0.1364695,0.39264908,9.665392,0.018325957,0.018936822,-0.004886922,-0.040597859770059586,0.014118459075689316,-1.2697049379348755,1015.94556,
2021.01.16 16:04:26,81.0,24.0,42.96,12.059999,-31.38,-0.18435353,0.40462008,9.679757,0.004886922,-0.009773844,-0.0030543262,-0.04176875576376915,0.019042961299419403,-1.2645189762115479,1015.938,
2021.01.16 16:04:26,81.0,24.0,42.719997,12.0,-31.019999,-0.10534488,0.4189853,9.710882,0.016493361,0.02321288,-0.007941248,-0.04311668127775192,0.010847700759768486,-1.2657257318496704,1015.938,
2021.01.16 16:04:26,81.0,24.0,42.719997,11.94,-31.26,-0.17238252,0.38067806,9.679757,0.014049901,-6.1086525E-4,-0.0067195175,-0.03930075466632843,0.017806675285100937,-1.2675926685333252,1015.938,
2021.01.16 16:04:26,81.0,24.0,42.78,11.82,-30.9,-0.22026655,0.40701428,9.787497,0.021380283,0.01160644,-0.018325957,-0.04155066981911659,0.02250109240412712,-1.2682386636734009,1015.938,
2021.01.16 16:04:26,81.0,24.0,42.84,11.82,-31.08,-0.31124622,0.47644615,9.536105,0.015271631,0.012217305,0.0067195175,-0.0498943030834198,0.032627131789922714,-1.2600702047348022,1015.9343,
2021.01.16 16:04:26,81.0,24.0,42.96,11.759999,-31.439999,-0.1316811,0.4237737,9.737218,0.0030543262,-0.0012217305,0.025045475,-0.04348960891366005,0.013522658497095108,-1.2711282968521118,1015.9343,
2021.01.16 16:04:26,81.0,24.0,42.48,11.5199995,-31.26,-0.20829555,0.4213795,9.765948,0.017715093,0.0067195175,0.018325957,-0.04311129078269005,0.021325526759028435,-1.2715857028961182,1015.9343,
2021.01.16 16:04:26,81.0,24.0,42.3,11.5199995,-31.08,-0.19153613,0.45010993,9.595961,0.018325957,-0.023823744,0.020158553,-0.046862512826919556,0.01995742879807949,-1.2683428525924683,1015.9343,
2021.01.16 16:04:26,81.0,24.0,42.36,11.219999,-30.96,-0.15083471,0.48362875,9.665392,0.014049901,0.015882496,0.019547688,-0.04998938366770744,0.015604382380843163,-1.274431824684143,1015.9346,
2021.01.16 16:04:26,81.0,24.0,42.36,11.46,-30.42,-0.16519992,0.48362875,9.787497,0.007330383,-0.015882496,0.021991149,-0.04936574399471283,0.01687706634402275,-1.2699373960494995,1015.9346,
2021.01.16 16:04:26,81.0,24.0,43.2,11.759999,-30.9,-0.10534488,0.37828386,9.634268,0.02443461,0.0,0.020158553,-0.03924190625548363,0.010933957993984222,-1.2766916751861572,1015.9346,
2021.01.16 16:04:26,81.0,24.0,43.5,11.88,-31.26,-0.19393034,0.4285621,9.600749,0.013439035,-0.019547688,0.007941248,-0.04459970444440842,0.02019675448536873,-1.2698873281478882,1015.9346,
2021.01.16 16:04:26,81.0,24.0,43.32,11.5199995,-30.96,-0.21547815,0.5506664,9.646238,-0.0030543262,-0.012217305,0.016493361,-0.057010043412446976,0.022334333509206772,-1.267868995666504,1015.93994,
2021.01.16 16:04:26,81.0,24.0,43.559998,11.639999,-31.439999,-0.10295067,0.5291186,9.883265,-0.0012217305,0.017104227,0.029321533,-0.053482867777347565,0.010416288860142231,-1.2717347145080566,1015.93994,
2021.01.16 16:04:26,81.0,24.0,43.14,11.16,-30.96,-0.0023942017,0.47405192,9.751583,0.028099801,0.0030543262,0.015882496,-0.04857457056641579,2.455192734487355E-4,-1.2854998111724854,1015.93994,
2021.01.16 16:04:26,81.0,24.0,42.96,10.62,-30.66,-0.08619126,0.45729253,9.607931,0.02443461,-0.009162978,-0.005497787,-0.047557514160871506,0.00897060427814722,-1.2949110269546509,1015.93994,
2021.01.16 16:04:26,81.0,24.0,43.14,11.04,-30.72,-0.1388637,0.44532153,9.56723,0.017104227,0.017104227,-0.014660766,-0.04650808498263359,0.014513494446873665,-1.2862663269042969,1015.93506,
2021.01.16 16:04:26,81.0,24.0,42.6,10.98,-30.72,-0.15083471,0.47884035,9.718064,0.0012217305,0.017715093,-0.014660766,-0.04922749102115631,0.015519818291068077,-1.282058596611023,1015.93506,
2021.01.16 16:04:26,81.0,24.0,42.6,10.98,-31.08,-0.17477672,0.49320555,9.706094,0.007941248,0.016493361,-0.02076942,-0.0507621243596077,0.01800495944917202,-1.279962420463562,1015.93506,
2021.01.16 16:04:26,81.0,24.0,42.84,11.34,-31.26,-0.15322891,0.47405192,9.720459,0.014049901,-0.007330383,-0.007941248,-0.048723820596933365,0.015762241557240486,-1.2754623889923096,1015.93506,
2021.01.16 16:04:26,81.0,24.0,42.719997,11.16,-31.679998,-0.12210429,0.47644615,9.603143,0.0030543262,0.007941248,-0.014660766,-0.049568913877010345,0.01271434873342514,-1.2782851457595825,1015.9409,
2021.01.16 16:04:26,81.0,24.0,42.899998,11.16,-31.679998,-0.05746084,0.45729253,9.696517,-0.01282817,-0.002443461,-0.014049901,-0.047124750912189484,0.005925856530666351,-1.2828128337860107,1015.9409,
2021.01.16 16:04:26,81.0,24.0,42.899998,11.46,-31.32,-0.11731588,0.45010993,9.794679,0.0036651916,0.019547688,-0.035430185,-0.045918937772512436,0.011976939626038074,-1.2760517597198486,1015.9409,
2021.01.16 16:04:26,81.0,24.0,42.719997,11.82,-31.08,-0.08619126,0.4429273,9.576807,0.0,0.0067195175,-0.039095376,-0.04621519520878792,0.008999757468700409,-1.2679352760314941,1015.9409,
2021.01.16 16:04:27,81.0,24.0,43.26,11.88,-30.539999,-0.1436521,0.4237737,9.696517,-0.012217305,0.0,-0.04520403,-0.043671123683452606,0.014813730493187904,-1.2710239887237549,1015.9319,
2021.01.16 16:04:27,81.0,24.0,43.379997,11.4,-30.599998,-0.2873042,0.49799395,9.639056,-0.012217305,0.007330383,-0.040317107,-0.05159541219472885,0.02979743666946888,-1.272993803024292,1015.9319,
2021.01.16 16:04:27,81.0,24.0,43.5,11.28,-30.779999,-0.2801216,0.521936,9.6845455,-0.015882496,-0.019547688,-0.030543262,-0.05381914600729942,0.028916535899043083,-1.2748476266860962,1015.9319,
2021.01.16 16:04:27,81.0,24.0,43.5,10.8,-31.019999,-0.2633622,0.5506664,9.742006,-0.017715093,0.005497787,-0.004276057,-0.056444283574819565,0.027027089148759842,-1.2835463285446167,1015.9319,
2021.01.16 16:04:27,81.0,24.0,42.899998,10.8,-31.32,-0.1316811,0.45968673,9.792285,-0.007941248,-0.01282817,-0.0030543262,-0.04690508916974068,0.013446623459458351,-1.2892813682556152,1015.92554,
2021.01.16 16:04:27,81.0,24.0,42.78,11.16,-31.14,-0.19393034,0.44771573,9.67018,-0.0012217305,0.002443461,-0.01038471,-0.04625626280903816,0.020051782950758934,-1.2797045707702637,1015.92554,
2021.01.16 16:04:27,81.0,24.0,42.54,11.219999,-31.08,-0.1316811,0.45250413,9.65821,-0.01282817,-0.009162978,-0.014660766,-0.046813178807497025,0.01363326609134674,-1.2781323194503784,1015.92554,
2021.01.16 16:04:27,81.0,24.0,42.54,11.5199995,-31.26,-0.1604115,0.4429273,9.698911,-0.021380283,0.004276057,-0.015271631,-0.045629795640707016,0.0165376178920269,-1.271484136581421,1015.92554,
2021.01.16 16:04:27,81.0,24.0,42.78,11.759999,-30.96,-0.16519992,0.45968673,9.701305,-0.01038471,6.1086525E-4,-0.026267206,-0.047341737896203995,0.017026981338858604,-1.2669596672058105,1015.9248,
2021.01.16 16:04:27,81.0,24.0,42.96,11.58,-30.66,-0.19393034,0.51235914,9.758766,-0.022602014,0.010995574,-0.025045475,-0.05244395509362221,0.019869808107614517,-1.2682619094848633,1015.9248,
2021.01.16 16:04:27,81.0,24.0,43.079998,11.7,-30.66,-0.20829555,0.50996494,9.787497,-0.0030543262,0.015882496,-0.028099801,-0.05204487964510918,0.021278589963912964,-1.2663902044296265,1015.9248,
2021.01.16 16:04:27,81.0,24.0,43.26,11.88,-30.24,-0.1364695,0.49320555,9.710882,0.0,-0.0018325958,-0.01160644,-0.05074035003781319,0.014052328653633595,-1.2669652700424194,1015.9248,
2021.01.16 16:04:27,81.0,24.0,43.2,11.7,-30.66,-0.090979666,0.4165911,9.679757,-0.0012217305,-0.002443461,-0.017715093,-0.04300890862941742,0.009398684836924076,-1.276096224784851,1015.9348,
2021.01.16 16:04:27,81.0,24.0,42.66,12.179999,-31.019999,-0.06464344,0.40222588,9.674969,-0.0061086523,0.0030543262,-0.034208454,-0.041549019515514374,0.006681414786726236,-1.2635482549667358,1015.9348,
2021.01.16 16:04:27,81.0,24.0,42.36,12.48,-31.26,-0.21068975,0.49320555,9.696517,-0.004886922,0.004276057,-0.047647487,-0.05080842599272728,0.02172497659921646,-1.244570255279541,1015.9348,
2021.01.16 16:04:27,81.0,24.0,41.82,12.3,-31.92,-0.21547815,0.50278234,9.830592,-0.0036651916,6.1086525E-4,-0.031154128,-0.051087893545627594,0.021915635094046593,-1.2434325218200684,1015.9348,
2021.01.16 16:04:27,81.0,24.0,41.76,12.54,-31.619999,-0.29209262,0.44532153,9.832987,0.021380283,0.0030543262,-0.02321288,-0.04523767903447151,0.029696648940443993,-1.2399938106536865,1015.9324,
2021.01.16 16:04:27,81.0,24.0,41.879997,11.94,-31.92,-0.25617957,0.48841715,9.579201,0.029321533,-0.029321533,-0.008552114,-0.050924964249134064,0.026736939325928688,-1.2504686117172241,1015.9324,
2021.01.16 16:04:27,81.0,24.0,41.94,11.639999,-31.619999,-0.12689269,0.40462008,9.7803135,0.019547688,0.002443461,0.014049901,-0.0413438118994236,0.01297356840223074,-1.268297791481018,1015.9324,
2021.01.16 16:04:27,81.0,24.0,42.36,11.58,-30.96,0.055066638,0.40462008,9.715671,0.03481932,-0.0012217305,-0.0061086523,-0.041621413081884384,-0.005667755845934153,-1.2774479389190674,1015.9324,
2021.01.16 16:04:27,81.0,24.0,42.48,11.4,-31.08,-0.15562311,0.4357447,9.636662,0.03176499,-0.007941248,-0.031154128,-0.045180730521678925,0.016147663816809654,-1.274295449256897,1015.938,
2021.01.16 16:04:27,81.0,24.0,42.899998,11.46,-30.84,-0.29688102,0.49320555,9.591172,0.0036651916,0.014660766,-0.02321288,-0.051353055983781815,0.030943691730499268,-1.268049716949463,1015.938,
2021.01.16 16:04:27,81.0,24.0,42.96,11.34,-30.72,-0.24660277,0.46686932,9.742006,-0.0061086523,-0.008552114,0.008552114,-0.04787137731909752,0.025307942181825638,-1.2750385999679565,1015.938,
2021.01.16 16:04:27,81.0,24.0,42.78,11.16,-31.019999,-0.29209262,0.5506664,9.739613,0.009773844,-0.013439035,0.0030543262,-0.05645338445901871,0.029981182888150215,-1.2702677249908447,1015.938,
2021.01.16 16:04:27,81.0,24.0,42.719997,10.86,-31.5,-0.095768064,0.4333505,9.713276,0.012217305,-0.007330383,0.03970624,-0.04458251968026161,0.009859181940555573,-1.289111852645874,1015.9468,
2021.01.16 16:04:28,81.0,24.0,42.66,10.92,-31.439999,-0.045489833,0.40701428,9.600749,0.004276057,-0.01038471,-0.004886922,-0.04236816242337227,0.004738118965178728,-1.2902247905731201,1015.9468,
2021.01.16 16:04:28,81.0,24.0,42.899998,10.92,-31.439999,-0.16998832,0.521936,9.715671,0.01038471,0.01282817,0.002443461,-0.05366125702857971,0.01749451830983162,-1.2809101343154907,1015.9468,
2021.01.16 16:04:28,81.0,24.0,42.78,11.16,-31.439999,-0.1604115,0.59615624,9.622296,0.009162978,-0.002443461,0.01038471,-0.061868052929639816,0.016669269651174545,-1.269567608833313,1015.9468,
2021.01.16 16:04:28,81.0,24.0,42.42,11.5199995,-31.38,-0.038307227,0.50757074,9.816227,0.002443461,0.004276057,0.014049901,-0.05166091397404671,0.0039024190045893192,-1.2697285413742065,1015.9468,
2021.01.16 16:04:28,81.0,24.0,42.48,11.88,-31.439999,-0.23702596,0.60573304,9.629479,0.02076942,-0.018936822,0.0018325958,-0.0628022849559784,0.024609649553894997,-1.249111294746399,1015.9468,
2021.01.16 16:04:28,81.0,24.0,42.36,12.0,-31.8,-0.093373865,0.50038815,9.739613,-0.0036651916,0.004276057,0.029321533,-0.051329106092453,0.009586727246642113,-1.2572267055511475,1015.9468,
2021.01.16 16:04:28,81.0,24.0,42.719997,12.0,-31.74,-0.09816227,0.5482722,9.753978,0.009773844,-0.02076942,0.009162978,-0.056148190051317215,0.010063479654490948,-1.2564184665679932,1015.9468,
2021.01.16 16:04:28,81.0,24.0,43.02,12.0,-31.14,-0.031124622,0.46447513,9.667787,0.004276057,0.0012217305,0.01282817,-0.04800642281770706,0.0032194042578339577,-1.2663242816925049,1015.92334,
2021.01.16 16:04:28,81.0,24.0,42.899998,11.7,-31.38,-0.1436521,0.50996494,9.770737,-0.0061086523,-0.029321533,-0.004276057,-0.05214015021920204,0.014701219275593758,-1.265946865081787,1015.92334,
2021.01.16 16:04:28,81.0,24.0,42.96,11.82,-30.84,-0.1340753,0.557849,9.665392,0.010995574,-0.009773844,0.0036651916,-0.05764663219451904,0.01387079805135727,-1.261042833328247,1015.92334,
2021.01.16 16:04:28,81.0,24.0,42.719997,11.88,-30.72,-0.110133275,0.5554548,9.653421,-0.009162978,-0.010995574,0.005497787,-0.05747257545590401,0.011408235877752304,-1.2590502500534058,1015.92334,
2021.01.16 16:04:28,81.0,24.0,42.84,11.88,-31.14,-0.20111294,0.5530606,9.78989,-0.009162978,-0.021991149,0.014660766,-0.05642117187380791,0.020540032535791397,-1.2575472593307495,1015.9065,
2021.01.16 16:04:28,81.0,24.0,42.48,11.759999,-30.779999,0.023942016,0.47405192,9.722853,0.0,-0.007941248,0.025045475,-0.04871773347258568,-0.0024624427314847708,-1.269169807434082,1015.9065,
2021.01.16 16:04:28,81.0,24.0,42.48,11.759999,-31.08,-0.06943185,0.533907,9.701305,0.0036651916,-0.018936822,-6.1086525E-4,-0.05497768148779869,0.00715683726593852,-1.2622816562652588,1015.9065,
2021.01.16 16:04:28,81.0,24.0,42.84,11.58,-31.5,-0.038307227,0.50278234,9.7084875,0.005497787,0.0067195175,0.004886922,-0.05174129083752632,0.003945725969970226,-1.2710325717926025,1015.9065,
2021.01.16 16:04:28,81.0,24.0,43.2,11.4,-31.5,-0.06703765,0.49799395,9.753978,-0.004886922,-0.017715093,-0.004886922,-0.051009975373744965,0.006872743833810091,-1.2769583463668823,1015.9072,
2021.01.16 16:04:28,81.0,24.0,43.5,11.5199995,-31.8,-0.17477672,0.545878,9.564836,0.012217305,0.014049901,-0.017104227,-0.05700000375509262,0.018270807340741158,-1.2690167427062988,1015.9072,
2021.01.16 16:04:28,81.0,24.0,43.2,11.639999,-31.859999,-0.088585466,0.5291186,9.85214,-0.021991149,-0.007330383,0.012217305,-0.05365224555134773,0.00899125263094902,-1.2691302299499512,1015.9072,
2021.01.16 16:04:28,81.0,24.0,42.84,11.94,-31.98,-0.035913024,0.5482722,9.674969,0.008552114,-0.012217305,0.004276057,-0.056608207523822784,0.0037119353655725718,-1.2596395015716553,1015.9072,
2021.01.16 16:04:28,81.0,24.0,42.3,12.179999,-32.04,-0.088585466,0.49559975,9.751583,0.0,-0.018325957,0.004276057,-0.05077671259641647,0.009083963930606842,-1.2531752586364746,1015.9116,
2021.01.16 16:04:28,81.0,24.0,42.42,12.719999,-32.04,0.0,0.48362875,9.722853,0.009162978,-0.013439035,0.004886922,-0.04970048367977142,1.0E-6,-1.2457387447357178,1015.9116,
2021.01.16 16:04:28,81.0,24.0,42.48,12.54,-32.219997,-0.08140286,0.49320555,9.682152,0.01160644,-0.008552114,-0.004886922,-0.0508938767015934,0.008407319895923138,-1.2466645240783691,1015.9116,
2021.01.16 16:04:28,81.0,24.0,42.42,12.42,-32.219997,-0.079008654,0.49559975,9.691729,0.009162978,0.0012217305,-0.0030543262,-0.05109016224741936,0.008151993155479431,-1.2487292289733887,1015.9116,
2021.01.16 16:04:28,81.0,24.0,42.48,11.94,-32.28,-0.07182605,0.49559975,9.667787,0.0018325958,-0.005497787,0.0018325958,-0.05121675133705139,0.007429283112287521,-1.259450912475586,1015.92847,
2021.01.16 16:04:28,81.0,24.0,42.12,11.759999,-32.28,-0.093373865,0.5410896,9.742006,0.0030543262,0.0061086523,0.009162978,-0.05548235401511192,0.00958437193185091,-1.2572906017303467,1015.92847,
2021.01.16 16:04:29,81.0,24.0,42.12,12.059999,-32.34,0.0023942017,0.49081135,9.739613,0.012217305,-0.009773844,0.01160644,-0.050350721925497055,-2.458210219629109E-4,-1.2569881677627563,1015.92847,
2021.01.16 16:04:29,81.0,24.0,42.18,12.24,-32.34,0.07182605,0.47644615,9.753978,0.021991149,0.0018325958,-0.0067195175,-0.04880623146891594,-0.0073636369779706,-1.2565116882324219,1015.92847,
2021.01.16 16:04:29,81.0,24.0,42.12,12.84,-32.399998,-0.088585466,0.50038815,9.52174,0.015271631,-0.0012217305,-0.022602014,-0.0525016114115715,0.009303227066993713,-1.2360998392105103,1015.92944,
2021.01.16 16:04:29,81.0,24.0,42.239998,12.78,-32.46,-0.095768064,0.5386954,9.674969,-0.0012217305,0.0030543262,0.0061086523,-0.055619146674871445,0.009898216463625431,-1.2358858585357666,1015.92944,
2021.01.16 16:04:29,81.0,24.0,42.059998,12.24,-31.859999,-0.009576807,0.46208093,9.7324295,0.005497787,-0.0061086523,0.0012217305,-0.04744282737374306,9.840094717219472E-4,-1.2548470497131348,1015.92944,
2021.01.16 16:04:29,81.0,24.0,42.18,12.059999,-31.619999,-0.04309563,0.48602295,9.64145,0.01038471,-0.0030543262,-0.01160644,-0.0503666028380394,0.004469798877835274,-1.256915807723999,1015.92944,
2021.01.16 16:04:29,81.0,24.0,41.82,11.4,-31.5,-0.10295067,0.545878,9.528923,0.0030543262,-0.0012217305,-0.004276057,-0.05722055584192276,0.010803598910570145,-1.2624976634979248,1015.93115,
2021.01.16 16:04:29,81.0,24.0,41.82,11.5199995,-31.8,-0.016759412,0.50517654,9.715671,-0.014660766,-0.004886922,0.012217305,-0.051949188113212585,0.0017249860102310777,-1.265560507774353,1015.93115,
2021.01.16 16:04:29,81.0,24.0,42.059998,11.759999,-32.28,-0.047884032,0.51475334,9.682152,0.005497787,0.0036651916,-0.01160644,-0.053114525973796844,0.004945557564496994,-1.2597901821136475,1015.93115,
2021.01.16 16:04:29,81.0,24.0,42.12,11.7,-32.46,-0.08379706,0.51714754,9.627085,-0.0030543262,-0.0036651916,0.004276057,-0.053664371371269226,0.008704083040356636,-1.259871244430542,1015.93115,
2021.01.16 16:04:29,81.0,24.0,42.18,12.179999,-32.219997,-0.110133275,0.48841715,9.622296,0.007941248,0.008552114,-0.009162978,-0.05071205645799637,0.011445133946835995,-1.2515064477920532,1015.9365,
2021.01.16 16:04:29,81.0,24.0,42.059998,12.059999,-31.859999,-0.062249243,0.545878,9.55047,0.02321288,-0.010995574,0.007941248,-0.05709385499358177,0.006517832167446613,-1.2506918907165527,1015.9365,
2021.01.16 16:04:29,81.0,24.0,41.76,11.759999,-31.859999,0.12928689,0.60094464,9.105149,-0.01038471,0.06841691,-0.0036651916,-0.06589832156896591,-0.014198360964655876,-1.2549457550048828,1015.9365,
2021.01.16 16:04:29,81.0,24.0,41.7,11.7,-31.439999,-0.09816227,0.58897364,10.146626,-0.032375857,-0.0018325958,0.01038471,-0.05797848477959633,0.009674073196947575,-1.2549824714660645,1015.9365,
2021.01.16 16:04:29,81.0,24.0,42.3,11.58,-31.019999,0.12210429,0.62488663,10.024523,0.056199603,-0.0983493,-0.0030543262,-0.062250636518001556,-0.012179956771433353,-1.2653664350509644,1015.9365,
