Time,X-cord,Y-cord,Mag_x,Mag_y,Mag_z,Acc_x,Acc_y,Acc_z,Gyro_x,Gyro_y,Gyro_z,Orn_x,Orn_y,Orn_z,Pressure,
2021.01.16 15:54:08,45.0,24.0,21.72,4.38,-30.779999,-0.4213795,0.78529817,8.446744,0.28038713,-0.08979719,-0.08124508,-0.09258955717086792,0.04984530061483383,-1.2232131958007812,1015.68384,
2021.01.16 15:54:08,45.0,24.0,21.3,3.78,-30.72,0.0,0.5770026,9.165004,0.015271631,-0.02565634,-0.040927973,-0.06287417560815811,1.0E-6,-1.309196949005127,1015.68384,
2021.01.16 15:54:09,45.0,24.0,21.3,3.36,-30.06,-0.05267244,0.81402856,9.682152,-0.12156218,0.02076942,0.01038471,-0.08387666940689087,0.005440104752779007,-1.299626350402832,1015.68384,
2021.01.16 15:54:09,45.0,24.0,21.119999,3.12,-29.76,-0.01436521,0.90021986,10.287885,-0.14477506,0.073303826,-0.040317107,-0.0872805118560791,0.0013963221572339535,-1.3064793348312378,1015.68384,
2021.01.16 15:54:09,45.0,24.0,21.72,3.0,-30.119999,0.016759412,0.81163436,10.067618,-0.106901415,-0.004276057,-0.02321288,-0.08044420927762985,-0.0016646833391860127,-1.3273214101791382,1015.6863,
2021.01.16 15:54:09,45.0,24.0,22.5,3.12,-30.06,0.019153614,0.6392518,9.562442,-0.008552114,-0.037873644,-0.032375857,-0.06675082445144653,-0.002003001980483532,-1.3478351831436157,1015.6863,
2021.01.16 15:54:09,45.0,24.0,22.439999,2.9399998,-30.539999,-0.038307227,0.581791,9.421184,0.018325957,-0.0842994,-0.039095376,-0.06167466565966606,0.004066050983965397,-1.3579707145690918,1015.6863,
2021.01.16 15:54:09,45.0,24.0,22.619999,2.76,-30.48,-0.009576807,0.641646,9.737218,0.02076942,-0.023823744,-0.048258353,-0.06580107659101486,9.835256496444345E-4,-1.3631361722946167,1015.6863,
2021.01.16 15:54:09,45.0,24.0,22.439999,3.1799998,-30.3,0.07182605,0.6895301,9.718064,-0.03359759,-0.028099801,-0.03848451,-0.07083280384540558,-0.007390848360955715,-1.3408715724945068,1015.6753,
2021.01.16 15:54:09,45.0,24.0,21.9,3.6599998,-30.779999,-0.062249243,0.6919243,9.763555,-0.0036651916,-0.014049901,-0.051923547,-0.07074835896492004,0.006375587545335293,-1.3080899715423584,1015.6753,
2021.01.16 15:54:09,45.0,24.0,22.02,3.9599998,-30.48,0.009576807,0.7086837,9.586384,0.01282817,0.008552114,-0.06169739,-0.07379180938005447,-9.99000621959567E-4,-1.2969211339950562,1015.6753,
2021.01.16 15:54:09,45.0,24.0,21.84,4.2599998,-30.599998,0.019153614,0.63206923,9.560047,0.015882496,-0.040317107,-0.043982297,-0.06601948291063309,-0.0020035034976899624,-1.292114496231079,1015.6753,
2021.01.16 15:54:09,45.0,24.0,21.42,4.08,-30.539999,0.02633622,0.62009823,9.622296,0.012217305,0.007330383,-0.04337143,-0.06435466557741165,-0.002736992435529828,-1.2973207235336304,1015.63696,
2021.01.16 15:54:09,45.0,24.0,21.84,3.6599998,-30.539999,-0.033518825,0.6919243,9.751583,-0.01038471,0.004886922,-0.045814894,-0.07083593308925629,0.00343725667335093,-1.3092633485794067,1015.63696,
2021.01.16 15:54:09,45.0,24.0,21.66,4.02,-30.779999,-0.1340753,0.7015011,9.710882,-0.013439035,-0.0030543262,-0.056199603,-0.07210654020309448,0.013805828988552094,-1.2845975160598755,1015.63696,
2021.01.16 15:54:09,45.0,24.0,21.84,4.14,-30.66,-0.1364695,0.6584055,9.562442,0.0,0.010995574,-0.05009095,-0.06873780488967896,0.014270437881350517,-1.2863341569900513,1015.63696,
2021.01.16 15:54:09,45.0,24.0,22.26,4.3199997,-30.3,0.0,0.60094464,9.734824,0.0061086523,-0.01038471,-0.021991149,-0.061653200536966324,1.0E-6,-1.3000426292419434,1015.6428,
2021.01.16 15:54:09,45.0,24.0,22.199999,4.14,-30.06,-0.059855044,0.6775591,9.629479,-0.0067195175,0.019547688,-0.004886922,-0.07024586945772171,0.006215733475983143,-1.2941800355911255,1015.6428,
2021.01.16 15:54:09,45.0,24.0,22.68,3.8999999,-30.48,-0.06464344,0.62488663,9.725247,0.0012217305,-0.0067195175,-0.010995574,-0.06416443735361099,0.0066468738950788975,-1.31592857837677,1015.6428,
2021.01.16 15:54:09,45.0,24.0,22.32,4.2,-30.42,-0.035913024,0.6368576,9.629479,-0.0030543262,0.023823744,0.0061086523,-0.06603960692882538,0.0037294705398380756,-1.2983723878860474,1015.6428,
2021.01.16 15:54:09,45.0,24.0,22.02,4.14,-30.779999,-0.06703765,0.6991069,9.713276,-0.009773844,0.0,0.01160644,-0.07184876501560211,0.006901542190462351,-1.2874506711959839,1015.6492,
2021.01.16 15:54:09,45.0,24.0,21.48,4.5,-31.019999,0.095768064,0.6536171,9.715671,-0.0061086523,0.017104227,0.020158553,-0.06717005372047424,-0.009856753051280975,-1.278405785560608,1015.6492,
2021.01.16 15:54:09,45.0,24.0,21.18,4.7999997,-30.84,-0.055066638,0.6392518,9.639056,0.0036651916,-0.013439035,0.017715093,-0.06622087955474854,0.005712803918868303,-1.2560441493988037,1015.6492,
2021.01.16 15:54:09,45.0,24.0,21.66,4.7999997,-30.9,-0.031124622,0.7278373,9.773131,-0.010995574,0.016493361,0.009773844,-0.07433570176362991,0.003184702480211854,-1.253244400024414,1015.6492,
2021.01.16 15:54:09,45.0,24.0,21.539999,5.04,-31.08,-0.016759412,0.7110779,9.794679,-0.002443461,-0.02565634,0.026267206,-0.07247114181518555,0.0017110715853050351,-1.244127869606018,1015.6426,
2021.01.16 15:54:09,45.0,24.0,21.9,4.68,-30.9,0.062249243,0.61052144,9.660604,0.01160644,0.01038471,0.028099801,-0.0631117895245552,-0.006443529389798641,-1.2801281213760376,1015.6426,
2021.01.16 15:54:09,45.0,24.0,22.26,4.2,-30.779999,0.12210429,0.5793968,9.653421,0.008552114,-0.021991149,0.03176499,-0.05994313955307007,-0.012648135423660278,-1.31101655960083,1015.6426,
2021.01.16 15:54:10,45.0,24.0,22.14,3.48,-30.599998,0.059855044,0.6488287,9.701305,0.0036651916,-0.009162978,0.008552114,-0.06677982956171036,-0.0061697144992649555,-1.3290684223175049,1015.6426,
2021.01.16 15:54:10,45.0,24.0,22.859999,2.8799999,-30.359999,-0.038307227,0.6871359,9.691729,-0.0030543262,0.014049901,-0.013439035,-0.07078021764755249,0.003952548373490572,-1.3532607555389404,1015.64575,
2021.01.16 15:54:10,45.0,24.0,22.439999,3.12,-30.539999,-0.011971008,0.7015011,9.821015,-0.0067195175,0.01282817,-0.013439035,-0.07130740582942963,0.0012189168483018875,-1.3389164209365845,1015.64575,
2021.01.16 15:54:10,45.0,24.0,21.96,3.36,-30.779999,-0.021547815,0.7134721,9.828198,-0.0012217305,-0.014049901,0.0018325958,-0.07246710360050201,0.002192444633692503,-1.3210886716842651,1015.64575,
2021.01.16 15:54:10,45.0,24.0,22.14,3.78,-31.14,-0.007182605,0.6655881,9.643845,0.0036651916,0.008552114,-0.004276057,-0.06890758872032166,7.447863463312387E-4,-1.3094159364700317,1015.64575,
2021.01.16 15:54:10,45.0,24.0,21.72,3.6599998,-30.9,0.06943185,0.6679823,9.770737,0.0061086523,-0.005497787,0.0030543262,-0.06825766712427139,-0.007105981931090355,-1.314538836479187,1015.66724,
2021.01.16 15:54:10,45.0,24.0,22.02,3.6,-30.9,0.055066638,0.6536171,9.691729,0.007941248,-0.007330383,0.0030543262,-0.06733766943216324,-0.005681756418198347,-1.321000099182129,1015.66724,
2021.01.16 15:54:10,45.0,24.0,21.84,3.72,-30.779999,-0.01436521,0.6895301,9.727641,6.1086525E-4,0.0030543262,-0.01282817,-0.07076514512300491,0.0014767403481528163,-1.3068801164627075,1015.66724,
2021.01.16 15:54:10,45.0,24.0,21.0,3.6599998,-31.32,-0.06943185,0.6775591,9.7563715,0.01160644,0.0030543262,-0.017104227,-0.06933477520942688,0.007116444408893585,-1.2971678972244263,1015.66724,
2021.01.16 15:54:10,45.0,24.0,21.06,3.6,-31.08,-0.035913024,0.7015011,9.634268,6.1086525E-4,-0.007330383,-0.0067195175,-0.07268434017896652,0.0037276167422533035,-1.298279047012329,1015.6699,
2021.01.16 15:54:10,45.0,24.0,21.42,3.72,-31.439999,-0.02873042,0.7015011,9.655815,0.009773844,0.01038471,-0.004886922,-0.07252289354801178,0.0029754438437521458,-1.2968499660491943,1015.6699,
2021.01.16 15:54:10,45.0,24.0,21.9,3.6599998,-31.26,-0.02633622,0.6751649,9.6845455,-0.0018325958,0.008552114,0.0036651916,-0.06960282474756241,0.002719400217756629,-1.3096808195114136,1015.6699,
2021.01.16 15:54:10,45.0,24.0,22.439999,3.6599998,-30.96,-0.007182605,0.6560113,9.713276,-0.0061086523,0.028099801,0.007330383,-0.06743516772985458,7.394625572487712E-4,-1.3201688528060913,1015.6699,
2021.01.16 15:54:10,45.0,24.0,22.5,4.3199997,-31.679998,-0.045489833,0.6440403,9.7563715,-0.010995574,0.036651913,0.0036651916,-0.06591592729091644,0.004662543069571257,-1.2917559146881104,1015.66943,
2021.01.16 15:54:10,45.0,24.0,21.96,4.44,-31.08,-0.074220255,0.7062895,9.78989,-0.013439035,0.03726278,-0.004276057,-0.07201793789863586,0.007581171113997698,-1.2726103067398071,1015.66943,
2021.01.16 15:54:10,45.0,24.0,22.199999,4.44,-30.96,-0.12928689,0.6751649,9.579201,-0.007330383,0.015882496,-0.009162978,-0.07035962492227554,0.013495806604623795,-1.2754533290863037,1015.66943,
2021.01.16 15:54:10,45.0,24.0,22.02,4.3199997,-30.66,-0.10295067,0.641646,9.753978,0.0061086523,0.03848451,-0.0061086523,-0.0656847134232521,0.010554345324635506,-1.2865558862686157,1015.66943,
2021.01.16 15:54:10,45.0,24.0,21.72,4.14,-30.179998,-0.11252748,0.6464345,9.76116,-0.013439035,0.021991149,0.007941248,-0.06612423062324524,0.011527573689818382,-1.2909557819366455,1015.6604,
2021.01.16 15:54:10,45.0,24.0,22.02,4.14,-30.3,-0.05746084,0.6751649,9.696517,-0.004886922,0.017715093,0.009162978,-0.06951621174812317,0.005925856996327639,-1.292341947555542,1015.6604,
2021.01.16 15:54:10,45.0,24.0,21.9,3.8999999,-30.3,-0.045489833,0.6799533,9.595961,0.01282817,-0.007941248,0.005497787,-0.07073924690485,0.004740483593195677,-1.3000284433364868,1015.6604,
2021.01.16 15:54:10,45.0,24.0,22.439999,3.72,-30.539999,-0.02633622,0.6847417,9.811439,-0.014660766,0.005497787,0.018325957,-0.06967691332101822,0.00268422975204885,-1.3152427673339844,1015.6604,
2021.01.16 15:54:10,45.0,24.0,22.38,3.12,-30.359999,-0.14604631,0.6991069,9.713276,-6.1086525E-4,0.018325957,-0.007330383,-0.07184237986803055,0.015034608542919159,-1.3329205513000488,1015.6614,
2021.01.16 15:54:10,45.0,24.0,22.08,2.9399998,-30.119999,-0.04309563,0.6991069,9.677363,0.0018325958,-0.020158553,0.008552114,-0.0721154659986496,0.004453211557120085,-1.3420395851135254,1015.6614,
2021.01.16 15:54:10,45.0,24.0,21.6,3.0,-30.359999,-0.1388637,0.7254431,9.727641,0.005497787,-0.0061086523,0.009773844,-0.07443009316921234,0.01427419763058424,-1.3266676664352417,1015.6614,
2021.01.16 15:54:10,45.0,24.0,21.48,3.0,-30.06,-0.06943185,0.6631939,9.710882,0.0030543262,0.0067195175,0.012217305,-0.06818626821041107,0.007149779237806797,-1.337562918663025,1015.6614,
2021.01.16 15:54:10,45.0,24.0,21.6,3.1799998,-30.179998,-0.035913024,0.6919243,9.627085,0.017104227,-0.019547688,0.026267206,-0.07174879312515259,0.003730397904291749,-1.327163577079773,1015.6648,
2021.01.16 15:54:11,45.0,24.0,21.72,3.0,-30.539999,0.045489833,0.6823475,9.643845,0.009162978,-0.0067195175,0.016493361,-0.07063621282577515,-0.0047169458121061325,-1.339867115020752,1015.6648,
2021.01.16 15:54:11,45.0,24.0,21.84,2.9399998,-30.599998,0.02873042,0.641646,9.883265,-0.01038471,0.017715093,0.019547688,-0.0648312196135521,-0.0029069685842841864,-1.3504302501678467,1015.6648,
2021.01.16 15:54:11,45.0,24.0,21.779999,3.1799998,-30.96,-0.15322891,0.79008657,9.583989,0.010995574,0.02076942,-0.016493361,-0.0822417214512825,0.015986647456884384,-1.3073190450668335,1015.6648,
2021.01.16 15:54:11,45.0,24.0,22.02,3.24,-30.9,-0.10295067,0.6823475,9.816227,0.007330383,-0.005497787,-0.013439035,-0.06939674913883209,0.010487420484423637,-1.3272476196289062,1015.68555,
2021.01.16 15:54:11,45.0,24.0,22.08,3.54,-30.72,-0.1436521,0.6512229,9.749189,0.017104227,0.027488936,0.009162978,-0.06669134646654129,0.014733707532286644,-1.3173673152923584,1015.68555,
2021.01.16 15:54:11,45.0,24.0,22.02,3.6599998,-30.48,-0.15562311,0.7230489,9.502586,0.030543262,-0.002443461,0.0036651916,-0.07593321800231934,0.016375456005334854,-1.299353003501892,1015.68555,
2021.01.16 15:54:11,45.0,24.0,21.84,3.84,-30.06,-0.10055647,0.7398083,9.6845455,0.025045475,0.007941248,0.014049901,-0.07623844593763351,0.010382815264165401,-1.2931406497955322,1015.68555,
2021.01.16 15:54:11,45.0,24.0,21.66,4.02,-30.179998,-0.04070143,0.7469909,9.713276,-0.0018325958,0.021380283,0.02565634,-0.07675236463546753,0.0041902638040483,-1.2849210500717163,1015.6924,
2021.01.16 15:54:11,45.0,24.0,21.84,3.6,-30.24,0.031124622,0.6943185,9.737218,0.009773844,0.017104227,0.021991149,-0.07118478417396545,-0.0031964483205229044,-1.3150105476379395,1015.6924,
2021.01.16 15:54:11,45.0,24.0,21.72,3.4199998,-30.42,-0.05746084,0.6655881,9.718064,0.009162978,-0.0061086523,0.015882496,-0.06838179379701614,0.0059127178974449635,-1.3208270072937012,1015.6924,
2021.01.16 15:54:11,45.0,24.0,21.779999,2.8799999,-30.72,-0.18195933,0.7302315,9.677363,0.015271631,0.022602014,-0.009773844,-0.07530171424150467,0.01880035735666752,-1.3296546936035156,1015.6924,
2021.01.16 15:54:11,45.0,24.0,21.66,2.82,-30.599998,-0.18914193,0.7637503,9.598354,0.016493361,0.0,-0.014660766,-0.079388327896595,0.019703112542629242,-1.325460433959961,1015.69385,
2021.01.16 15:54:11,45.0,24.0,21.42,2.8799999,-30.24,-0.076614454,0.7110779,9.746795,0.01282817,0.009773844,0.002443461,-0.07282379269599915,0.007860315032303333,-1.3351978063583374,1015.69385,
2021.01.16 15:54:11,45.0,24.0,21.539999,3.3,-30.179998,-0.1316811,0.6943185,9.512163,0.0061086523,0.007941248,0.01282817,-0.07285653054714203,0.013842560350894928,-1.3156143426895142,1015.69385,
2021.01.16 15:54:11,45.0,24.0,20.939999,3.4199998,-29.58,-0.059855044,0.7350199,9.751583,0.01282817,0.002443461,0.0067195175,-0.07523074746131897,0.006137905176728964,-1.3053566217422485,1015.69385,
2021.01.16 15:54:11,45.0,24.0,21.18,3.24,-29.82,-0.110133275,0.7134721,9.715671,-0.015271631,-0.0012217305,0.013439035,-0.07329891622066498,0.01133514754474163,-1.315799355506897,1015.68945,
2021.01.16 15:54:11,45.0,24.0,21.48,3.6,-30.179998,-0.090979666,0.6919243,9.643845,0.002443461,0.014049901,-0.004886922,-0.0716218501329422,0.009433683007955551,-1.3052207231521606,1015.68945,
2021.01.16 15:54:11,45.0,24.0,21.72,3.3,-30.0,-0.12689269,0.7326257,9.591172,0.005497787,0.0061086523,-0.0018325958,-0.0762307345867157,0.01322938222438097,-1.3140887022018433,1015.68945,
2021.01.16 15:54:11,45.0,24.0,22.32,3.24,-30.119999,-0.08379706,0.7158663,9.849746,0.007941248,-0.010995574,-0.0061086523,-0.07254847139120102,0.00850732997059822,-1.3295466899871826,1015.68945,
2021.01.16 15:54:11,45.0,24.0,22.26,3.84,-29.939999,-0.16759412,0.7326257,9.615114,0.0018325958,0.037873644,-0.017104227,-0.07603676617145538,0.01742851361632347,-1.2957996129989624,1015.68555,
2021.01.16 15:54:11,45.0,24.0,22.199999,3.78,-29.82,-0.15083471,0.7613561,9.488221,0.019547688,-0.0018325958,-0.017104227,-0.08006060868501663,0.01589570753276348,-1.2936018705368042,1015.68555,
2021.01.16 15:54:11,45.0,24.0,22.439999,3.3,-30.06,-0.24420857,0.7733272,9.615114,-0.002443461,0.007941248,-0.004886922,-0.08022976666688919,0.025392945855855942,-1.3117090463638306,1015.68555,
2021.01.16 15:54:11,45.0,24.0,21.9,3.36,-30.779999,-0.24181437,0.78529817,9.722853,-0.025045475,0.005497787,0.0067195175,-0.08056852966547012,0.02486559748649597,-1.2998274564743042,1015.68555,
2021.01.16 15:54:11,45.0,24.0,21.96,3.4199998,-31.32,-0.12928689,0.7206547,9.619903,-0.01038471,0.0036651916,0.016493361,-0.07476650178432465,0.013438711874186993,-1.3089567422866821,1015.6765,
2021.01.16 15:54:12,45.0,24.0,22.14,3.4199998,-31.439999,-0.02633622,0.6919243,9.734824,-0.009773844,0.007941248,0.031154128,-0.07095763832330704,0.002705354942008853,-1.320237159729004,1015.6765,
2021.01.16 15:54:12,45.0,24.0,22.02,3.8999999,-31.32,-0.14604631,0.7685388,9.65821,-0.017104227,-0.015271631,0.021991149,-0.07939726859331131,0.015120316296815872,-1.2821197509765625,1015.6765,
2021.01.16 15:54:12,45.0,24.0,22.619999,3.84,-30.96,-0.12928689,0.7493851,9.739613,-0.009773844,-0.009162978,0.007941248,-0.07678394764661789,0.013273555785417557,-1.2974358797073364,1015.6765,
2021.01.16 15:54:12,45.0,24.0,22.5,3.8999999,-30.66,-0.14844051,0.7422025,9.672575,-6.1086525E-4,-0.004886922,0.014660766,-0.07657362520694733,0.015345330350100994,-1.2938921451568604,1015.6782,
2021.01.16 15:54:12,45.0,24.0,22.32,3.8999999,-30.84,-0.074220255,0.7230489,9.749189,0.0,-0.013439035,0.01038471,-0.07402735203504562,0.007612819783389568,-1.2978272438049316,1015.6782,
2021.01.16 15:54:12,45.0,24.0,22.199999,3.8999999,-30.9,-0.08619126,0.80205756,9.6845455,0.007330383,6.1086525E-4,0.012217305,-0.08262646943330765,0.008899642154574394,-1.2845399379730225,1015.6782,
2021.01.16 15:54:12,45.0,24.0,21.84,4.2599998,-30.539999,-0.1412579,0.7565677,9.655815,0.023823744,0.0030543262,-0.005497787,-0.07818549126386642,0.014628264121711254,-1.269088625907898,1015.6782,
2021.01.16 15:54:12,45.0,24.0,21.9,3.6,-30.24,-0.04309563,0.6847417,9.7324295,0.015882496,0.0067195175,0.0018325958,-0.07024026662111282,0.00442801509052515,-1.3138006925582886,1015.6592,
2021.01.16 15:54:12,45.0,24.0,21.72,3.54,-30.179998,-0.05267244,0.6967127,9.540894,0.018325957,-0.015882496,0.0036651916,-0.07289335131645203,0.005520646460354328,-1.310636281967163,1015.6592,
2021.01.16 15:54:12,45.0,24.0,21.6,3.24,-30.359999,-0.12689269,0.79966336,9.593566,0.02687807,0.0036651916,-0.021380283,-0.08315464854240417,0.013226081617176533,-1.3048475980758667,1015.6592,
2021.01.16 15:54:12,45.0,24.0,21.48,3.0,-30.599998,-0.04309563,0.7350199,9.727641,0.007330383,-0.015271631,-0.015271631,-0.07541588693857193,0.004430194851011038,-1.327224612236023,1015.6592,
2021.01.16 15:54:12,45.0,24.0,21.24,3.4199998,-30.9,-0.08379706,0.7422025,9.583989,0.018325957,0.014660766,-0.01282817,-0.07728472352027893,0.008743220008909702,-1.300512433052063,1015.6692,
2021.01.16 15:54:12,45.0,24.0,21.48,3.48,-30.539999,-0.16280572,0.79248077,9.64145,0.013439035,-0.009162978,-0.028710667,-0.08199919015169144,0.016884416341781616,-1.292048692703247,1015.6692,
2021.01.16 15:54:12,45.0,24.0,21.6,3.9599998,-30.3,-0.088585466,0.7589619,9.679757,0.0,-0.002443461,-0.027488936,-0.07824377715587616,0.009151365607976913,-1.282136082649231,1015.6692,
2021.01.16 15:54:12,45.0,24.0,21.48,4.02,-30.48,-0.047884032,0.6967127,9.727641,-0.007330383,-0.0018325958,-0.012217305,-0.07149899750947952,0.00492243142798543,-1.2881464958190918,1015.6692,
2021.01.16 15:54:12,45.0,24.0,22.08,3.6599998,-30.359999,-0.10534488,0.7158663,9.631873,-0.0018325958,0.004886922,-0.021991149,-0.07418182492256165,0.01093667559325695,-1.3051055669784546,1015.6565,
2021.01.16 15:54:12,45.0,24.0,21.539999,3.78,-30.84,-0.20111294,0.7781156,9.598354,0.009773844,0.008552114,-0.034208454,-0.0808730348944664,0.020949790254235268,-1.2781020402908325,1015.6565,
2021.01.16 15:54:12,45.0,24.0,21.42,3.4199998,-30.96,-0.11252748,0.7182605,9.775525,0.0,0.0030543262,-0.029932396,-0.07333874702453613,0.01151063572615385,-1.3066219091415405,1015.6565,
2021.01.16 15:54:12,45.0,24.0,21.66,3.3,-30.359999,-0.15322891,0.6991069,9.646238,-0.009162978,0.020158553,-0.01038471,-0.07233897596597672,0.01588349975645542,-1.3162187337875366,1015.6565,
2021.01.16 15:54:12,45.0,24.0,20.939999,3.6,-30.779999,-0.15083471,0.7637503,9.67018,0.007330383,0.009773844,-0.023823744,-0.0788067877292633,0.015596656128764153,-1.283821940422058,1015.6643,
2021.01.16 15:54:12,45.0,24.0,21.119999,3.36,-30.599998,-0.18195933,0.7230489,9.622296,0.0036651916,0.007330383,-0.0067195175,-0.07498876750469208,0.018907923251390457,-1.30131196975708,1015.6643,
2021.01.16 15:54:12,45.0,24.0,21.72,3.6599998,-30.48,-0.22744916,0.7350199,9.593566,-0.0036651916,-0.004886922,-0.0061086523,-0.07644513994455338,0.02370406873524189,-1.2916957139968872,1015.6643,
2021.01.16 15:54:12,45.0,24.0,22.08,3.54,-31.14,-0.29688102,0.7685388,9.677363,-0.020158553,6.1086525E-4,0.018325957,-0.07921269536018372,0.030668264254927635,-1.2919436693191528,1015.6643,
2021.01.16 15:54:12,45.0,24.0,22.199999,3.72,-30.779999,-0.15322891,0.7493851,9.6845455,-0.014049901,-0.010995574,0.03481932,-0.07721596956253052,0.015820683911442757,-1.2964564561843872,1015.67236,
2021.01.16 15:54:12,45.0,24.0,22.5,3.4199998,-31.14,-0.11971009,0.7062895,9.631873,-0.02321288,-0.0018325958,0.047647487,-0.07319173216819763,0.012427897192537785,-1.3181514739990234,1015.67236,
2021.01.16 15:54:12,45.0,24.0,22.14,3.4199998,-31.019999,0.059855044,0.6823475,9.725247,-0.0061086523,0.010995574,0.05009095,-0.07004636526107788,-0.006154525559395552,-1.3262192010879517,1015.67236,
2021.01.16 15:54:13,45.0,24.0,22.02,3.6,-30.96,-0.10295067,0.7422025,9.68694,-0.0061086523,0.002443461,0.023823744,-0.0764651745557785,0.010627379640936852,-1.3021043539047241,1015.67236,
2021.01.16 15:54:13,45.0,24.0,22.32,3.12,-30.96,-0.090979666,0.7422025,9.61272,0.007941248,0.0,-0.0018325958,-0.07705414295196533,0.009464225731790066,-1.32566237449646,1015.66797,
2021.01.16 15:54:13,45.0,24.0,22.08,3.6599998,-30.66,-0.15801731,0.7062895,9.785102,0.004276057,-0.0030543262,-0.004886922,-0.07204576581716537,0.01614736206829548,-1.304679036140442,1015.66797,
2021.01.16 15:54:13,45.0,24.0,21.48,3.6,-30.599998,-0.20829555,0.7589619,9.52174,0.009162978,-0.013439035,-0.002443461,-0.07952120900154114,0.021872298792004585,-1.2875410318374634,1015.66797,
2021.01.16 15:54:13,45.0,24.0,21.9,3.36,-30.539999,-0.1388637,0.7613561,9.703699,0.0030543262,-0.004276057,-0.008552114,-0.07829201221466064,0.014309410937130451,-1.3084677457809448,1015.66797,
2021.01.16 15:54:13,45.0,24.0,21.66,3.36,-30.84,-0.06943185,0.6991069,9.674969,-0.009162978,-0.0061086523,0.017715093,-0.07213211804628372,0.00717631820589304,-1.315942406654358,1015.6653,
2021.01.16 15:54:13,45.0,24.0,21.96,3.24,-30.779999,-0.016759412,0.6655881,9.624691,0.0036651916,0.0061086523,0.017104227,-0.06904420256614685,0.0017412917222827673,-1.3309016227722168,1015.6653,
2021.01.16 15:54:13,45.0,24.0,22.199999,3.06,-30.72,-0.1316811,0.6871359,9.598354,0.004886922,-0.004276057,0.002443461,-0.0714603066444397,0.013718272559344769,-1.333482265472412,1015.6653,
2021.01.16 15:54:13,45.0,24.0,21.779999,3.1799998,-30.24,-0.18914193,0.7541735,9.65821,0.002443461,0.004276057,-0.01038471,-0.07791325449943542,0.019581036642193794,-1.3142611980438232,1015.6653,
2021.01.16 15:54:13,45.0,24.0,22.199999,3.1799998,-30.3,-0.10295067,0.7278373,9.636662,-0.005497787,0.008552114,-0.004276057,-0.07538054138422012,0.01068282313644886,-1.3257399797439575,1015.6738,
2021.01.16 15:54:13,45.0,24.0,22.08,2.76,-30.24,-0.05746084,0.6943185,9.665392,-0.009162978,0.013439035,0.008552114,-0.07171107083559036,0.005944938864558935,-1.3494168519973755,1015.6738,
2021.01.16 15:54:13,45.0,24.0,22.199999,2.3999999,-30.539999,-0.059855044,0.7110779,9.7084875,-0.007941248,0.010995574,0.004886922,-0.07311098277568817,0.006165150552988052,-1.363282322883606,1015.6738,
2021.01.16 15:54:13,45.0,24.0,22.199999,2.52,-31.08,-0.12449849,0.7541735,9.636662,-0.009162978,0.009773844,-0.009773844,-0.07809518277645111,0.012918536551296711,-1.347082495689392,1015.6738,
2021.01.16 15:54:13,45.0,24.0,22.26,2.34,-30.599998,-0.1412579,0.79726917,9.636662,0.0012217305,0.002443461,-0.014049901,-0.08253610879182816,0.014657336287200451,-1.3506016731262207,1015.66846,
2021.01.16 15:54:13,45.0,24.0,22.38,3.0,-30.539999,-0.11252748,0.7038953,9.720459,-0.002443461,0.009773844,-0.016493361,-0.07228279113769531,0.011575838550925255,-1.3382445573806763,1015.66846,
2021.01.16 15:54:13,45.0,24.0,22.619999,3.0,-30.42,-0.05267244,0.6847417,9.718064,-0.01160644,0.0030543262,0.0018325958,-0.07034341245889664,0.005420001223683357,-1.345800518989563,1015.66846,
2021.01.16 15:54:13,45.0,24.0,22.8,2.8799999,-30.42,-0.22026655,0.79487497,9.595961,0.015271631,0.017715093,-0.015882496,-0.08262398093938828,0.0229500625282526,-1.3301124572753906,1015.66846,
2021.01.16 15:54:13,45.0,24.0,22.8,3.12,-30.48,-0.12449849,0.770933,9.564836,0.009162978,-0.015882496,-0.02443461,-0.0804201140999794,0.013015534728765488,-1.326583743095398,1015.6714,
2021.01.16 15:54:13,45.0,24.0,22.74,2.8799999,-30.359999,-0.1340753,0.6799533,9.734824,0.005497787,0.0,0.0,-0.06972766667604446,0.013771879486739635,-1.3499982357025146,1015.6714,
2021.01.16 15:54:13,45.0,24.0,22.92,3.3,-30.24,-0.1412579,0.7158663,9.691729,-0.004276057,0.0012217305,0.0012217305,-0.07372194528579712,0.014574066735804081,-1.3290226459503174,1015.6714,
2021.01.16 15:54:13,45.0,24.0,22.619999,3.48,-30.119999,-0.15083471,0.7445967,9.586384,0.01282817,0.002443461,-0.013439035,-0.0775071308016777,0.015732966363430023,-1.3133965730667114,1015.6714,
2021.01.16 15:54:13,45.0,24.0,22.02,3.78,-30.06,-0.11492168,0.6991069,9.68694,-0.0018325958,-0.007941248,-0.0036651916,-0.07204008102416992,0.011863011866807938,-1.3026238679885864,1015.6797,
2021.01.16 15:54:13,45.0,24.0,22.199999,3.48,-29.939999,-0.1436521,0.6464345,9.667787,0.008552114,-6.1086525E-4,-0.0012217305,-0.06675805896520615,0.014857747592031956,-1.323521375656128,1015.6797,
2021.01.16 15:54:13,45.0,24.0,21.359999,3.54,-29.699999,-0.15322891,0.7565677,9.607931,-0.0018325958,0.0,-0.007941248,-0.07857198268175125,0.01594681665301323,-1.2960445880889893,1015.6797,
2021.01.16 15:54:13,45.0,24.0,21.3,3.72,-30.06,-0.20590134,0.7589619,9.689334,0.004276057,-0.009162978,-0.01282817,-0.07815244793891907,0.02124711126089096,-1.2840828895568848,1015.6797,
2021.01.16 15:54:14,45.0,24.0,21.9,3.36,-29.76,-0.10534488,0.7422025,9.7324295,-0.01160644,0.010995574,0.005497787,-0.07610899955034256,0.010823685675859451,-1.315514087677002,1015.6948,
2021.01.16 15:54:14,45.0,24.0,21.48,3.54,-30.359999,-0.11252748,0.6943185,9.651027,-0.0061086523,-0.01038471,0.004886922,-0.07181385159492493,0.011659109964966774,-1.3060498237609863,1015.6948,
2021.01.16 15:54:14,45.0,24.0,22.26,3.48,-30.84,-0.08619126,0.7110779,9.698911,0.007941248,0.008552114,-0.0018325958,-0.07318141311407089,0.008886461146175861,-1.3154126405715942,1015.6948,
2021.01.16 15:54:14,45.0,24.0,22.02,3.12,-30.72,-0.15322891,0.7469909,9.579201,0.0036651916,-0.01160644,-0.007941248,-0.07781309634447098,0.015994638204574585,-1.3195239305496216,1015.6948,
2021.01.16 15:54:14,45.0,24.0,21.48,3.1799998,-31.5,-0.2657564,0.6943185,9.643845,6.1086525E-4,-0.0012217305,-0.007330383,-0.07184483855962753,0.02755012921988964,-1.311093807220459,1015.6924,
2021.01.16 15:54:14,45.0,24.0,21.9,2.9399998,-31.32,-0.22744916,0.7254431,9.61272,-0.01038471,-0.0036651916,0.0012217305,-0.07530321925878525,0.023656856268644333,-1.3241276741027832,1015.6924,
2021.01.16 15:54:14,45.0,24.0,21.42,2.9399998,-31.5,-0.095768064,0.7278373,9.691729,6.1086525E-4,-0.013439035,0.0012217305,-0.07495445758104324,0.009881100617349148,-1.3245067596435547,1015.6924,
2021.01.16 15:54:14,45.0,24.0,21.539999,3.24,-31.199999,-0.023942016,0.6991069,9.646238,-0.012217305,-0.017104227,0.020158553,-0.07234784215688705,0.002482000505551696,-1.3203418254852295,1015.6924,
2021.01.16 15:54:14,45.0,24.0,21.72,3.24,-31.199999,-0.074220255,0.7398083,9.720459,0.0061086523,0.018936822,0.0,-0.0759597197175026,0.007635319605469704,-1.3153061866760254,1015.6804,
2021.01.16 15:54:14,45.0,24.0,21.3,3.84,-31.32,-0.17956513,0.7326257,9.677363,-0.007330383,-0.014660766,-0.004886922,-0.07554800808429718,0.01855304092168808,-1.2789944410324097,1015.6804,
2021.01.16 15:54:14,45.0,24.0,21.48,4.08,-30.779999,-0.11731588,0.7182605,9.696517,0.005497787,0.016493361,-0.013439035,-0.07393365353345871,0.012098174542188644,-1.2780503034591675,1015.6804,
2021.01.16 15:54:14,45.0,24.0,21.66,4.14,-30.96,-0.20829555,0.7422025,9.516952,-0.0036651916,-0.014660766,0.004276057,-0.0778113305568695,0.021883299574255943,-1.2672635316848755,1015.6804,
2021.01.16 15:54:14,45.0,24.0,21.84,4.2599998,-30.66,-0.04070143,0.6847417,9.706094,0.01038471,0.004886922,-0.0036651916,-0.07043029367923737,0.004193364642560482,-1.2835662364959717,1015.6692,
2021.01.16 15:54:14,45.0,24.0,22.08,3.84,-30.3,-0.107739076,0.7589619,9.665392,-0.02443461,-0.0018325958,0.017104227,-0.07835801690816879,0.011146429926156998,-1.2921791076660156,1015.6692,
2021.01.16 15:54:14,45.0,24.0,21.96,3.78,-30.599998,-0.1364695,0.7134721,9.746795,-6.1086525E-4,0.0018325958,-0.005497787,-0.07306323200464249,0.014000560157001019,-1.297889232635498,1015.6692,
2021.01.16 15:54:14,45.0,24.0,21.9,3.78,-31.019999,-0.11971009,0.7374141,9.679757,-0.007941248,-0.0012217305,6.1086525E-4,-0.07602839171886444,0.012366424314677715,-1.2925597429275513,1015.6692,
2021.01.16 15:54:14,45.0,24.0,21.84,4.2,-31.08,-0.12210429,0.7374141,9.643845,0.0061086523,-6.1086525E-4,-0.005497787,-0.07631015032529831,0.012660694308578968,-1.273162603378296,1015.66943,
2021.01.16 15:54:14,45.0,24.0,21.66,4.3199997,-31.32,-0.05267244,0.6847417,9.706094,6.1086525E-4,-0.0018325958,0.002443461,-0.07042987644672394,0.00542668579146266,-1.2761554718017578,1015.66943,
2021.01.16 15:54:14,45.0,24.0,21.48,4.38,-31.199999,-0.10534488,0.6799533,9.665392,0.0012217305,0.0,0.0,-0.0702294111251831,0.010898752138018608,-1.26924729347229,1015.66943,
2021.01.16 15:54:14,45.0,24.0,21.66,4.44,-30.42,-0.1316811,0.7374141,9.653421,0.002443461,0.0012217305,-0.008552114,-0.07623376697301865,0.013640028424561024,-1.2624436616897583,1015.66943,
2021.01.16 15:54:14,45.0,24.0,21.72,4.02,-30.359999,-0.21547815,0.7254431,9.655815,0.0018325958,-0.012217305,-0.0067195175,-0.07497069239616394,0.022312190383672714,-1.2790238857269287,1015.68115,
2021.01.16 15:54:14,45.0,24.0,21.96,4.02,-30.3,-0.08619126,0.6584055,9.564836,0.002443461,-0.01160644,0.007330383,-0.0687248483300209,0.009011019952595234,-1.2963926792144775,1015.68115,
2021.01.16 15:54:14,45.0,24.0,22.08,4.02,-30.0,-0.05267244,0.6560113,9.610326,-0.0067195175,-0.0036651916,0.0,-0.06815434247255325,0.005480762105435133,-1.3009361028671265,1015.68115,
2021.01.16 15:54:14,45.0,24.0,21.779999,4.2,-30.48,-0.11492168,0.7158663,9.698911,-0.007330383,0.01282817,-0.0067195175,-0.07367019355297089,0.011848371475934982,-1.2782399654388428,1015.68115,
2021.01.16 15:54:14,45.0,24.0,21.6,4.2,-30.9,-0.15801731,0.7206547,9.720459,-0.01160644,0.01282817,-0.01160644,-0.07399281114339828,0.0162547267973423,-1.271963357925415,1015.67505,
2021.01.16 15:54:15,45.0,24.0,21.48,4.62,-30.84,-0.11492168,0.7086837,9.622296,-0.012217305,-0.02321288,-0.0036651916,-0.07351220399141312,0.01194270234555006,-1.255259394645691,1015.67505,
2021.01.16 15:54:15,45.0,24.0,21.48,4.38,-31.199999,-0.14604631,0.6943185,9.619903,0.0061086523,0.008552114,-0.007330383,-0.07204199582338333,0.015180516056716442,-1.2647095918655396,1015.67505,
2021.01.16 15:54:15,45.0,24.0,21.24,4.08,-30.779999,-0.062249243,0.6775591,9.696517,-0.010995574,-0.0012217305,0.007330383,-0.0697617158293724,0.006419664714485407,-1.2831602096557617,1015.67505,
2021.01.16 15:54:15,45.0,24.0,21.66,4.02,-30.84,-0.06703765,0.6775591,9.674969,-0.010995574,0.004886922,0.0,-0.06991634517908096,0.006928867660462856,-1.2904412746429443,1015.6714,
2021.01.16 15:54:15,45.0,24.0,21.72,3.4199998,-30.66,-0.1436521,0.7422025,9.674969,0.0,-0.009773844,-0.009162978,-0.07655532658100128,0.014846719801425934,-1.3054008483886719,1015.6714,
2021.01.16 15:54:15,45.0,24.0,21.96,3.72,-30.3,-0.14844051,0.7062895,9.6845455,0.0061086523,0.004276057,-0.012217305,-0.07279214262962341,0.015326365828514099,-1.3012439012527466,1015.6714,
2021.01.16 15:54:15,45.0,24.0,22.26,3.9599998,-30.66,-0.05267244,0.6871359,9.68694,0.0018325958,-0.012217305,0.002443461,-0.0708146020770073,0.005437415558844805,-1.3002262115478516,1015.6714,
2021.01.16 15:54:15,45.0,24.0,21.72,4.02,-30.48,-0.1412579,0.7182605,9.545682,0.015271631,-0.0030543262,-0.0061086523,-0.07509482651948929,0.014797014184296131,-1.2819608449935913,1015.67505,
2021.01.16 15:54:15,45.0,24.0,21.359999,4.2,-30.48,-0.06943185,0.6560113,9.720459,0.012217305,-0.007941248,-0.01038471,-0.0673837959766388,0.00714273564517498,-1.283229112625122,1015.67505,
2021.01.16 15:54:15,45.0,24.0,21.06,3.8999999,-30.779999,-0.1316811,0.7613561,9.543288,0.007330383,0.0012217305,-0.005497787,-0.07960306853055954,0.013797418214380741,-1.271881103515625,1015.67505,
2021.01.16 15:54:15,45.0,24.0,21.18,3.54,-30.72,-0.10055647,0.6751649,9.6845455,0.017715093,-0.0030543262,-0.014660766,-0.06959934532642365,0.010382816195487976,-1.3048161268234253,1015.67505,
2021.01.16 15:54:15,45.0,24.0,21.18,3.54,-30.72,-0.1388637,0.62967503,9.617508,0.007941248,0.0012217305,-0.004886922,-0.06537164002656937,0.014437632635235786,-1.3088504076004028,1015.6826,
2021.01.16 15:54:15,45.0,24.0,21.359999,3.8999999,-31.32,-0.110133275,0.7182605,9.476251,0.018936822,0.014660766,-0.01038471,-0.07564610987901688,0.0116215068846941,-1.2803864479064941,1015.6826,
2021.01.16 15:54:15,45.0,24.0,21.779999,4.02,-31.32,-0.11492168,0.80205756,9.643845,0.018936822,0.008552114,-0.0036651916,-0.0829709991812706,0.011916019953787327,-1.2707219123840332,1015.6826,
2021.01.16 15:54:15,45.0,24.0,21.539999,3.78,-31.439999,-0.15562311,0.6679823,9.720459,-0.002443461,0.028710667,-0.0061086523,-0.06860258430242538,0.016008485108613968,-1.2951384782791138,1015.6826,
2021.01.16 15:54:15,45.0,24.0,21.539999,3.54,-31.5,-0.107739076,0.7493851,9.488221,-0.0067195175,0.013439035,-0.0012217305,-0.0788118988275528,0.011354546062648296,-1.293526530265808,1015.6792,
2021.01.16 15:54:15,45.0,24.0,21.66,3.12,-31.14,-0.20350714,0.7757214,9.677363,0.029932396,0.016493361,0.0030543262,-0.07996971905231476,0.021026093512773514,-1.3087129592895508,1015.6792,
2021.01.16 15:54:15,45.0,24.0,21.66,2.76,-31.199999,-0.15322891,0.7326257,9.682152,-0.007941248,0.0030543262,0.0012217305,-0.0755143091082573,0.015824593603610992,-1.332918405532837,1015.6792,
2021.01.16 15:54:15,45.0,24.0,21.96,3.1799998,-31.199999,-0.009576807,0.6799533,9.631873,0.009773844,-0.005497787,0.018325957,-0.07047712802886963,9.94282541796565E-4,-1.3306102752685547,1015.6792,
2021.01.16 15:54:15,45.0,24.0,21.96,3.6,-30.9,-0.08379706,0.78290397,9.674969,0.021991149,-0.008552114,0.021380283,-0.08074162155389786,0.008661005645990372,-1.2968435287475586,1015.6887,
2021.01.16 15:54:15,45.0,24.0,22.08,3.78,-30.9,-0.15562311,0.7613561,9.651027,0.015882496,-0.03604105,0.0012217305,-0.07871537655591965,0.016123633831739426,-1.2899125814437866,1015.6887,
2021.01.16 15:54:15,45.0,24.0,21.6,3.8999999,-31.08,-0.031124622,0.7493851,9.473856,0.035430185,-0.0030543262,-0.004276057,-0.07893554866313934,0.00328530534170568,-1.2838318347930908,1015.6887,
2021.01.16 15:54:15,45.0,24.0,21.18,3.78,-30.84,-0.06703765,0.7062895,9.346964,0.07269296,0.06536258,-0.01038471,-0.07541826367378235,0.007172008045017719,-1.287375807762146,1015.6887,
2021.01.16 15:54:15,45.0,24.0,21.18,3.36,-30.96,-0.21068975,0.7350199,10.251971,-0.061086524,0.21013765,-0.0580322,-0.07155794650316238,0.020548252388834953,-1.304819107055664,1015.68286,
2021.01.16 15:54:15,45.0,24.0,21.06,3.36,-30.84,-0.1388637,0.9552865,10.206482,-0.005497787,-0.11056661,-0.0061086523,-0.09331559389829636,0.013604601845145226,-1.2769434452056885,1015.68286,
2021.01.16 15:54:16,45.0,24.0,21.06,3.0,-30.779999,0.0,0.9672575,8.942344,0.112399206,-0.15760323,-0.028710667,-0.10774710029363632,1.0E-6,-1.2804445028305054,1015.68286,
