Time,X-cord,Y-cord,Mag_x,Mag_y,Mag_z,Acc_x,Acc_y,Acc_z,Gyro_x,Gyro_y,Gyro_z,Orn_x,Orn_y,Orn_z,Pressure,
2021.01.16 15:45:48,16.0,24.0,23.519999,-1.38,-31.859999,0.023942016,1.2808979,8.377312,0.19975294,-0.2779437,0.076358154,-0.15172511339187622,-0.002857951447367668,-1.4260731935501099,1015.8489,
2021.01.16 15:45:48,16.0,24.0,23.64,-1.92,-32.28,-0.4429273,1.0414777,9.107543,0.21685717,-0.095294975,-0.012217305,-0.11372546851634979,0.04859473183751106,-1.4856491088867188,1015.8447,
2021.01.16 15:45:48,16.0,24.0,23.64,-2.1599998,-32.1,-0.10534488,1.0055647,9.8042555,-0.065973446,-0.076358154,0.036651913,-0.10220086574554443,0.010744397528469563,-1.5213840007781982,1015.8447,
2021.01.16 15:45:48,16.0,24.0,23.64,-2.28,-31.98,-0.055066638,1.0989386,9.703699,-0.08674286,-0.06047566,0.06780604,-0.11276718974113464,0.005674748215824366,-1.51338791847229,1015.8447,
2021.01.16 15:45:48,16.0,24.0,23.1,-2.34,-31.74,-0.093373865,1.1875241,9.3733,-0.04642576,-0.05131268,0.03176499,-0.12601463496685028,0.009961356408894062,-1.4964733123779297,1015.8447,
2021.01.16 15:45:49,16.0,24.0,22.8,-2.3999999,-31.74,-0.20350714,1.1923125,9.497798,0.015882496,-0.057421334,0.018936822,-0.12485403567552567,0.021423492580652237,-1.4971702098846436,1015.85986,
2021.01.16 15:45:49,16.0,24.0,22.619999,-2.1,-31.859999,0.079008654,1.0582372,9.775525,-0.04642576,-0.044593163,0.018936822,-0.10783032327890396,-0.008082116954028606,-1.513106107711792,1015.85986,
2021.01.16 15:45:49,16.0,24.0,22.26,-2.58,-31.92,-0.20111294,1.0079589,9.598354,-0.049480084,0.015271631,0.042760566,-0.10460744053125381,0.020949792116880417,-1.5330569744110107,1015.85986,
2021.01.16 15:45:49,16.0,24.0,22.56,-2.3999999,-32.579998,0.19393034,1.1013328,10.115502,-0.03970624,-0.019547688,0.022602014,-0.10842880606651306,-0.019169248640537262,-1.5237075090408325,1015.85986,
2021.01.16 15:45:49,16.0,24.0,22.439999,-2.3999999,-32.399998,-0.15083471,1.0366893,9.509769,-0.03604105,-0.010995574,0.031154128,-0.10857076197862625,0.0158596970140934,-1.5177958011627197,1015.85645,
2021.01.16 15:45:49,16.0,24.0,22.439999,-2.6399999,-32.399998,0.016759412,0.9600749,9.526528,0.0067195175,-0.03726278,-6.1086525E-4,-0.10043981671333313,-0.0017592343501746655,-1.5433274507522583,1015.85645,
2021.01.16 15:45:49,16.0,24.0,22.5,-2.04,-32.579998,-0.21068975,1.0175357,9.40203,0.032986723,0.05131268,-0.02443461,-0.10777866095304489,0.022405214607715607,-1.5006221532821655,1015.85645,
2021.01.16 15:45:49,16.0,24.0,22.38,-2.1,-32.34,-0.055066638,0.9792285,9.77792,-0.022602014,0.028710667,-0.015271631,-0.09981253743171692,0.005631674081087112,-1.519235372543335,1015.85645,
2021.01.16 15:45:49,16.0,24.0,22.56,-2.22,-32.28,-0.10295067,0.9959879,9.631873,-0.009162978,0.030543262,-0.009162978,-0.10303336381912231,0.010688133537769318,-1.5196824073791504,1015.84204,
2021.01.16 15:45:49,16.0,24.0,23.1,-2.22,-32.28,-0.16998832,1.0103531,9.572019,0.005497787,0.034208454,-0.034208454,-0.10514690726995468,0.017757011577486992,-1.5165648460388184,1015.84204,
2021.01.16 15:45:49,16.0,24.0,23.46,-2.3999999,-31.679998,-0.12449849,0.91937345,9.662998,0.005497787,0.0067195175,-0.019547688,-0.0948503389954567,0.012883329764008522,-1.5430585145950317,1015.84204,
2021.01.16 15:45:49,16.0,24.0,23.16,-2.3999999,-31.679998,-0.23942018,1.0127473,9.488221,0.0018325958,-0.014660766,-0.02321288,-0.10630113631486893,0.02522805705666542,-1.5244946479797363,1015.84204,
2021.01.16 15:45:49,16.0,24.0,23.16,-2.46,-31.92,-0.2657564,1.0199299,9.651027,0.0,0.017715093,-0.03481932,-0.10525055229663849,0.027529636397957802,-1.5271508693695068,1015.85596,
2021.01.16 15:45:49,16.0,24.0,22.74,-2.46,-31.439999,-0.22026655,1.0007763,9.557653,-0.0036651916,0.017715093,-0.014049901,-0.10430174320936203,0.023042012006044388,-1.530819058418274,1015.85596,
2021.01.16 15:45:49,16.0,24.0,22.74,-2.22,-32.1,-0.19393034,0.9792285,9.593566,0.0012217305,-0.01160644,-0.0018325958,-0.10169846564531326,0.020211871713399887,-1.5211979150772095,1015.85596,
2021.01.16 15:45:49,16.0,24.0,23.34,-2.04,-31.92,-0.25139117,0.93373865,9.603143,0.0018325958,0.029932396,-0.004276057,-0.09689492732286453,0.026172032579779625,-1.5212452411651611,1015.85596,
2021.01.16 15:45:49,16.0,24.0,23.279999,-1.62,-31.859999,-0.17717093,1.0319009,9.600749,-0.0030543262,0.008552114,-0.0036651916,-0.10705216228961945,0.018451770767569542,-1.4899282455444336,1015.8535,
2021.01.16 15:45:49,16.0,24.0,23.46,-1.38,-32.16,-0.30645782,1.043872,9.581595,-0.0067195175,0.015271631,-0.0036651916,-0.10846251994371414,0.031973108649253845,-1.4734758138656616,1015.8535,
2021.01.16 15:45:49,16.0,24.0,23.46,-1.68,-31.98,-0.22984336,0.9816227,9.7084875,-0.0036651916,0.028710667,-0.009773844,-0.1007392555475235,0.023670054972171783,-1.5004326105117798,1015.8535,
2021.01.16 15:45:49,16.0,24.0,23.22,-1.62,-31.8,-0.19393034,1.0151415,9.605537,0.0,6.1086525E-4,0.02565634,-0.10527081042528152,0.020186690613627434,-1.4921505451202393,1015.8535,
2021.01.16 15:45:49,16.0,24.0,23.76,-1.62,-32.04,-0.16280572,0.9983821,9.677363,0.013439035,0.0067195175,0.007330383,-0.10278860479593277,0.016821768134832382,-1.4969936609268188,1015.85596,
2021.01.16 15:45:49,16.0,24.0,23.699999,-2.34,-31.8,-0.24181437,0.9624691,9.502586,0.005497787,-0.014660766,0.014660766,-0.10090828686952591,0.02544172666966915,-1.529957890510559,1015.85596,
2021.01.16 15:45:49,16.0,24.0,23.519999,-2.28,-31.8,-0.23223756,0.9576807,9.476251,0.010995574,0.007941248,0.007330383,-0.10068915784358978,0.02450242079794407,-1.5274951457977295,1015.85596,
2021.01.16 15:45:49,16.0,24.0,23.519999,-2.58,-31.679998,-0.20350714,0.9624691,9.701305,-0.01038471,-0.008552114,0.021991149,-0.0988650694489479,0.02097421884536743,-1.5442147254943848,1015.85596,
2021.01.16 15:45:49,16.0,24.0,23.279999,-2.3999999,-31.32,-0.16998832,0.9648633,9.509769,-0.02076942,0.01282817,0.027488936,-0.10109815746545792,0.01787322200834751,-1.5349459648132324,1015.8596,
2021.01.16 15:45:50,16.0,24.0,23.46,-1.92,-31.74,-0.17477672,0.9672575,9.591172,-0.004276057,-0.002443461,0.021380283,-0.10049233585596085,0.018220648169517517,-1.5133235454559326,1015.8596,
2021.01.16 15:45:50,16.0,24.0,23.519999,-2.1599998,-31.439999,-0.1340753,0.94331545,9.727641,-0.02321288,0.009162978,0.022602014,-0.0966612920165062,0.013782047666609287,-1.5311635732650757,1015.8596,
2021.01.16 15:45:50,16.0,24.0,23.4,-2.22,-31.56,-0.19153613,0.9864111,9.677363,-0.02687807,0.009773844,0.018936822,-0.10155916213989258,0.019789597019553185,-1.5252671241760254,1015.8596,
2021.01.16 15:45:50,16.0,24.0,23.16,-2.22,-31.5,-0.110133275,0.9552865,9.624691,-0.0061086523,0.01160644,0.0,-0.09892328828573227,0.01144228596240282,-1.5301212072372437,1015.8501,
2021.01.16 15:45:50,16.0,24.0,22.92,-2.1599998,-31.74,-0.18195933,0.94092125,9.622296,-0.0061086523,-0.007941248,0.009773844,-0.09745831042528152,0.018907925114035606,-1.5268962383270264,1015.8501,
2021.01.16 15:45:50,16.0,24.0,22.56,-1.56,-32.28,-0.20111294,0.9696517,9.639056,-6.1086525E-4,0.0030543262,-0.007330383,-0.1002371683716774,0.02086135372519493,-1.4921506643295288,1015.8501,
2021.01.16 15:45:50,16.0,24.0,23.34,-1.74,-32.16,-0.18435353,0.92416185,9.694122,-0.018936822,0.01038471,-6.1086525E-4,-0.0950278714299202,0.01901474967598915,-1.5109801292419434,1015.8501,
2021.01.16 15:45:50,16.0,24.0,23.22,-1.92,-31.679998,-0.21308395,0.89303726,9.603143,0.009162978,-0.002443461,-0.005497787,-0.0927048996090889,0.022185340523719788,-1.523394227027893,1015.8489,
2021.01.16 15:45:50,16.0,24.0,23.279999,-1.9799999,-31.619999,-0.15801731,0.90500826,9.605537,0.0061086523,-0.008552114,6.1086525E-4,-0.09392739832401276,0.01644916459918022,-1.5255720615386963,1015.8489,
2021.01.16 15:45:50,16.0,24.0,23.22,-2.52,-31.32,-0.14604631,0.9768343,9.648633,-0.0067195175,0.0,-0.002443461,-0.10088543593883514,0.015135320834815502,-1.5408087968826294,1015.8489,
2021.01.16 15:45:50,16.0,24.0,22.619999,-2.04,-31.619999,-0.06464344,0.94570965,9.679757,-0.002443461,-0.0018325958,-0.004276057,-0.09738849103450775,0.006678109522908926,-1.5235792398452759,1015.8489,
2021.01.16 15:45:50,16.0,24.0,22.92,-1.5,-32.219997,-0.12928689,0.81402856,9.533711,0.007941248,0.0061086523,-0.0061086523,-0.08516982942819595,0.013560192659497261,-1.5142542123794556,1015.84326,
2021.01.16 15:45:50,16.0,24.0,23.039999,-1.86,-32.219997,-0.21547815,0.866701,9.634268,0.01038471,-0.007330383,-0.01038471,-0.08969641476869583,0.022362075746059418,-1.522476077079773,1015.84326,
2021.01.16 15:45:50,16.0,24.0,22.92,-1.5,-32.219997,-0.22026655,1.0295067,9.794679,-0.009162978,0.005497787,-0.021991149,-0.10469796508550644,0.02248459868133068,-1.484108328819275,1015.84326,
2021.01.16 15:45:50,16.0,24.0,23.039999,-1.56,-32.1,-0.2705448,0.9528923,9.615114,0.0067195175,0.0,-0.012217305,-0.09874221682548523,0.028130028396844864,-1.4952577352523804,1015.84326,
2021.01.16 15:45:50,16.0,24.0,23.22,-1.92,-32.1,-0.22026655,0.8475474,9.619903,0.02321288,0.0067195175,0.0,-0.08785372227430344,0.022892961278557777,-1.5285696983337402,1015.85376,
2021.01.16 15:45:50,16.0,24.0,23.039999,-1.38,-31.439999,-0.23463176,0.9792285,9.643845,0.018936822,-0.016493361,0.016493361,-0.10116267949342728,0.024324892088770866,-1.4875599145889282,1015.85376,
2021.01.16 15:45:50,16.0,24.0,23.34,-1.8,-31.439999,-0.3184288,0.93134445,9.583989,0.0012217305,0.020158553,0.0,-0.09681986272335052,0.03321286290884018,-1.5115858316421509,1015.85376,
2021.01.16 15:45:50,16.0,24.0,23.58,-1.9799999,-31.38,-0.12928689,0.90500826,9.485827,0.02565634,0.039095376,0.01038471,-0.09510967135429382,0.013628634624183178,-1.525935411453247,1015.85376,
2021.01.16 15:45:50,16.0,24.0,23.4,-2.04,-31.199999,-0.18914193,0.9672575,9.816227,-0.004886922,-0.009162978,0.036651913,-0.09820140898227692,0.019265906885266304,-1.5237839221954346,1015.8513,
2021.01.16 15:45:50,16.0,24.0,23.4,-2.1599998,-31.38,-0.050278235,1.0007763,9.607931,-0.018936822,0.032375857,0.025045475,-0.10378579050302505,0.005232945084571838,-1.522836685180664,1015.8513,
2021.01.16 15:45:50,16.0,24.0,23.519999,-1.86,-31.5,-0.10534488,0.9672575,9.639056,6.1086525E-4,-0.009773844,0.010995574,-0.10000700503587723,0.010928526520729065,-1.5139094591140747,1015.8513,
2021.01.16 15:45:50,16.0,24.0,23.16,-1.9799999,-31.5,-0.2633622,0.9744401,9.552865,0.0030543262,0.02565634,-0.010995574,-0.10161507874727249,0.027561942115426064,-1.5130090713500977,1015.8513,
2021.01.16 15:45:50,16.0,24.0,22.92,-1.92,-31.619999,-0.2896984,0.9983821,9.595961,-0.008552114,0.0012217305,-0.021380283,-0.10362204909324646,0.03018045239150524,-1.5057100057601929,1015.85205,
2021.01.16 15:45:50,16.0,24.0,22.859999,-1.8,-31.74,-0.30166942,1.0319009,9.636662,-0.01282817,0.014049901,-0.017715093,-0.10662242025136948,0.03129412978887558,-1.4948766231536865,1015.85205,
2021.01.16 15:45:51,16.0,24.0,23.16,-2.28,-31.439999,-0.2777274,1.0079589,9.734824,-0.022602014,0.0061086523,-0.01282817,-0.10313224047422409,0.028521530330181122,-1.5242977142333984,1015.85205,
2021.01.16 15:45:51,16.0,24.0,23.699999,-2.46,-31.439999,-0.1604115,0.878672,9.543288,-0.014049901,-0.002443461,0.005497787,-0.09180048853158951,0.016807246953248978,-1.5505722761154175,1015.85205,
2021.01.16 15:45:51,16.0,24.0,24.0,-3.0,-31.08,-0.12928689,0.9600749,9.49301,0.008552114,-0.014660766,0.01038471,-0.10078293830156326,0.013618324883282185,-1.5633795261383057,1015.8523,
2021.01.16 15:45:51,16.0,24.0,24.3,-2.9399998,-31.32,-0.16519992,0.9864111,9.696517,-0.014660766,-0.014660766,-0.007941248,-0.10136502236127853,0.017035389319062233,-1.5587681531906128,1015.8523,
2021.01.16 15:45:51,16.0,24.0,23.88,-2.52,-31.439999,-0.23942018,0.90261406,9.727641,-0.026267206,0.021380283,-0.014660766,-0.09249580651521683,0.02460738830268383,-1.5514004230499268,1015.8523,
2021.01.16 15:45:51,16.0,24.0,23.64,-2.22,-31.679998,-0.29209262,0.91458505,9.476251,-0.015271631,0.013439035,-0.022602014,-0.09616998583078384,0.03081389144062996,-1.531055212020874,1015.8523,
2021.01.16 15:45:51,16.0,24.0,23.4,-1.4399999,-31.679998,-0.31124622,0.9768343,9.471462,0.0012217305,-0.012217305,-0.029932396,-0.10271607339382172,0.03284965455532074,-1.4862897396087646,1015.854,
2021.01.16 15:45:51,16.0,24.0,23.22,-1.3199999,-31.439999,-0.24420857,0.8858546,9.770737,-0.03726278,0.018936822,-0.010995574,-0.09038878977298737,0.024988673627376556,-1.5006917715072632,1015.854,
2021.01.16 15:45:51,16.0,24.0,23.16,-1.4399999,-31.56,-0.14844051,0.8643068,9.785102,-0.02687807,0.0030543262,0.0018325958,-0.08809012174606323,0.015168889425694942,-1.510341763496399,1015.854,
2021.01.16 15:45:51,16.0,24.0,23.22,-1.3199999,-31.32,-0.28491,0.9864111,9.519346,-0.0018325958,-0.025045475,-0.017104227,-0.10320733487606049,0.02992064319550991,-1.4819589853286743,1015.854,
2021.01.16 15:45:51,16.0,24.0,23.22,-1.68,-31.439999,-0.2801216,0.94810385,9.516952,-0.002443461,-0.020158553,-0.020158553,-0.09925231337547302,0.029425468295812607,-1.5031416416168213,1015.85156,
2021.01.16 15:45:51,16.0,24.0,23.34,-1.68,-31.74,-0.18914193,0.8523358,9.811439,-0.016493361,0.009773844,-0.004886922,-0.08663807809352875,0.019275307655334473,-1.5219364166259766,1015.85156,
2021.01.16 15:45:51,16.0,24.0,23.76,-1.68,-31.74,-0.18195933,0.81881696,9.653421,-0.01160644,-0.0067195175,-0.002443461,-0.0846039205789566,0.01884697563946247,-1.5256799459457397,1015.85156,
2021.01.16 15:45:51,16.0,24.0,23.58,-1.56,-31.859999,-0.25617957,0.82121116,9.52174,0.01160644,-0.0067195175,-0.019547688,-0.08600205183029175,0.026898212730884552,-1.5164400339126587,1015.85156,
2021.01.16 15:45:51,16.0,24.0,23.58,-1.68,-32.16,-0.24899697,0.8762778,9.607931,0.002443461,-0.002443461,-0.021380283,-0.09092160314321518,0.025909973308444023,-1.5136247873306274,1015.85547,
2021.01.16 15:45:51,16.0,24.0,23.46,-1.86,-31.859999,-0.272939,0.90021986,9.763555,-0.019547688,0.002443461,-0.009162978,-0.09190642088651657,0.027947600930929184,-1.5207113027572632,1015.85547,
2021.01.16 15:45:51,16.0,24.0,22.859999,-1.62,-32.04,-0.22984336,0.8714894,9.667787,-0.004276057,0.014049901,-0.008552114,-0.08987539261579514,0.023769669234752655,-1.511558175086975,1015.85547,
2021.01.16 15:45:51,16.0,24.0,22.619999,-1.86,-31.98,-0.18674773,0.842759,9.531317,0.018936822,-0.0067195175,0.0,-0.08817381411790848,0.019590560346841812,-1.5252667665481567,1015.85547,
2021.01.16 15:45:51,16.0,24.0,22.859999,-1.68,-31.56,-0.19393034,0.78769237,9.698911,0.004276057,-0.0030543262,0.004276057,-0.0810205340385437,0.019992399960756302,-1.5295950174331665,1015.8567,
2021.01.16 15:45:51,16.0,24.0,22.68,-1.68,-31.679998,-0.30885202,0.8714894,9.461885,0.010995574,0.008552114,-0.0061086523,-0.09179750829935074,0.032630112022161484,-1.5108978748321533,1015.8567,
2021.01.16 15:45:51,16.0,24.0,22.92,-1.68,-31.5,-0.23702596,0.89303726,9.710882,0.009773844,-0.012217305,-0.01038471,-0.09167743474245071,0.024403437972068787,-1.5139050483703613,1015.8567,
2021.01.16 15:45:51,16.0,24.0,23.1,-1.4399999,-31.619999,-0.24181437,0.91697925,9.710882,0.0,0.016493361,0.0030543262,-0.0941198393702507,0.02489623613655567,-1.4995821714401245,1015.8567,
2021.01.16 15:45:51,16.0,24.0,22.8,-1.4399999,-31.92,-0.22505496,0.8523358,9.629479,0.004276057,0.0018325958,0.002443461,-0.08825912326574326,0.023367203772068024,-1.5062376260757446,1015.8672,
2021.01.16 15:45:51,16.0,24.0,23.22,-1.4399999,-31.5,-0.22505496,0.81881696,9.576807,0.02321288,0.0018325958,0.007941248,-0.08526914566755295,0.02349567413330078,-1.5132954120635986,1015.8672,
2021.01.16 15:45:51,16.0,24.0,23.22,-1.56,-31.98,-0.25139117,0.89543146,9.414001,0.018936822,-0.01160644,0.0067195175,-0.09479809552431107,0.026697620749473572,-1.5023952722549438,1015.8672,
2021.01.16 15:45:52,16.0,24.0,23.22,-1.68,-31.98,-0.18914193,0.92895025,9.849746,-6.1086525E-4,-0.0061086523,0.004276057,-0.09401673823595047,0.019200362265110016,-1.5102139711380005,1015.8672,
2021.01.16 15:45:52,16.0,24.0,23.279999,-1.68,-32.1,-0.31364042,0.8882488,9.672575,-0.025045475,0.021991149,0.0067195175,-0.09152699261903763,0.03241438418626785,-1.511104941368103,1015.8528,
2021.01.16 15:45:52,16.0,24.0,23.039999,-1.8,-32.1,-0.34715924,0.830788,9.385271,0.021380283,0.0,-0.0030543262,-0.08823024481534958,0.03697293624281883,-1.5200730562210083,1015.8528,
2021.01.16 15:45:52,16.0,24.0,22.98,-1.56,-31.74,-0.22505496,0.89782566,9.229648,0.009773844,-0.021991149,0.018936822,-0.09694252908229828,0.02437908761203289,-1.5000672340393066,1015.8528,
2021.01.16 15:45:52,16.0,24.0,22.68,-1.68,-31.5,-0.107739076,0.91219085,9.902418,-0.022602014,-0.034208454,0.040927973,-0.09185334295034409,0.010879648849368095,-1.5153883695602417,1015.8528,
2021.01.16 15:45:52,16.0,24.0,22.92,-1.62,-31.199999,-0.11252748,0.92416185,9.749189,-0.07452556,0.009773844,0.036651913,-0.09450504183769226,0.011541726998984814,-1.5107505321502686,1015.84595,
2021.01.16 15:45:52,16.0,24.0,22.8,-1.4399999,-31.5,-0.17238252,0.8595184,9.672575,-0.023823744,-0.0067195175,0.009773844,-0.08861459791660309,0.01781989447772503,-1.508414387702942,1015.84595,
2021.01.16 15:45:52,16.0,24.0,22.56,-1.8,-31.5,-0.11492168,0.7613561,9.533711,-0.009162978,-0.01038471,0.0012217305,-0.07968447357416153,0.012053659185767174,-1.5376874208450317,1015.84595,
2021.01.16 15:45:52,16.0,24.0,22.859999,-1.92,-31.619999,-0.272939,0.91697925,9.907207,-0.01160644,-0.016493361,-0.0012217305,-0.09225904196500778,0.02754257619380951,-1.5226930379867554,1015.84595,
2021.01.16 15:45:52,16.0,24.0,22.8,-2.1599998,-31.56,-0.25617957,0.92655605,9.725247,0.004886922,0.008552114,-0.02687807,-0.09495382010936737,0.026335611939430237,-1.5299350023269653,1015.844,
2021.01.16 15:45:52,16.0,24.0,22.8,-1.86,-31.859999,-0.17238252,0.770933,9.378088,0.025045475,-0.008552114,0.004276057,-0.08200755715370178,0.018379345536231995,-1.5352442264556885,1015.844,
2021.01.16 15:45:52,16.0,24.0,23.46,-1.62,-31.859999,-0.18195933,0.8595184,9.490616,0.032375857,-0.025045475,0.0012217305,-0.09030218422412872,0.019170204177498817,-1.5139633417129517,1015.844,
2021.01.16 15:45:52,16.0,24.0,23.64,-1.4399999,-31.56,-0.260968,0.91219085,9.64145,-6.1086525E-4,0.007330383,-0.004886922,-0.09429624676704407,0.02706069126725197,-1.5007925033569336,1015.844,
2021.01.16 15:45:52,16.0,24.0,23.519999,-1.3199999,-31.74,-0.007182605,0.85473,9.495404,0.0067195175,-0.030543262,0.005497787,-0.08977314829826355,7.564295083284378E-4,-1.5056653022766113,1015.8506,
2021.01.16 15:45:52,16.0,24.0,23.58,-1.74,-31.439999,-0.12449849,0.79966336,9.768343,-0.010995574,-0.007330383,0.009773844,-0.0816740021109581,0.01274440810084343,-1.5339200496673584,1015.8506,
2021.01.16 15:45:52,16.0,24.0,23.34,-1.86,-31.56,-0.16519992,0.90021986,9.583989,-6.1086525E-4,0.005497787,-0.027488936,-0.09364095330238342,0.017235366627573967,-1.520983099937439,1015.8506,
2021.01.16 15:45:52,16.0,24.0,22.98,-1.68,-31.56,-0.2657564,0.94331545,9.409213,0.020158553,-0.029321533,-0.03176499,-0.09988100826740265,0.028236767277121544,-1.5012153387069702,1015.8506,
2021.01.16 15:45:52,16.0,24.0,23.1,-1.3199999,-31.92,-0.07182605,0.8475474,9.782708,-0.01160644,-0.01282817,-0.002443461,-0.08641918748617172,0.007342011667788029,-1.507266879081726,1015.8474,
2021.01.16 15:45:52,16.0,24.0,23.34,-1.56,-31.98,-0.1604115,0.94810385,9.801862,-0.022602014,0.004886922,-0.009162978,-0.09641410410404205,0.016363952308893204,-1.502428650856018,1015.8474,
2021.01.16 15:45:52,16.0,24.0,23.16,-1.8,-31.92,-0.15322891,0.8643068,9.689334,0.008552114,0.01038471,-0.02321288,-0.0889553427696228,0.015812866389751434,-1.523375153541565,1015.8474,
2021.01.16 15:45:52,16.0,24.0,23.22,-2.1,-32.04,-0.14844051,0.89064306,9.392453,0.03176499,-0.013439035,-0.01282817,-0.09453096985816956,0.015802916139364243,-1.5282037258148193,1015.8474,
2021.01.16 15:45:52,16.0,24.0,22.92,-2.28,-31.859999,-0.23463176,0.8834604,9.639056,0.014660766,-0.01160644,-0.01282817,-0.09137196838855743,0.02433697134256363,-1.539791464805603,1015.8364,
2021.01.16 15:45:52,16.0,24.0,22.619999,-2.04,-32.16,-0.18914193,0.89782566,9.854534,-0.009773844,0.02565634,-0.020158553,-0.0908403992652893,0.019191034138202667,-1.528788447380066,1015.8364,
2021.01.16 15:45:52,16.0,24.0,23.34,-1.74,-31.859999,-0.23463176,0.9600749,9.449914,0.0061086523,-0.002443461,-0.012217305,-0.10121776908636093,0.024823883548378944,-1.5023316144943237,1015.8364,
2021.01.16 15:45:52,16.0,24.0,23.16,-1.3199999,-31.98,-0.19393034,0.8690952,9.667787,0.025045475,-6.1086525E-4,-0.0067195175,-0.08963705599308014,0.020056745037436485,-1.5003321170806885,1015.8364,
2021.01.16 15:45:53,16.0,24.0,23.34,-1.62,-32.04,-0.20350714,0.8283938,9.694122,0.0,0.005497787,0.012217305,-0.08522742241621017,0.020989753305912018,-1.5199030637741089,1015.8345,
2021.01.16 15:45:53,16.0,24.0,23.82,-1.62,-31.32,-0.08140286,0.8643068,9.543288,0.0036651916,-0.004886922,0.01160644,-0.09031730145215988,0.008529648184776306,-1.5186307430267334,1015.8345,
2021.01.16 15:45:53,16.0,24.0,23.039999,-1.74,-31.38,-0.272939,0.89782566,9.629479,0.007941248,-0.0061086523,0.0018325958,-0.09293132275342941,0.028336521238088608,-1.514901041984558,1015.8345,
2021.01.16 15:45:53,16.0,24.0,23.22,-2.28,-31.56,-0.15083471,0.8810662,9.660604,-0.0036651916,0.004276057,-0.0036651916,-0.09093935042619705,0.015612115152180195,-1.5431642532348633,1015.8345,
2021.01.16 15:45:53,16.0,24.0,23.34,-2.1,-31.56,-0.2753332,0.91219085,9.629479,0.0036651916,-0.015882496,0.014049901,-0.0944088026881218,0.028584953397512436,-1.5286365747451782,1015.8408,
2021.01.16 15:45:53,16.0,24.0,23.1,-1.86,-32.219997,-0.11731588,0.8595184,9.593566,0.007330383,-0.0061086523,0.004886922,-0.08934800326824188,0.012227990664541721,-1.52469801902771,1015.8408,
2021.01.16 15:45:53,16.0,24.0,23.22,-2.04,-33.0,-0.10055647,0.90261406,9.533711,0.0067195175,-0.009773844,0.021991149,-0.09438945353031158,0.010547071695327759,-1.5226399898529053,1015.8408,
2021.01.16 15:45:53,16.0,24.0,22.859999,-1.86,-33.0,-0.095768064,0.91458505,9.627085,0.0036651916,0.0036651916,0.0067195175,-0.09471231698989868,0.009947446174919605,-1.5135802030563354,1015.8408,
2021.01.16 15:45:53,16.0,24.0,22.92,-1.74,-32.82,-0.17717093,0.8810662,9.672575,-0.01282817,0.004886922,-0.005497787,-0.09082326292991638,0.01831478253006935,-1.5134333372116089,1015.8428,
2021.01.16 15:45:53,16.0,24.0,23.46,-1.56,-32.52,-0.1604115,0.92895025,9.8042555,-0.007941248,0.012217305,-0.014660766,-0.09445511549711227,0.016359956935048103,-1.5032931566238403,1015.8428,
2021.01.16 15:45:53,16.0,24.0,23.22,-1.1999999,-31.859999,-0.31124622,0.91219085,9.519346,0.01038471,0.01160644,-0.017104227,-0.09548253566026688,0.032684531062841415,-1.4846794605255127,1015.8428,
2021.01.16 15:45:53,16.0,24.0,23.58,-1.02,-31.439999,-0.17956513,0.89543146,9.375694,0.02565634,-0.016493361,-0.007941248,-0.09519946575164795,0.01914985477924347,-1.4832875728607178,1015.8428,
2021.01.16 15:45:53,16.0,24.0,23.58,-1.02,-31.26,0.021547815,0.91937345,9.713276,-0.025045475,-0.015882496,0.020158553,-0.09436984360218048,-0.0022183842957019806,-1.4895681142807007,1015.84326,
2021.01.16 15:45:53,16.0,24.0,23.58,-1.74,-31.439999,-0.062249243,0.9816227,9.67018,-0.010995574,0.007941248,-0.014660766,-0.1011616662144661,0.006437148433178663,-1.50845468044281,1015.84326,
2021.01.16 15:45:53,16.0,24.0,23.58,-1.5,-31.439999,-0.1316811,0.8882488,9.68694,-0.013439035,-0.0030543262,-0.02687807,-0.0914313867688179,0.013592835515737534,-1.5101436376571655,1015.84326,
2021.01.16 15:45:53,16.0,24.0,23.58,-1.5,-31.92,-0.2657564,0.92416185,9.720459,0.009162978,-0.0030543262,-0.039095376,-0.09475378692150116,0.02733309380710125,-1.5010124444961548,1015.84326,
2021.01.16 15:45:53,16.0,24.0,23.34,-1.8,-32.16,-0.29927522,0.90740246,9.572019,0.004886922,-0.007941248,-0.036651913,-0.09446906298398972,0.03125545009970665,-1.5122278928756714,1015.84546,
2021.01.16 15:45:53,16.0,24.0,22.619999,-1.4399999,-31.92,-0.18195933,0.89782566,9.5385,0.019547688,-0.002443461,-0.015882496,-0.09383302927017212,0.01907399296760559,-1.4983570575714111,1015.84546,
2021.01.16 15:45:53,16.0,24.0,22.26,-1.8,-32.34,-0.011971008,0.92176765,9.864111,-0.0012217305,-0.015882496,0.0036651916,-0.09317595511674881,0.001213591662235558,-1.5159804821014404,1015.84546,
2021.01.16 15:45:53,16.0,24.0,22.26,-1.56,-32.1,-0.11492168,0.94570965,9.55047,-0.0067195175,-0.008552114,0.004886922,-0.09869344532489777,0.012032510712742805,-1.496106505393982,1015.84546,
2021.01.16 15:45:53,16.0,24.0,22.26,-1.26,-32.1,-0.14604631,0.8738836,9.643845,0.0030543262,0.0036651916,-0.02076942,-0.09035857021808624,0.0151428347453475,-1.494158387184143,1015.83594,
2021.01.16 15:45:53,16.0,24.0,22.14,-1.56,-32.52,-0.2753332,0.85473,9.61272,0.013439035,0.0036651916,-0.027488936,-0.08864717185497284,0.02863476239144802,-1.5057886838912964,1015.83594,
2021.01.16 15:45:53,16.0,24.0,22.38,-1.68,-32.16,-0.23223756,0.8283938,9.569624,0.004886922,0.0036651916,-0.013439035,-0.08632438629865646,0.02426343970000744,-1.5178200006484985,1015.83594,
2021.01.16 15:45:53,16.0,24.0,23.1,-2.22,-31.859999,-0.14844051,0.93134445,9.64145,6.1086525E-4,0.0,0.0036651916,-0.09628783911466599,0.015394860878586769,-1.5315760374069214,1015.83594,
2021.01.16 15:45:53,16.0,24.0,23.4,-2.76,-31.56,-0.009576807,0.9552865,9.8042555,-0.01038471,0.01038471,0.01038471,-0.09712925553321838,9.76800685748458E-4,-1.5572834014892578,1015.83716,
2021.01.16 15:45:54,16.0,24.0,23.279999,-2.58,-31.439999,-0.19871874,0.830788,9.94312,-0.004886922,0.03176499,-0.0018325958,-0.08334387093782425,0.019982891157269478,-1.5670671463012695,1015.83716,
2021.01.16 15:45:54,16.0,24.0,23.4,-2.58,-31.26,-0.20111294,0.82121116,9.452309,0.03481932,0.01160644,-0.018936822,-0.0866423025727272,0.021273383870720863,-1.5630009174346924,1015.83716,
2021.01.16 15:45:54,16.0,24.0,22.68,-2.46,-31.619999,-0.18914193,0.90979666,9.40203,0.05375614,-0.03848451,-6.1086525E-4,-0.09644624590873718,0.02011442370712757,-1.5417815446853638,1015.83716,
2021.01.16 15:45:54,16.0,24.0,22.439999,-2.46,-31.8,-0.107739076,0.9816227,9.507375,0.03604105,-0.017715093,0.004276057,-0.10287743806838989,0.011331673711538315,-1.5325580835342407,1015.8362,
2021.01.16 15:45:54,16.0,24.0,22.74,-2.04,-31.5,0.062249243,1.0175357,9.753978,0.0012217305,-0.032375857,0.013439035,-0.10394199937582016,-0.0063818469643592834,-1.5174843072891235,1015.8362,
2021.01.16 15:45:54,16.0,24.0,22.859999,-2.1,-31.92,0.16519992,0.93613285,9.765948,-0.012217305,0.0067195175,0.004886922,-0.0955512598156929,-0.01691429689526558,-1.5315965414047241,1015.8362,
2021.01.16 15:45:54,16.0,24.0,22.859999,-2.28,-31.56,-0.08619126,0.89303726,9.593566,0.004886922,-0.0012217305,-0.028710667,-0.09281589090824127,0.008984035812318325,-1.5409588813781738,1015.8362,
2021.01.16 15:45:54,16.0,24.0,22.74,-1.68,-31.8,-0.25378537,0.94331545,9.595961,0.017715093,0.029321533,-0.07147124,-0.09795452654361725,0.02644094079732895,-1.5025768280029297,1015.84595,
2021.01.16 15:45:54,16.0,24.0,22.68,-1.56,-32.04,-0.39983168,0.90740246,9.562442,0.004886922,0.007941248,-0.069027774,-0.09452694654464722,0.04178837686777115,-1.497860074043274,1015.84595,
2021.01.16 15:45:54,16.0,24.0,22.859999,-1.62,-31.56,-0.29688102,0.8834604,9.457097,0.0067195175,0.02321288,-0.054367006,-0.09310177713632584,0.03138209879398346,-1.5074594020843506,1015.84595,
2021.01.16 15:45:54,16.0,24.0,23.22,-1.3199999,-32.04,-0.20350714,0.92895025,9.560047,-0.007330383,0.0067195175,-0.005497787,-0.0968441367149353,0.021284040063619614,-1.4897018671035767,1015.84595,
2021.01.16 15:45:54,16.0,24.0,23.22,-1.62,-32.04,-0.17477672,0.9648633,9.653421,-0.005497787,0.0018325958,-0.01038471,-0.0996033251285553,0.018103178590536118,-1.4995570182800293,1015.83887,
2021.01.16 15:45:54,16.0,24.0,23.4,-1.86,-31.859999,-0.10295067,0.93613285,9.605537,-0.019547688,0.018936822,0.004886922,-0.09714527428150177,0.010717435739934444,-1.5160698890686035,1015.83887,
2021.01.16 15:45:54,16.0,24.0,23.22,-1.62,-32.46,-0.11492168,0.8882488,9.7324295,-0.007941248,0.009162978,-0.004276057,-0.09100845456123352,0.011807570233941078,-1.5112448930740356,1015.83887,
2021.01.16 15:45:54,16.0,24.0,23.1,-1.3199999,-32.04,-0.18914193,0.93852705,9.636662,-0.0018325958,0.010995574,-0.014660766,-0.09706655144691467,0.01962481066584587,-1.489315390586853,1015.83887,
2021.01.16 15:45:54,16.0,24.0,23.22,-0.9,-31.98,-0.40940848,0.94810385,9.560047,0.017104227,0.02565634,-0.029321533,-0.09876038134098053,0.04279879108071327,-1.4634400606155396,1015.8342,
2021.01.16 15:45:54,16.0,24.0,23.22,-0.9,-32.16,-0.21068975,0.9768343,9.78989,0.019547688,0.01160644,-0.008552114,-0.09942786395549774,0.021517833694815636,-1.4670249223709106,1015.8342,
2021.01.16 15:45:54,16.0,24.0,23.4,-1.02,-31.8,-0.35673606,1.0319009,9.476251,0.028710667,0.017715093,0.0036651916,-0.10838983207941055,0.037627507001161575,-1.4577538967132568,1015.8342,
2021.01.16 15:45:54,16.0,24.0,23.519999,-1.14,-31.5,-0.035913024,0.9840169,9.61272,0.027488936,-0.018325957,0.025045475,-0.1020100936293602,0.0037359728012233973,-1.4820383787155151,1015.8342,
2021.01.16 15:45:54,16.0,24.0,23.699999,-1.74,-31.56,-0.272939,1.0151415,9.801862,0.009773844,0.035430185,0.03604105,-0.10315857827663422,0.027838433161377907,-1.5013914108276367,1015.83203,
2021.01.16 15:45:54,16.0,24.0,23.699999,-1.92,-31.74,-0.06703765,0.94092125,9.653421,-0.0018325958,-0.025045475,0.018325957,-0.09716098010540009,0.006944333203136921,-1.5204116106033325,1015.83203,
2021.01.16 15:45:54,16.0,24.0,23.699999,-1.8,-31.5,-0.14844051,0.9792285,9.507375,0.03604105,0.009162978,0.014049901,-0.102622389793396,0.015611927956342697,-1.5073654651641846,1015.83203,
2021.01.16 15:45:54,16.0,24.0,23.64,-1.92,-31.8,-0.30645782,1.0486604,9.576807,0.016493361,-0.027488936,-0.002443461,-0.10901012271642685,0.03198908641934395,-1.4987634420394897,1015.83203,
2021.01.16 15:45:54,16.0,24.0,23.46,-1.4399999,-31.679998,-0.18195933,0.93852705,9.619903,0.0067195175,-0.004276057,-0.0067195175,-0.09723591059446335,0.018912626430392265,-1.497213363647461,1015.8364,
2021.01.16 15:45:54,16.0,24.0,23.64,-1.68,-31.679998,-0.1604115,1.0199299,9.610326,-0.004276057,-0.0067195175,0.018325957,-0.10571814328432083,0.016690028831362724,-1.496781587600708,1015.8364,
2021.01.16 15:45:54,16.0,24.0,23.34,-1.86,-31.859999,-0.24420857,1.0271125,9.691729,0.004886922,-0.018325957,0.004886922,-0.10555089265108109,0.025192297995090485,-1.5013196468353271,1015.8364,
2021.01.16 15:45:55,16.0,24.0,23.16,-1.86,-32.1,-0.076614454,0.94331545,9.591172,-0.009162978,-0.015882496,0.009162978,-0.09803406149148941,0.007987847551703453,-1.513713002204895,1015.8364,
2021.01.16 15:45:55,16.0,24.0,23.279999,-1.92,-32.28,-0.079008654,0.9576807,9.557653,0.01038471,-0.013439035,0.014049901,-0.09986367076635361,0.008266344666481018,-1.5132004022598267,1015.8313,
2021.01.16 15:45:55,16.0,24.0,23.039999,-1.56,-31.859999,0.0023942017,0.9552865,9.588778,0.004276057,-0.012217305,-0.007941248,-0.09929781407117844,-2.4968787329271436E-4,-1.501247525215149,1015.8313,
2021.01.16 15:45:55,16.0,24.0,23.58,-2.04,-31.619999,-0.19871874,1.0366893,9.696517,0.0012217305,-0.016493361,-0.022602014,-0.10648678988218307,0.02049095928668976,-1.5105499029159546,1015.8313,
2021.01.16 15:45:55,16.0,24.0,23.76,-1.92,-31.8,-0.33279404,1.0534488,9.603143,0.01282817,0.0012217305,-0.04337143,-0.10919643193483353,0.0346408411860466,-1.4982969760894775,1015.8313,
2021.01.16 15:45:55,16.0,24.0,23.519999,-2.1599998,-31.859999,-0.12210429,1.0175357,9.67018,0.016493361,-6.1086525E-4,-0.025045475,-0.10482998192310333,0.012626216746866703,-1.5182214975357056,1015.84106,
2021.01.16 15:45:55,16.0,24.0,23.4,-2.1,-32.16,-0.17956513,1.0319009,9.500193,0.015271631,-0.012217305,-6.1086525E-4,-0.1081756055355072,0.01889895834028721,-1.5080589056015015,1015.84106,
2021.01.16 15:45:55,16.0,24.0,23.16,-1.56,-32.399998,-0.1436521,1.0726024,9.679757,0.026267206,-0.008552114,-0.01160644,-0.11034653335809708,0.01483937632292509,-1.4804250001907349,1015.84106,
2021.01.16 15:45:55,16.0,24.0,22.92,-1.68,-32.04,-0.23942018,1.0319009,9.605537,-0.002443461,-0.017104227,-0.0018325958,-0.10698430985212326,0.024920064955949783,-1.4890971183776855,1015.84106,
2021.01.16 15:45:55,16.0,24.0,23.16,-1.1999999,-31.619999,-0.10534488,1.0271125,9.64145,0.01038471,-0.0012217305,0.0018325958,-0.10612435638904572,0.01092581357806921,-1.475408911705017,1015.84106,
2021.01.16 15:45:55,16.0,24.0,23.1,-1.5,-31.56,-0.21308395,1.0726024,9.61272,0.028099801,-0.005497787,0.0018325958,-0.11109485477209091,0.02216324396431446,-1.4788881540298462,1015.84106,
2021.01.16 15:45:55,16.0,24.0,22.8,-1.56,-31.92,-0.055066638,1.0295067,9.713276,0.020158553,-0.031154128,0.008552114,-0.1055937260389328,0.005669153295457363,-1.4902170896530151,1015.84106,
2021.01.16 15:45:55,16.0,24.0,22.74,-1.56,-32.1,0.02873042,1.2401965,8.37013,0.06719518,-0.004886922,-0.0012217305,-0.14709824323654175,-0.0034324806183576584,-1.4337949752807617,1015.84106,
2021.01.16 15:45:55,16.0,24.0,22.619999,-2.28,-32.64,-0.5482722,0.9696517,10.627861,-0.049480084,0.14538592,-0.018936822,-0.09086470305919647,0.051542505621910095,-1.5328888893127441,1015.8457,
2021.01.16 15:45:55,16.0,24.0,22.8,-2.22,-31.98,0.011971008,1.2090719,10.271125,-0.07391469,-0.02687807,0.010995574,-0.11717628687620163,-0.001165500609204173,-1.50386381149292,1015.8457,
