Time,X-cord,Y-cord,Mag_x,Mag_y,Mag_z,Acc_x,Acc_y,Acc_z,Gyro_x,Gyro_y,Gyro_z,Orn_x,Orn_y,Orn_z,Pressure,
2021.02.11 16:39:34,35.0,25.0,-22.199999,-12.719999,-42.66,-0.15322891,0.7517793,9.957485,-0.016493361,-0.15149458,0.06658431,-0.07534706592559814,0.015387100167572498,1.9647048711776733,1017.48145,
2021.02.11 16:39:35,35.0,25.0,-22.5,-12.36,-42.18,-0.39264908,1.0702082,8.987833,0.16920967,-0.040927973,-0.049480084,-0.11840309202671051,0.04365897551178932,1.8666149377822876,1017.4675,
2021.02.11 16:39:35,35.0,25.0,-22.26,-12.48,-42.42,-0.35913026,0.9935937,9.586384,0.0012217305,-0.06414085,0.012217305,-0.10320570319890976,0.03744502365589142,1.8996349573135376,1017.4675,
2021.02.11 16:39:35,35.0,25.0,-22.14,-13.0199995,-42.059998,-0.18195933,0.82360536,10.189722,-0.15515977,-0.047647487,0.07880162,-0.08063893765211105,0.017855245620012283,1.9687716960906982,1017.4675,
2021.02.11 16:39:35,35.0,25.0,-22.199999,-13.38,-42.18,-0.15083471,0.8355764,9.816227,-0.007330383,-0.002443461,0.059864793,-0.08490727841854095,0.015364645048975945,1.9754351377487183,1017.4675,
2021.02.11 16:39:35,35.0,25.0,-22.14,-13.74,-42.42,-0.15322891,0.79008657,9.7324295,0.06291912,-0.019547688,0.05009095,-0.08099319040775299,0.01574285700917244,1.9947195053100586,1017.4595,
2021.02.11 16:39:35,35.0,25.0,-22.68,-13.5,-42.42,-0.22266077,0.81642276,9.368511,0.059864793,0.0030543262,0.030543262,-0.08690138906240463,0.023762457072734833,1.9637097120285034,1017.4595,
2021.02.11 16:39:35,35.0,25.0,-22.8,-13.559999,-42.719997,-0.2825158,0.61291564,9.332599,0.052534413,0.009773844,0.035430185,-0.06555058062076569,0.030262690037488937,1.9916473627090454,1017.4595,
2021.02.11 16:39:35,35.0,25.0,-22.98,-13.38,-42.3,0.007182605,0.320823,9.399636,-0.04153884,0.009773844,0.084910266,-0.0341181717813015,-7.641363190487027E-4,2.050175189971924,1017.4595,
2021.02.11 16:39:35,35.0,25.0,-22.56,-12.719999,-41.94,-0.32561144,0.59855044,9.105149,-0.03359759,-0.010995574,-0.02076942,-0.06560131162405014,0.0357460118830204,1.964856505393982,1017.44653,
2021.02.11 16:39:35,35.0,25.0,-22.32,-13.38,-41.879997,-0.62728083,1.1755531,9.356541,-0.0983493,0.012217305,-0.03481932,-0.12470778077840805,0.06694178283214569,1.8892079591751099,1017.44653,
2021.02.11 16:39:35,35.0,25.0,-22.5,-12.96,-41.94,-0.2777274,1.1947067,10.146626,-0.21197024,0.026267206,0.061086524,-0.1171611025929451,0.027364570647478104,1.8987301588058472,1017.44653,
2021.02.11 16:39:35,35.0,25.0,-22.199999,-12.599999,-42.84,0.17717093,1.0869676,10.304645,-0.14110987,-0.06169739,0.06536258,-0.10507921874523163,-0.017191613093018532,1.9275319576263428,1017.44653,
2021.02.11 16:39:35,35.0,25.0,-22.439999,-13.139999,-42.719997,0.32800564,0.79487497,9.873688,0.021991149,-0.005497787,0.025045475,-0.08028702437877655,-0.0332079641520977,1.9999445676803589,1017.4512,
2021.02.11 16:39:35,35.0,25.0,-22.5,-12.24,-42.66,0.16519992,0.7254431,9.239224,0.09285152,-0.17837265,-0.02687807,-0.07834452390670776,-0.017878374084830284,1.9568136930465698,1017.4512,
2021.02.11 16:39:35,35.0,25.0,-22.8,-12.12,-42.36,-0.521936,0.4261679,9.962274,-0.032986723,-0.089186326,-0.06047566,-0.04269362986087799,0.052343398332595825,1.9636749029159546,1017.4512,
2021.02.11 16:39:35,35.0,25.0,-23.34,-11.94,-41.94,-0.06943185,0.23702596,10.6158905,-0.116675265,-0.022602014,-0.016493361,-0.022323280572891235,0.006540276575833559,2.006885051727295,1017.4512,
2021.02.11 16:39:35,35.0,25.0,-23.76,-11.4,-42.12,-0.04309563,0.5482722,9.279925,0.07819075,-0.089186326,-0.062308256,-0.05901229754090309,0.004643929656594992,1.9266095161437988,1017.45776,
2021.02.11 16:39:35,35.0,25.0,-23.82,-11.58,-42.3,-0.6440403,0.8499416,8.449138,0.18997909,0.01160644,-0.14294247,-0.09996972978115082,0.07607843726873398,1.841840147972107,1017.45776,
2021.02.11 16:39:35,35.0,25.0,-23.64,-11.759999,-42.42,-0.61530983,0.6847417,9.471462,-0.019547688,0.06841691,-0.0030543262,-0.07201839983463287,0.06487344950437546,1.8930163383483887,1017.45776,
2021.02.11 16:39:35,35.0,25.0,-23.279999,-12.3,-42.42,-0.21547815,0.7613561,10.579977,-0.23884831,0.06414085,0.059864793,-0.07182331383228302,0.020363783463835716,1.9370533227920532,1017.45776,
2021.02.11 16:39:35,35.0,25.0,-22.8,-12.66,-42.84,0.23463176,0.91937345,10.187328,-0.076358154,0.06658431,0.07086037,-0.08997922390699387,-0.023027654737234116,1.950911521911621,1017.45166,
2021.02.11 16:39:35,35.0,25.0,-22.68,-12.48,-42.96,0.40940848,0.7469909,9.473856,0.08552113,0.04642576,0.055588737,-0.07861175388097763,-0.04318768531084061,1.9788507223129272,1017.45166,
2021.02.11 16:39:35,35.0,25.0,-22.199999,-12.48,-42.54,0.37349546,0.59855044,9.464279,0.06169739,0.039095376,0.025045475,-0.06311000138521194,-0.039443232119083405,2.013413429260254,1017.45166,
2021.02.11 16:39:35,35.0,25.0,-21.96,-11.759999,-42.66,-0.074220255,0.61291564,9.449914,0.029321533,0.044593163,-0.03970624,-0.06476667523384094,0.00785390567034483,1.9539227485656738,1017.45166,
2021.02.11 16:39:35,35.0,25.0,-21.779999,-11.82,-42.42,-0.06464344,0.6488287,9.186552,0.01160644,0.01038471,-0.029321533,-0.07050926983356476,0.007036630995571613,1.9505916833877563,1017.4536,
2021.02.11 16:39:36,35.0,25.0,-21.779999,-11.82,-42.059998,0.18435353,0.58657944,9.26556,-0.04642576,0.009162978,0.0036651916,-0.06321065127849579,-0.019894016906619072,1.9812757968902588,1017.4536,
2021.02.11 16:39:36,35.0,25.0,-22.199999,-11.04,-42.719997,0.37588966,0.5602432,9.552865,-0.12156218,-0.009162978,-0.005497787,-0.05853432044386864,-0.03932807967066765,1.9626672267913818,1017.4536,
2021.02.11 16:39:36,35.0,25.0,-22.26,-11.639999,-42.719997,0.1436521,0.7350199,9.801862,-0.11484267,-6.1086525E-4,-0.07941248,-0.07483969628810883,-0.014654543250799179,1.9407603740692139,1017.4536,
2021.02.11 16:39:36,35.0,25.0,-22.74,-11.219999,-42.899998,-0.39264908,0.89064306,10.086772,-0.076358154,0.0061086523,-0.14966199,-0.08800341933965683,0.0389074869453907,1.8686069250106812,1017.4595,
2021.02.11 16:39:36,35.0,25.0,-22.56,-11.58,-43.079998,-0.5434838,0.9576807,10.108319,-0.030543262,-0.0018325958,-0.11911872,-0.09432446211576462,0.05371427163481712,1.8673741817474365,1017.4595,
2021.02.11 16:39:36,35.0,25.0,-22.38,-12.3,-43.079998,-0.6584055,0.89303726,9.758766,0.018936822,-0.02321288,-0.07086037,-0.09105126559734344,0.06736601889133453,1.894974946975708,1017.4595,
2021.02.11 16:39:36,35.0,25.0,-22.56,-11.759999,-43.14,-0.20590134,0.7254431,9.428367,0.07086037,-0.02443461,0.026267206,-0.07677306234836578,0.021835025399923325,1.9162179231643677,1017.4595,
2021.02.11 16:39:36,35.0,25.0,-22.32,-12.48,-42.78,0.08379706,0.62009823,9.502586,0.037873644,-0.0018325958,0.06658431,-0.06516081839799881,-0.00881811324506998,1.9853324890136719,1017.458,
2021.02.11 16:39:36,35.0,25.0,-22.619999,-12.0,-42.84,0.18674773,0.49799395,9.677363,-0.03176499,0.005497787,0.036651913,-0.051404763013124466,-0.0192949827760458,1.9919606447219849,1017.458,
2021.02.11 16:39:36,35.0,25.0,-22.8,-11.88,-42.6,-0.090979666,0.5554548,9.660604,-0.018325957,0.010995574,-0.03176499,-0.05743112415075302,0.009417317807674408,1.9567736387252808,1017.458,
2021.02.11 16:39:36,35.0,25.0,-22.68,-12.059999,-42.48,-0.34476504,0.7278373,9.739613,-0.023823744,0.039095376,-0.058643065,-0.07454443722963333,0.03538345545530319,1.9245264530181885,1017.458,
2021.02.11 16:39:36,35.0,25.0,-22.74,-11.82,-42.719997,-0.49799395,0.90261406,9.765948,-0.01038471,0.03481932,-0.032986723,-0.09204386174678802,0.05094876140356064,1.8801854848861694,1017.4563,
2021.02.11 16:39:36,35.0,25.0,-22.5,-12.179999,-42.66,-0.2633622,0.7302315,9.718064,-0.004886922,0.014660766,0.042760566,-0.07497329264879227,0.027093641459941864,1.9343582391738892,1017.4563,
2021.02.11 16:39:36,35.0,25.0,-22.439999,-12.24,-42.78,-0.08379706,0.59615624,9.655815,0.0067195175,0.013439035,0.054367006,-0.061660055071115494,0.008678185753524303,1.9688835144042969,1017.4563,
2021.02.11 16:39:36,35.0,25.0,-22.74,-12.36,-43.32,-0.050278235,0.62967503,9.466674,0.02565634,0.02443461,0.018325957,-0.06641615182161331,0.005311027634888887,1.961687684059143,1017.4563,
2021.02.11 16:39:36,35.0,25.0,-22.5,-12.36,-42.899998,-0.090979666,0.61291564,9.713276,-0.02076942,0.031154128,0.012217305,-0.06301450729370117,0.009366253390908241,1.9694994688034058,1017.4617,
2021.02.11 16:39:36,35.0,25.0,-22.56,-12.24,-42.899998,-0.25857377,0.6991069,9.648633,-0.014660766,0.032375857,-0.017104227,-0.07230430841445923,0.02679259330034256,1.9393589496612549,1017.4617,
2021.02.11 16:39:36,35.0,25.0,-22.26,-12.719999,-42.899998,-0.38067806,0.7182605,9.730036,-0.014049901,0.03726278,-0.0061086523,-0.07362912595272064,0.039104074239730835,1.9523143768310547,1017.4617,
2021.02.11 16:39:36,35.0,25.0,-22.439999,-12.84,-42.78,-0.39504328,0.7038953,9.629479,-0.0030543262,0.016493361,0.017104227,-0.07290707528591156,0.04100137576460838,1.9544878005981445,1017.4617,
2021.02.11 16:39:36,35.0,25.0,-22.619999,-12.84,-43.26,-0.28491,0.6584055,9.555259,-0.017715093,0.004886922,0.042760566,-0.06876582652330399,0.029808256775140762,1.9629749059677124,1017.46533,
2021.02.11 16:39:36,35.0,25.0,-22.439999,-13.0199995,-43.079998,-0.17956513,0.59376204,9.7084875,-0.017104227,0.025045475,0.03726278,-0.061072565615177155,0.01849357597529888,1.991405963897705,1017.46533,
2021.02.11 16:39:36,35.0,25.0,-22.5,-12.36,-43.26,-0.16998832,0.6536171,9.624691,-0.0061086523,6.1086525E-4,0.010995574,-0.06779579818248749,0.017659856006503105,1.9558976888656616,1017.46533,
2021.02.11 16:39:36,35.0,25.0,-21.96,-12.36,-43.079998,-0.36631286,0.6751649,9.696517,-0.0061086523,0.018936822,0.0061086523,-0.06946802884340286,0.037759821861982346,1.9502536058425903,1017.46533,
2021.02.11 16:39:36,35.0,25.0,-21.66,-12.24,-43.14,-0.34476504,0.62488663,9.696517,0.0030543262,-0.004886922,0.02565634,-0.06431492418050766,0.03554058074951172,1.9595166444778442,1017.47217,
2021.02.11 16:39:36,35.0,25.0,-21.84,-11.639999,-43.559998,-0.272939,0.641646,9.605537,0.009773844,0.012217305,0.02321288,-0.06667368113994598,0.028407111763954163,1.9335068464279175,1017.47217,
2021.02.11 16:39:37,35.0,25.0,-21.6,-11.639999,-42.84,-0.2657564,0.62249243,9.703699,-0.0067195175,-0.0012217305,0.025045475,-0.06403828412294388,0.02738027833402157,1.9439953565597534,1017.47217,
2021.02.11 16:39:37,35.0,25.0,-21.72,-11.16,-42.899998,-0.22266077,0.62728083,9.536105,0.0,0.013439035,0.017104227,-0.06566708534955978,0.023344993591308594,1.9232449531555176,1017.47217,
2021.02.11 16:39:37,35.0,25.0,-21.72,-10.8,-42.36,-0.23702596,0.60812724,9.7084875,-0.021380283,0.0012217305,0.018936822,-0.06253839284181595,0.024409454315900803,1.9154307842254639,1017.4634,
2021.02.11 16:39:37,35.0,25.0,-21.84,-11.16,-42.0,-0.15083471,0.5243302,9.730036,-0.013439035,0.004886922,0.017715093,-0.05382927134633064,0.015500728040933609,1.9477413892745972,1017.4634,
2021.02.11 16:39:37,35.0,25.0,-22.14,-10.86,-42.36,-0.2825158,0.60573304,9.526528,0.0067195175,-0.005497787,-0.02076942,-0.0634705126285553,0.02964700385928154,1.9078161716461182,1017.4634,
2021.02.11 16:39:37,35.0,25.0,-21.96,-10.74,-42.12,-0.25857377,0.6655881,9.619903,-0.015882496,0.017715093,-0.005497787,-0.06905370205640793,0.02687257155776024,1.8985906839370728,1017.4634,
2021.02.11 16:39:37,35.0,25.0,-22.26,-11.04,-42.3,-0.17238252,0.60812724,9.753978,-0.022602014,-0.013439035,0.0012217305,-0.06225629523396492,0.017671208828687668,1.9213579893112183,1017.46484,
2021.02.11 16:39:37,35.0,25.0,-21.779999,-10.74,-42.12,-0.110133275,0.5650316,9.67018,-0.0036651916,0.009773844,-0.019547688,-0.05836017057299614,0.011388465762138367,1.9269158840179443,1017.46484,
2021.02.11 16:39:37,35.0,25.0,-21.9,-11.639999,-42.48,-0.24420857,0.5722142,9.68694,0.0,-0.0012217305,-0.051923547,-0.05898342281579971,0.025204746052622795,1.9499307870864868,1017.46484,
2021.02.11 16:39:37,35.0,25.0,-21.779999,-12.179999,-43.079998,-0.30406362,0.59136784,9.569624,-0.0067195175,0.02076942,-0.048258353,-0.061686813831329346,0.03176314756274223,1.9620673656463623,1017.46484,
2021.02.11 16:39:37,35.0,25.0,-21.66,-12.059999,-42.84,-0.36391866,0.5746084,9.696517,-0.02076942,0.0,-0.048258353,-0.05914849415421486,0.037513259798288345,1.96074640750885,1017.4629,
2021.02.11 16:39:37,35.0,25.0,-21.48,-12.3,-42.84,-0.31124622,0.6560113,9.80665,-0.005497787,0.004886922,-0.037873644,-0.06676150113344193,0.0317276306450367,1.9637129306793213,1017.4629,
2021.02.11 16:39:37,35.0,25.0,-21.18,-11.88,-42.719997,-0.35913026,0.61530983,9.689334,-0.002443461,0.0036651916,-0.02687807,-0.06337527185678482,0.03704753518104553,1.9552000761032104,1017.4629,
2021.02.11 16:39:37,35.0,25.0,-21.359999,-11.88,-42.54,-0.29688102,0.5674258,9.667787,0.01160644,-6.1086525E-4,-0.022602014,-0.05859760195016861,0.0306986253708601,1.9643837213516235,1017.4629,
2021.02.11 16:39:37,35.0,25.0,-21.18,-12.3,-42.899998,-0.32321724,0.5793968,9.504981,-0.007941248,-0.018936822,-0.010995574,-0.060846757143735886,0.033991940319538116,1.9763246774673462,1017.4614,
2021.02.11 16:39:37,35.0,25.0,-21.42,-12.66,-43.379997,-0.2753332,0.56982,9.605537,-0.021380283,0.0030543262,-0.012217305,-0.0592283196747303,0.028656160458922386,1.9904519319534302,1017.4614,
2021.02.11 16:39:37,35.0,25.0,-21.3,-12.66,-43.14,-0.32800564,0.641646,9.818622,-0.017104227,-0.0030543262,-0.02076942,-0.06522084027528763,0.033394068479537964,1.98045814037323,1017.4614,
2021.02.11 16:39:37,35.0,25.0,-20.88,-12.599999,-42.96,-0.3854665,0.6823475,9.902418,0.0067195175,0.0067195175,-0.012217305,-0.06874650716781616,0.03890685737133026,1.976410984992981,1017.4614,
2021.02.11 16:39:37,35.0,25.0,-21.06,-12.48,-42.899998,-0.40940848,0.60094464,9.622296,0.04642576,-0.010995574,0.013439035,-0.06231610104441643,0.04252225160598755,1.9772828817367554,1017.4651,
2021.02.11 16:39:37,35.0,25.0,-21.48,-12.36,-42.6,-0.29209262,0.5291186,9.545682,0.014049901,0.005497787,0.02565634,-0.05534763261675835,0.030589906498789787,1.9853711128234863,1017.4651,
2021.02.11 16:39:37,35.0,25.0,-21.48,-12.179999,-42.719997,-0.16280572,0.5482722,9.636662,-0.010995574,0.004276057,0.022602014,-0.056825049221515656,0.016892803832888603,1.9848376512527466,1017.4651,
2021.02.11 16:39:37,35.0,25.0,-22.08,-11.88,-43.02,-0.24660277,0.62728083,9.677363,0.010995574,0.012217305,0.0030543262,-0.06470790505409241,0.02547692134976387,1.945452094078064,1017.4651,
2021.02.11 16:39:37,35.0,25.0,-22.26,-11.46,-43.02,-0.36631286,0.60094464,9.691729,0.014049901,-0.0012217305,-0.0030543262,-0.06188257411122322,0.03777845576405525,1.9251744747161865,1017.4634,
2021.02.11 16:39:37,35.0,25.0,-21.96,-11.099999,-43.44,-0.260968,0.5650316,9.792285,-0.0036651916,0.009162978,0.013439035,-0.05761738494038582,0.026644062250852585,1.9276150465011597,1017.4634,
2021.02.11 16:39:37,35.0,25.0,-22.26,-10.98,-43.559998,-0.16280572,0.56982,9.476251,0.031154128,0.004886922,0.0,-0.06005021557211876,0.01717870496213436,1.919716238975525,1017.4634,
2021.02.11 16:39:38,35.0,25.0,-22.439999,-10.92,-43.86,-0.19632454,0.5482722,9.646238,0.0,0.002443461,-0.0067195175,-0.0567651130259037,0.020349636673927307,1.9179613590240479,1017.4634,
2021.02.11 16:39:38,35.0,25.0,-22.32,-11.34,-43.92,-0.29927522,0.62967503,9.797073,-0.015882496,0.01038471,-0.015271631,-0.06415362656116486,0.030537912622094154,1.9175403118133545,1017.45654,
2021.02.11 16:39:38,35.0,25.0,-22.619999,-10.98,-43.86,-0.39025488,0.6512229,9.773131,-0.004276057,-0.0036651916,-0.01038471,-0.06648281216621399,0.0399102047085762,1.8920629024505615,1017.45654,
2021.02.11 16:39:38,35.0,25.0,-22.439999,-11.46,-43.8,-0.4165911,0.62009823,9.6845455,0.014049901,-0.0030543262,0.004276057,-0.0638834685087204,0.042989570647478104,1.914747953414917,1017.45654,
2021.02.11 16:39:38,35.0,25.0,-22.199999,-11.82,-43.62,-0.29688102,0.5722142,9.555259,0.004276057,-6.1086525E-4,0.035430185,-0.059784527868032455,0.03105991706252098,1.9446033239364624,1017.45654,
2021.02.11 16:39:38,35.0,25.0,-22.5,-11.4,-43.92,-0.24660277,0.5434838,9.56723,-0.009773844,-0.013439035,0.04337143,-0.05672702193260193,0.025770068168640137,1.9320199489593506,1017.46045,
2021.02.11 16:39:38,35.0,25.0,-22.439999,-11.82,-43.739998,-0.16280572,0.51714754,9.672575,-0.028710667,0.0,0.047036625,-0.053406938910484314,0.016830096021294594,1.9594436883926392,1017.46045,
2021.02.11 16:39:38,35.0,25.0,-22.56,-11.219999,-43.739998,-0.35434186,0.56982,9.813833,-0.040317107,0.031154128,0.019547688,-0.057960137724876404,0.03609068691730499,1.9175153970718384,1017.46045,
2021.02.11 16:39:38,35.0,25.0,-22.439999,-11.28,-43.26,-0.34955344,0.58897364,9.598354,-0.0030543262,0.01038471,0.016493361,-0.061244599521160126,0.03640197217464447,1.9171991348266602,1017.46045,
2021.02.11 16:39:38,35.0,25.0,-22.38,-11.4,-42.899998,-0.2873042,0.50996494,9.751583,-0.018325957,-0.004276057,0.04886922,-0.05222538858652115,0.029453791677951813,1.941301941871643,1017.46924,
2021.02.11 16:39:38,35.0,25.0,-22.619999,-11.34,-42.96,-0.2801216,0.5291186,9.742006,0.0012217305,-0.007330383,0.027488936,-0.05423741787672043,0.028746072202920914,1.9328206777572632,1017.46924,
2021.02.11 16:39:38,35.0,25.0,-22.619999,-11.5199995,-43.14,-0.18674773,0.581791,9.552865,0.02687807,0.0,0.03176499,-0.06081552803516388,0.019546382129192352,1.9335613250732422,1017.46924,
2021.02.11 16:39:38,35.0,25.0,-22.98,-11.04,-43.44,-0.14604631,0.5506664,9.742006,0.0,-0.010995574,0.03359759,-0.05645853281021118,0.014990276657044888,1.919517159461975,1017.46924,
2021.02.11 16:39:38,35.0,25.0,-22.74,-11.04,-43.739998,-0.18195933,0.5650316,9.737218,0.018936822,-6.1086525E-4,0.009773844,-0.05795292928814888,0.01868481934070587,1.9176255464553833,1017.4656,
2021.02.11 16:39:38,35.0,25.0,-22.14,-11.46,-43.32,-0.17717093,0.5554548,9.706094,0.03176499,-0.004886922,-0.0067195175,-0.05715557932853699,0.018251551315188408,1.9444928169250488,1017.4656,
2021.02.11 16:39:38,35.0,25.0,-22.439999,-11.16,-43.26,-0.2753332,0.60573304,9.607931,0.03359759,0.0018325958,-0.029321533,-0.06293600797653198,0.028649024665355682,1.9140102863311768,1017.4656,
2021.02.11 16:39:38,35.0,25.0,-22.26,-11.639999,-42.96,-0.31364042,0.60333884,9.598354,0.021380283,0.004886922,-0.022602014,-0.06274257600307465,0.03266485407948494,1.9333159923553467,1017.4656,
2021.02.11 16:39:38,35.0,25.0,-22.439999,-11.46,-42.96,-0.24899697,0.61052144,9.68694,0.004276057,0.0018325958,-0.013439035,-0.06292123347520828,0.025698738172650337,1.9275904893875122,1017.4607,
2021.02.11 16:39:38,35.0,25.0,-22.859999,-10.98,-43.26,-0.33997664,0.6512229,9.725247,0.007941248,-0.005497787,-0.022602014,-0.06682158261537552,0.03494391590356827,1.8926540613174438,1017.4607,
2021.02.11 16:39:38,35.0,25.0,-22.38,-11.34,-42.84,-0.33758244,0.62728083,9.722853,0.010995574,0.0,-0.004276057,-0.06438814848661423,0.03470657020807266,1.9172625541687012,1017.4607,
2021.02.11 16:39:38,35.0,25.0,-22.56,-11.16,-42.84,-0.2633622,0.61052144,9.710882,0.014660766,-0.01160644,0.009162978,-0.06276417523622513,0.027113668620586395,1.914618730545044,1017.4607,
2021.02.11 16:39:38,35.0,25.0,-22.199999,-11.16,-42.719997,-0.24420857,0.60812724,9.598354,0.02565634,0.0,0.0,-0.06325246393680573,0.025437265634536743,1.9198964834213257,1017.468,
2021.02.11 16:39:38,35.0,25.0,-21.84,-11.5199995,-42.6,-0.37828386,0.6847417,9.600749,0.018325957,-0.004276057,-0.010995574,-0.07114610821008682,0.03938112407922745,1.9188345670700073,1017.468,
2021.02.11 16:39:38,35.0,25.0,-22.26,-11.4,-42.719997,-0.17956513,0.6560113,9.653421,0.0036651916,-0.008552114,0.023823744,-0.0678403303027153,0.018599044531583786,1.9243243932724,1017.468,
2021.02.11 16:39:38,35.0,25.0,-21.9,-11.16,-42.84,-0.20111294,0.6392518,9.710882,-0.0018325958,0.0,0.02076942,-0.06571950763463974,0.02070709876716137,1.922216773033142,1017.468,
2021.02.11 16:39:39,35.0,25.0,-21.96,-11.34,-42.6,-0.2801216,0.6871359,9.61272,0.010995574,-0.01160644,0.0012217305,-0.07133039087057114,0.029132479801774025,1.9153202772140503,1017.468,
2021.02.11 16:39:39,35.0,25.0,-22.08,-11.7,-42.84,-0.25139117,0.7134721,9.545682,0.016493361,-0.0018325958,0.005497787,-0.0745784267783165,0.02632950432598591,1.9227420091629028,1017.468,
2021.02.11 16:39:39,35.0,25.0,-21.779999,-12.059999,-43.26,-0.31603462,0.6512229,9.667787,-0.007330383,0.0018325958,0.008552114,-0.06722268462181091,0.03267781063914299,1.947710633277893,1017.468,
2021.02.11 16:39:39,35.0,25.0,-22.199999,-12.12,-43.559998,-0.2633622,0.6488287,9.651027,-0.01038471,-0.010995574,0.028099801,-0.0671030655503273,0.02728174440562725,1.9461894035339355,1017.468,
2021.02.11 16:39:39,35.0,25.0,-22.02,-12.179999,-43.8,-0.17717093,0.6871359,9.579201,0.0036651916,0.0030543262,0.009162978,-0.07159721106290817,0.01849326863884926,1.9480772018432617,1017.4734,
2021.02.11 16:39:39,35.0,25.0,-22.199999,-11.639999,-43.86,-0.22505496,0.6679823,9.744401,-0.009162978,-0.019547688,0.007941248,-0.06842510402202606,0.023091718554496765,1.9275736808776855,1017.4734,
2021.02.11 16:39:39,35.0,25.0,-22.26,-11.099999,-43.26,-0.23463176,0.6775591,9.703699,0.0036651916,0.0,0.021991149,-0.06969137489795685,0.02417490817606449,1.9053388833999634,1017.4734,
2021.02.11 16:39:39,35.0,25.0,-22.08,-11.16,-43.02,-0.19393034,0.6895301,9.713276,0.01038471,-0.004886922,0.013439035,-0.07085545361042023,0.019962841644883156,1.9110068082809448,1017.4734,
2021.02.11 16:39:39,35.0,25.0,-22.38,-10.8,-43.2,-0.11492168,0.6631939,9.617508,0.004886922,-0.014049901,0.009773844,-0.0688430443406105,0.011948647908866405,1.8999905586242676,1017.46924,
2021.02.11 16:39:39,35.0,25.0,-21.9,-11.16,-42.719997,-0.2681506,0.6655881,9.586384,0.031154128,-6.1086525E-4,-0.004886922,-0.06929230690002441,0.02796473540365696,1.9128209352493286,1017.46924,
2021.02.11 16:39:39,35.0,25.0,-22.14,-11.16,-43.26,-0.21547815,0.7158663,9.677363,0.005497787,-0.032375857,-0.017715093,-0.073820561170578,0.02226252481341362,1.9033011198043823,1017.46924,
2021.02.11 16:39:39,35.0,25.0,-21.84,-11.16,-43.02,-0.30406362,0.7302315,9.593566,0.02321288,-0.002443461,-0.0030543262,-0.0759323313832283,0.03168392926454544,1.8998199701309204,1017.46924,
2021.02.11 16:39:39,35.0,25.0,-21.66,-11.46,-42.42,-0.2657564,0.7350199,9.572019,0.014660766,-0.035430185,0.01282817,-0.07660859823226929,0.02775675244629383,1.9166879653930664,1017.4724,
2021.02.11 16:39:39,35.0,25.0,-22.26,-11.46,-42.54,-0.1340753,0.6823475,9.682152,-0.0012217305,-0.01038471,0.027488936,-0.0703517273068428,0.013846791349351406,1.925559639930725,1017.4724,
2021.02.11 16:39:39,35.0,25.0,-21.779999,-11.94,-42.3,-0.18195933,0.6727707,9.691729,-0.0012217305,-0.017104227,0.0012217305,-0.06929363310337067,0.01877249777317047,1.9506653547286987,1017.4724,
2021.02.11 16:39:39,35.0,25.0,-22.08,-11.82,-42.719997,-0.062249243,0.6464345,9.737218,0.009162978,-0.056199603,0.010995574,-0.06628938019275665,0.006392831914126873,1.9525585174560547,1017.4724,
2021.02.11 16:39:39,35.0,25.0,-21.66,-11.88,-43.14,-0.25617957,0.7350199,9.835381,0.019547688,-0.08979719,-0.021380283,-0.07456837594509125,0.026040850207209587,1.9347617626190186,1017.47974,
2021.02.11 16:39:39,35.0,25.0,-21.66,-11.639999,-43.32,-0.1412579,0.79008657,9.64145,0.059253927,-0.1881465,-0.032986723,-0.08175542950630188,0.014650057069957256,1.9189103841781616,1017.47974,
2021.02.11 16:39:39,35.0,25.0,-22.14,-11.28,-43.02,-0.22026655,0.81642276,9.569624,0.05131268,-0.049480084,-0.0061086523,-0.08508546650409698,0.023013200610876083,1.8894093036651611,1017.47974,
2021.02.11 16:39:39,35.0,25.0,-22.199999,-11.219999,-42.6,0.2681506,0.62009823,10.314221,-0.02321288,-0.06841691,0.045814894,-0.06002819165587425,-0.025992287322878838,1.9584871530532837,1017.47974,
