Time,X-cord,Y-cord,Mag_x,Mag_y,Mag_z,Acc_x,Acc_y,Acc_z,Gyro_x,Gyro_y,Gyro_z,Orn_x,Orn_y,Orn_z,Pressure,
2021.02.11 16:36:30,44.0,33.0,16.56,-24.84,-24.72,0.0023942017,0.6464345,9.627085,0.019547688,-0.23762658,0.036651913,-0.06704683601856232,-2.4869435583241284E-4,-2.5200295448303223,1017.56396,
2021.02.11 16:36:30,44.0,33.0,16.56,-24.66,-24.48,-0.19153613,0.7374141,9.49301,0.057421334,-0.08246681,0.0067195175,-0.07750830799341202,0.020173808559775352,-2.525047540664673,1017.56396,
2021.02.11 16:36:30,44.0,33.0,16.74,-24.24,-24.539999,-0.2705448,0.7302315,9.306262,0.007330383,0.040317107,-0.005497787,-0.07827330380678177,0.02906307764351368,-2.5167148113250732,1017.56396,
2021.02.11 16:36:30,44.0,33.0,16.56,-24.119999,-24.48,-0.047884032,0.6655881,9.8042555,-0.0720821,-0.0012217305,0.057421334,-0.06778286397457123,0.004883966408669949,-2.5084731578826904,1017.56396,
2021.02.11 16:36:30,44.0,33.0,16.92,-24.72,-24.24,0.04070143,0.62967503,10.036493,-0.07880162,0.0067195175,0.054367006,-0.06265591084957123,-0.004055321216583252,-2.5078444480895996,1017.5703,
2021.02.11 16:36:30,44.0,33.0,16.74,-25.019999,-24.24,-0.15322891,0.7038953,9.483433,0.06658431,-0.004886922,0.027488936,-0.07407818734645844,0.016156131401658058,-2.526531934738159,1017.5703,
2021.02.11 16:36:30,44.0,33.0,16.8,-25.199999,-24.06,-0.09816227,0.7326257,9.488221,0.04520403,-0.01038471,0.043982297,-0.07705722004175186,0.010345328599214554,-2.523165464401245,1017.5703,
2021.02.11 16:36:30,44.0,33.0,16.8,-25.14,-24.18,-0.074220255,0.6775591,9.715671,-0.017715093,0.009162978,0.051923547,-0.06962403655052185,0.0076390826143324375,-2.52392315864563,1017.5703,
2021.02.11 16:36:30,44.0,33.0,16.859999,-24.84,-24.42,-0.079008654,0.6440403,9.540894,-0.019547688,0.02565634,0.03176499,-0.06739859282970428,0.008280863985419273,-2.5174593925476074,1017.57104,
2021.02.11 16:36:30,44.0,33.0,16.92,-24.96,-24.42,-0.1436521,0.61770403,9.445126,-0.004886922,0.059253927,0.009773844,-0.06529871374368668,0.015207952819764614,-2.5240156650543213,1017.57104,
2021.02.11 16:36:31,44.0,33.0,17.34,-25.38,-24.539999,-0.090979666,0.6392518,9.679757,-0.055588737,0.052534413,0.01160644,-0.06594140827655792,0.00939868576824665,-2.5162742137908936,1017.57104,
2021.02.11 16:36:31,44.0,33.0,17.16,-25.26,-24.72,-0.2657564,0.58897364,9.742006,-0.07147124,0.08124508,0.007330383,-0.060361217707395554,0.027272669598460197,-2.533905267715454,1017.57104,
2021.02.11 16:36:31,44.0,33.0,16.859999,-25.38,-24.779999,-0.07182605,0.60094464,9.873688,-0.057421334,0.030543262,0.069027774,-0.0607866495847702,0.007274361792951822,-2.530724287033081,1017.5725,
2021.02.11 16:36:31,44.0,33.0,16.619999,-25.14,-24.539999,0.1364695,0.5770026,9.68694,-0.029321533,0.0012217305,0.08979719,-0.05948881804943085,-0.014087055809795856,-2.519365072250366,1017.5725,
2021.02.11 16:36:31,44.0,33.0,15.96,-24.96,-25.14,0.06703765,0.4237737,9.837775,-0.021380283,0.055588737,0.036651913,-0.043048564344644547,-0.0068142046220600605,-2.547104597091675,1017.5725,
2021.02.11 16:36:31,44.0,33.0,16.08,-25.38,-24.779999,-0.074220255,0.5626374,9.854534,0.035430185,0.059253927,-0.007330383,-0.057030729949474335,0.00753144221380353,-2.55513596534729,1017.5725,
2021.02.11 16:36:31,44.0,33.0,15.96,-25.56,-25.08,-0.20350714,0.5722142,9.68694,0.07513642,0.040317107,-0.03176499,-0.05898914113640785,0.021005313843488693,-2.5705535411834717,1017.5764,
2021.02.11 16:36:31,44.0,33.0,16.14,-25.98,-25.38,-0.36631286,0.5482722,9.593566,0.089186326,0.032986723,-0.047036625,-0.05704640969634056,0.038164641708135605,-2.5866928100585938,1017.5764,
2021.02.11 16:36:31,44.0,33.0,16.32,-25.38,-24.84,-0.40222588,0.5793968,9.555259,0.08002335,0.03176499,-0.023823744,-0.06050882115960121,0.04206987842917442,-2.5712528228759766,1017.5764,
2021.02.11 16:36:31,44.0,33.0,16.32,-24.96,-24.66,-0.31124622,0.6655881,9.61272,0.030543262,-0.015882496,0.012217305,-0.06909392774105072,0.0323672741651535,-2.5514461994171143,1017.5764,
2021.02.11 16:36:31,44.0,33.0,16.92,-24.96,-24.24,-0.24420857,0.6799533,9.816227,0.008552114,-0.02565634,0.028710667,-0.06913650780916214,0.0248729195445776,-2.5287344455718994,1017.573,
2021.02.11 16:36:31,44.0,33.0,16.859999,-24.66,-24.24,-0.23223756,0.7350199,9.921572,0.045814894,0.020158553,0.02076942,-0.07392776012420654,0.02340306155383587,-2.5207250118255615,1017.573,
2021.02.11 16:36:31,44.0,33.0,16.8,-25.019999,-24.0,-0.20829555,0.6751649,9.665392,0.13561209,0.029932396,0.026267206,-0.0697244331240654,0.02154732123017311,-2.5310006141662598,1017.573,
2021.02.11 16:36:31,44.0,33.0,16.5,-24.96,-24.24,-0.12689269,0.7422025,9.528923,0.1423316,0.017104227,0.037873644,-0.07772564142942429,0.013315795920789242,-2.5283639430999756,1017.573,
2021.02.11 16:36:31,44.0,33.0,16.14,-25.019999,-24.119999,-0.38307226,0.82121116,9.7084875,0.06536258,0.01038471,0.0061086523,-0.08432075381278992,0.039437003433704376,-2.5552680492401123,1017.5676,
2021.02.11 16:36:31,44.0,33.0,16.38,-25.32,-23.58,-0.39264908,0.8643068,9.61272,0.06414085,0.01282817,0.019547688,-0.08959738910198212,0.04082413390278816,-2.5524799823760986,1017.5676,
2021.02.11 16:36:31,44.0,33.0,16.08,-25.32,-23.939999,-0.1604115,0.92655605,9.536105,0.06047566,-0.0012217305,0.042760566,-0.09684528410434723,0.01681990548968315,-2.5405433177948,1017.5676,
2021.02.11 16:36:31,44.0,33.0,16.74,-25.38,-24.0,-0.10295067,0.8810662,9.679757,0.01160644,0.004276057,0.037873644,-0.0907662883400917,0.01063526514917612,-2.521481990814209,1017.5676,
2021.02.11 16:36:31,44.0,33.0,16.98,-25.32,-24.0,-0.11971009,0.8858546,9.718064,0.0061086523,-0.007941248,0.010995574,-0.09089736640453339,0.012317683547735214,-2.514427900314331,1017.563,
2021.02.11 16:36:31,44.0,33.0,16.8,-25.32,-24.18,-0.19871874,0.80205756,9.82341,0.009773844,0.04520403,0.0030543262,-0.08145026862621307,0.020226340740919113,-2.529757022857666,1017.563,
2021.02.11 16:36:31,44.0,33.0,17.1,-25.5,-23.519999,-0.33997664,0.94092125,9.509769,0.047036625,-0.015271631,-0.026267206,-0.09855905175209045,0.035735033452510834,-2.5266051292419434,1017.563,
2021.02.11 16:36:31,44.0,33.0,16.68,-25.439999,-23.82,-0.35673606,0.9624691,9.476251,0.048258353,0.004886922,-0.013439035,-0.10114819556474686,0.037627510726451874,-2.5373013019561768,1017.563,
2021.02.11 16:36:31,44.0,33.0,16.74,-25.74,-23.4,-0.22026655,0.9600749,9.746795,-0.031154128,-0.018325957,0.03176499,-0.09815996885299683,0.02259502373635769,-2.5335636138916016,1017.5593,
2021.02.11 16:36:31,44.0,33.0,16.68,-25.8,-23.64,-0.31603462,0.94810385,9.785102,-0.03176499,-0.014049901,0.022602014,-0.09654103964567184,0.032286304980516434,-2.543541669845581,1017.5593,
2021.02.11 16:36:31,44.0,33.0,16.859999,-25.5,-24.119999,-0.18674773,0.8762778,9.794679,-0.013439035,0.01160644,0.02076942,-0.08921100944280624,0.019063934683799744,-2.5267703533172607,1017.5593,
2021.02.11 16:36:32,44.0,33.0,16.98,-25.56,-23.519999,-0.15322891,0.89782566,9.653421,0.0036651916,-0.008552114,0.018936822,-0.09272755682468414,0.0158716831356287,-2.521369218826294,1017.5593,
2021.02.11 16:36:32,44.0,33.0,16.5,-25.08,-24.0,-0.23702596,0.8643068,9.583989,0.01282817,0.0012217305,0.0,-0.08991172909736633,0.02472640946507454,-2.5323359966278076,1017.5608,
2021.02.11 16:36:32,44.0,33.0,16.199999,-25.08,-23.58,-0.23223756,0.8810662,9.775525,-0.004886922,0.004276057,6.1086525E-4,-0.08986172080039978,0.023752573877573013,-2.541074275970459,1017.5608,
2021.02.11 16:36:32,44.0,33.0,16.08,-25.8,-23.4,-0.3184288,0.94570965,9.911995,-0.0061086523,0.0030543262,-0.0018325958,-0.09507393091917038,0.032114557921886444,-2.562187910079956,1017.5608,
2021.02.11 16:36:32,44.0,33.0,16.38,-26.16,-23.519999,-0.29927522,0.93134445,9.77792,0.03176499,-0.008552114,6.1086525E-4,-0.09491908550262451,0.03059769608080387,-2.5591933727264404,1017.5608,
2021.02.11 16:36:32,44.0,33.0,16.5,-27.0,-23.16,-0.31124622,0.8355764,9.619903,0.055588737,-0.009773844,0.014049901,-0.08659660071134567,0.032343119382858276,-2.5769174098968506,1017.56396,
2021.02.11 16:36:32,44.0,33.0,16.8,-26.939999,-23.4,-0.1340753,0.8283938,9.595961,0.036651913,-0.03604105,0.031154128,-0.08610548824071884,0.013971146196126938,-2.55546498298645,1017.56396,
2021.02.11 16:36:32,44.0,33.0,16.5,-26.88,-23.4,-0.22505496,0.8595184,9.526528,0.03176499,-0.0067195175,0.007330383,-0.08995507657527924,0.0236196331679821,-2.567213535308838,1017.56396,
2021.02.11 16:36:32,44.0,33.0,16.199999,-26.279999,-23.46,-0.23463176,0.9768343,9.763555,-0.007941248,-0.031154128,0.018325957,-0.09968861937522888,0.024026762694120407,-2.5600051879882812,1017.56396,
2021.02.11 16:36:32,44.0,33.0,16.199999,-25.859999,-23.58,-0.1436521,0.94570965,9.713276,0.012217305,-0.004886922,0.02076942,-0.09704612195491791,0.014788175001740456,-2.5468502044677734,1017.5654,
2021.02.11 16:36:32,44.0,33.0,16.32,-25.619999,-23.34,-0.16998832,0.93134445,9.653421,0.01282817,-0.010995574,0.0067195175,-0.09616567194461823,0.017607307061553,-2.541248083114624,1017.5654,
2021.02.11 16:36:32,44.0,33.0,16.38,-25.56,-23.4,-0.17477672,0.92416185,9.557653,0.015271631,0.0030543262,0.005497787,-0.09637770056724548,0.01828453503549099,-2.5385403633117676,1017.5654,
2021.02.11 16:36:32,44.0,33.0,16.14,-26.039999,-23.34,-0.23463176,0.94570965,9.703699,-0.018936822,-0.010995574,-0.0012217305,-0.0971236601471901,0.02417491003870964,-2.5586915016174316,1017.5654,
2021.02.11 16:36:32,44.0,33.0,16.32,-25.92,-23.4,-0.16998832,0.93134445,9.694122,-0.018325957,0.004886922,0.009162978,-0.09576451033353806,0.017533397302031517,-2.5472617149353027,1017.56494,
2021.02.11 16:36:32,44.0,33.0,16.08,-26.22,-23.519999,-0.11731588,0.94331545,9.569624,-0.0018325958,-0.005497787,0.0067195175,-0.0982491672039032,0.012258580885827541,-2.55517578125,1017.56494,
2021.02.11 16:36:32,44.0,33.0,16.14,-26.099998,-23.46,-0.22744916,0.9840169,9.660604,-0.03359759,0.01160644,-6.1086525E-4,-0.10148071497678757,0.023539641872048378,-2.557051658630371,1017.56494,
2021.02.11 16:36:32,44.0,33.0,16.5,-25.98,-23.46,-0.1412579,0.92655605,9.871294,-0.04153884,-0.002443461,0.012217305,-0.09357994794845581,0.0143089909106493,-2.5421335697174072,1017.56494,
2021.02.11 16:36:32,44.0,33.0,16.38,-26.279999,-23.4,-0.17238252,0.92895025,9.749189,0.0018325958,-0.009162978,0.007941248,-0.0949833020567894,0.017679886892437935,-2.553002119064331,1017.5737,
2021.02.11 16:36:32,44.0,33.0,16.74,-25.859999,-23.22,-0.20111294,0.94092125,9.667787,0.021380283,0.005497787,-0.007330383,-0.09699898958206177,0.02079937607049942,-2.5356333255767822,1017.5737,
2021.02.11 16:36:32,44.0,33.0,16.26,-25.859999,-23.519999,-0.14604631,0.91697925,9.55047,0.02076942,0.0036651916,0.0018325958,-0.09570949524641037,0.015290862880647182,-2.5462088584899902,1017.5737,
2021.02.11 16:36:32,44.0,33.0,16.08,-25.38,-23.88,-0.18674773,0.8834604,9.672575,-0.0018325958,0.0061086523,-0.008552114,-0.09106702357530594,0.019304532557725906,-2.546647310256958,1017.5737,
2021.02.11 16:36:32,44.0,33.0,16.32,-25.08,-23.699999,-0.16280572,0.93134445,9.595961,-0.004276057,0.012217305,-0.0036651916,-0.09673900902271271,0.016964439302682877,-2.5290143489837646,1017.5674,
2021.02.11 16:36:32,44.0,33.0,16.199999,-25.619999,-24.3,-0.2633622,0.91219085,9.742006,-0.007330383,0.0061086523,-0.014049901,-0.09332869201898575,0.027027089148759842,-2.551560640335083,1017.5674,
2021.02.11 16:36:32,44.0,33.0,16.56,-25.439999,-24.18,-0.24660277,0.91219085,9.619903,0.0012217305,0.01160644,-0.007330383,-0.09450975060462952,0.02562902867794037,-2.5358083248138428,1017.5674,
2021.02.11 16:36:32,44.0,33.0,16.32,-25.859999,-23.82,-0.21547815,0.90021986,9.583989,0.016493361,0.009773844,-0.007330383,-0.09363125264644623,0.022479351609945297,-2.5499684810638428,1017.5674,
2021.02.11 16:36:33,44.0,33.0,15.839999,-26.039999,-24.24,-0.20111294,0.90021986,9.744401,-0.012217305,0.022602014,-0.0018325958,-0.09210231155157089,0.02063589170575142,-2.566687822341919,1017.57544,
2021.02.11 16:36:33,44.0,33.0,15.54,-25.5,-24.0,-0.09816227,0.9576807,9.643845,-0.0012217305,0.0036651916,-0.005497787,-0.09897525608539581,0.0101783974096179,-2.5545098781585693,1017.57544,
2021.02.11 16:36:33,44.0,33.0,15.78,-25.32,-24.0,-0.24420857,0.91458505,9.610326,0.01038471,0.007330383,-0.022602014,-0.09485073387622833,0.02540559321641922,-2.5565812587738037,1017.57544,
2021.02.11 16:36:33,44.0,33.0,16.56,-25.199999,-24.119999,-0.12210429,0.9528923,9.7084875,-0.0018325958,-0.009773844,-0.012217305,-0.09782937914133072,0.012576403096318245,-2.5202183723449707,1017.57544,
2021.02.11 16:36:33,44.0,33.0,16.74,-25.08,-23.939999,-0.22744916,0.9672575,9.65821,0.0067195175,-0.022602014,-0.03359759,-0.09978842735290527,0.02354547381401062,-2.519063711166382,1017.57886,
2021.02.11 16:36:33,44.0,33.0,16.859999,-25.38,-23.699999,-0.30406362,0.9744401,9.581595,-0.007941248,-0.028099801,-0.023823744,-0.10130005329847336,0.03172348439693451,-2.5267698764801025,1017.57886,
2021.02.11 16:36:33,44.0,33.0,16.68,-25.859999,-23.699999,-0.18195933,0.89303726,9.634268,-0.023823744,-0.01038471,0.005497787,-0.09241333603858948,0.018884435296058655,-2.5378658771514893,1017.57886,
2021.02.11 16:36:33,44.0,33.0,16.26,-25.74,-24.06,-0.11971009,0.8619126,9.485827,-0.032375857,-0.019547688,-0.01282817,-0.09060720354318619,0.012619218789041042,-2.5439324378967285,1017.57886,
2021.02.11 16:36:33,44.0,33.0,16.199999,-26.039999,-24.0,-0.06943185,0.90979666,9.730036,-0.065973446,0.002443461,-0.018325957,-0.0932304859161377,0.007135705556720495,-2.546595573425293,1017.5659,
2021.02.11 16:36:33,44.0,33.0,16.44,-25.92,-23.939999,-0.18435353,0.89303726,9.892841,-0.056199603,0.010995574,-0.02687807,-0.09001149982213974,0.018632886931300163,-2.5467729568481445,1017.5659,
2021.02.11 16:36:33,44.0,33.0,16.56,-25.68,-24.24,-0.19632454,0.91697925,9.82341,-0.009162978,-6.1086525E-4,-0.021991149,-0.09305813163518906,0.01998271606862545,-2.537466526031494,1017.5659,
2021.02.11 16:36:33,44.0,33.0,16.44,-26.22,-23.939999,-0.21547815,0.91937345,9.792285,0.02687807,0.0012217305,-0.02076942,-0.09359058737754822,0.022001340985298157,-2.5530223846435547,1017.5659,
2021.02.11 16:36:33,44.0,33.0,16.38,-25.619999,-24.18,-0.21547815,0.8403648,9.674969,0.040317107,0.0030543262,-0.008552114,-0.08662085980176926,0.022268032655119896,-2.5466156005859375,1017.55835,
2021.02.11 16:36:33,44.0,33.0,16.26,-25.8,-23.939999,-0.17717093,0.8858546,9.543288,0.016493361,0.0061086523,-0.01038471,-0.09254378825426102,0.01856284588575363,-2.548304557800293,1017.55835,
2021.02.11 16:36:33,44.0,33.0,16.14,-25.859999,-23.4,-0.22505496,0.8595184,9.653421,0.004886922,0.01282817,-0.018325957,-0.0887795239686966,0.023309269919991493,-2.5587854385375977,1017.55835,
2021.02.11 16:36:33,44.0,33.0,16.619999,-25.8,-23.22,-0.16280572,0.90740246,9.698911,0.01038471,-0.004276057,-0.010995574,-0.09327255189418793,0.01678440347313881,-2.5372273921966553,1017.55835,
2021.02.11 16:36:33,44.0,33.0,16.5,-26.519999,-23.16,-0.19871874,0.8714894,9.76116,0.02076942,0.015271631,-0.02076942,-0.08902689069509506,0.02035529538989067,-2.5590858459472656,1017.5625,
2021.02.11 16:36:33,44.0,33.0,16.68,-26.16,-23.76,-0.19871874,0.8738836,9.536105,0.028710667,-0.0030543262,-0.018325957,-0.09136450290679932,0.020835548639297485,-2.5455033779144287,1017.5625,
2021.02.11 16:36:33,44.0,33.0,16.859999,-26.16,-23.939999,-0.20829555,0.89064306,9.607931,-0.0018325958,0.002443461,-0.01160644,-0.09241297841072083,0.02167614735662937,-2.5401456356048584,1017.5625,
2021.02.11 16:36:33,44.0,33.0,16.5,-26.279999,-24.24,-0.20350714,0.90021986,9.672575,-0.010995574,0.007941248,-0.014049901,-0.09278155863285065,0.021036500111222267,-2.551849603652954,1017.5625,
2021.02.11 16:36:33,44.0,33.0,16.74,-25.74,-23.939999,-0.260968,0.92655605,9.624691,-0.005497787,-0.0067195175,-0.01160644,-0.09593786299228668,0.027107786387205124,-2.537092685699463,1017.5637,
2021.02.11 16:36:33,44.0,33.0,16.44,-26.099998,-23.939999,-0.29209262,0.89782566,9.792285,-0.009162978,0.0018325958,0.0018325958,-0.09139097481966019,0.02982001006603241,-2.5571742057800293,1017.5637,
2021.02.11 16:36:33,44.0,33.0,16.32,-26.099998,-24.06,-0.1364695,0.8690952,9.607931,0.009773844,-0.005497787,6.1086525E-4,-0.0902014672756195,0.014202883467078209,-2.5505130290985107,1017.5637,
2021.02.11 16:36:33,44.0,33.0,16.5,-25.5,-23.46,-0.20829555,0.90500826,9.636662,6.1086525E-4,0.0018325958,-0.005497787,-0.09361667186021805,0.021611543372273445,-2.537402868270874,1017.5637,
2021.02.11 16:36:33,44.0,33.0,16.44,-25.439999,-23.82,-0.20350714,0.8379706,9.679757,-0.0036651916,6.1086525E-4,6.1086525E-4,-0.08633510768413544,0.02102089487016201,-2.540968418121338,1017.57495,
2021.02.11 16:36:33,44.0,33.0,15.9,-25.38,-23.88,-0.32800564,0.93373865,9.595961,6.1086525E-4,-0.0061086523,-0.0061086523,-0.09694375097751617,0.03416833654046059,-2.559372901916504,1017.57495,
2021.02.11 16:36:34,44.0,33.0,15.78,-25.32,-23.58,-0.20350714,0.93373865,9.586384,-0.012217305,0.005497787,0.01038471,-0.09707457572221756,0.021225580945611,-2.552973985671997,1017.57495,
2021.02.11 16:36:34,44.0,33.0,15.78,-25.68,-23.88,-0.21308395,0.92416185,9.744401,-0.02443461,-0.004886922,0.010995574,-0.0945349931716919,0.02186383679509163,-2.561521053314209,1017.57495,
2021.02.11 16:36:34,44.0,33.0,15.96,-25.74,-23.88,-0.16519992,0.8858546,9.653421,-0.0012217305,0.004886922,0.015882496,-0.09149625897407532,0.01711142435669899,-2.5556068420410156,1017.56714,
2021.02.11 16:36:34,44.0,33.0,16.8,-25.859999,-23.279999,-0.15083471,0.8882488,9.703699,-0.0036651916,0.0012217305,-0.0067195175,-0.0912717804312706,0.015542791225016117,-2.533393621444702,1017.56714,
2021.02.11 16:36:34,44.0,33.0,17.039999,-25.439999,-23.939999,-0.24420857,0.90979666,9.715671,0.007941248,0.004276057,0.0012217305,-0.09334060549736023,0.025130243971943855,-2.5224194526672363,1017.56714,
2021.02.11 16:36:34,44.0,33.0,17.16,-25.32,-24.0,-0.25857377,0.94570965,9.543288,6.1086525E-4,-0.010995574,0.015271631,-0.09873834997415543,0.02708820253610611,-2.514747142791748,1017.56714,
2021.02.11 16:36:34,44.0,33.0,17.039999,-25.32,-23.64,-0.1388637,0.89303726,9.674969,-0.01282817,0.009773844,0.01038471,-0.09203365445137024,0.01435189787298441,-2.5139732360839844,1017.5703,
2021.02.11 16:36:34,44.0,33.0,16.68,-25.5,-23.64,-0.1412579,0.8571242,9.629479,-0.0018325958,0.0030543262,-0.002443461,-0.08876697719097137,0.014668265357613564,-2.5298943519592285,1017.5703,
2021.02.11 16:36:34,44.0,33.0,16.44,-26.099998,-23.039999,-0.19632454,0.89064306,9.6845455,-0.0012217305,0.007330383,-0.015271631,-0.09168870002031326,0.020269164815545082,-2.5515854358673096,1017.5703,
2021.02.11 16:36:34,44.0,33.0,16.08,-26.279999,-23.16,-0.29448682,0.92416185,9.624691,-0.004276057,0.0061086523,-0.004886922,-0.09568192064762115,0.030587472021579742,-2.570281744003296,1017.5703,
2021.02.11 16:36:34,44.0,33.0,16.44,-26.16,-23.34,-0.16280572,0.8643068,9.651027,0.002443461,0.007941248,-0.004886922,-0.08930502831935883,0.016867663711309433,-2.5513525009155273,1017.56494,
2021.02.11 16:36:34,44.0,33.0,16.5,-25.38,-23.82,-0.15801731,0.8882488,9.65821,0.0030543262,-0.008552114,-0.01038471,-0.09169808030128479,0.016359472647309303,-2.532011032104492,1017.56494,
2021.02.11 16:36:34,44.0,33.0,16.98,-25.019999,-24.0,-0.17477672,0.90021986,9.615114,0.0018325958,-0.01038471,-0.008552114,-0.0933380275964737,0.018175287172198296,-2.510739803314209,1017.56494,
2021.02.11 16:36:34,44.0,33.0,17.46,-25.26,-23.64,-0.21787235,0.90979666,9.746795,-0.007941248,-0.0030543262,-0.012217305,-0.09305036067962646,0.022349508479237556,-2.505434513092041,1017.56494,
2021.02.11 16:36:34,44.0,33.0,16.98,-25.08,-23.64,-0.18195933,0.8882488,9.593566,0.005497787,-0.010995574,-0.0036651916,-0.09230823814868927,0.018964536488056183,-2.513590097427368,1017.5642,
2021.02.11 16:36:34,44.0,33.0,17.279999,-25.439999,-23.699999,-0.18914193,0.89064306,9.627085,-0.004276057,0.0012217305,-0.007941248,-0.09223401546478271,0.019644327461719513,-2.5128555297851562,1017.5642,
2021.02.11 16:36:34,44.0,33.0,16.38,-25.38,-23.939999,-0.11731588,0.8283938,9.749189,-0.009773844,6.1086525E-4,-0.004886922,-0.08476080745458603,0.012032817117869854,-2.536116361618042,1017.5642,
2021.02.11 16:36:34,44.0,33.0,16.32,-24.72,-24.24,-0.30885202,0.91697925,9.61272,-0.004276057,-0.017104227,-0.017715093,-0.09505574405193329,0.03211846575140953,-2.532322883605957,1017.5642,
2021.02.11 16:36:34,44.0,33.0,16.32,-25.56,-24.18,-0.18435353,0.8690952,9.603143,0.0030543262,-0.01160644,-0.005497787,-0.09023871272802353,0.019194848835468292,-2.5431389808654785,1017.5752,
2021.02.11 16:36:34,44.0,33.0,16.02,-25.199999,-24.24,-0.12689269,0.92655605,9.677363,-0.017104227,-0.027488936,6.1086525E-4,-0.09544555842876434,0.013111568987369537,-2.5376219749450684,1017.5752,
2021.02.11 16:36:34,44.0,33.0,16.56,-25.26,-24.06,-0.15083471,0.90979666,9.725247,-0.02321288,-0.032375857,-0.008552114,-0.09326734393835068,0.015508358366787434,-2.5260493755340576,1017.5752,
2021.02.11 16:36:34,44.0,33.0,15.9,-25.8,-23.82,-0.15801731,0.78290397,9.694122,-0.0030543262,-0.019547688,6.1086525E-4,-0.0805751234292984,0.016298877075314522,-2.5636327266693115,1017.5752,
2021.02.11 16:36:34,44.0,33.0,15.599999,-25.26,-24.119999,-0.1364695,0.866701,9.579201,6.1086525E-4,-0.030543262,-6.1086525E-4,-0.09022259712219238,0.014245474711060524,-2.5552399158477783,1017.594,
2021.02.11 16:36:34,44.0,33.0,15.66,-25.68,-24.24,-0.15801731,0.8283938,9.572019,-0.007941248,-0.01160644,-0.010995574,-0.08631647378206253,0.016506753861904144,-2.565201997756958,1017.594,
2021.02.11 16:36:34,44.0,33.0,15.42,-25.439999,-23.76,-0.18435353,0.8619126,9.662998,-0.019547688,-0.028099801,-0.014660766,-0.08894569426774979,0.01907598040997982,-2.56880259513855,1017.594,
2021.02.11 16:36:35,44.0,33.0,16.26,-24.96,-24.0,-0.110133275,0.8523358,9.832987,-0.009773844,-0.031154128,0.0030543262,-0.08645974844694138,0.011199920438230038,-2.5295395851135254,1017.594,
2021.02.11 16:36:35,44.0,33.0,16.199999,-24.72,-23.76,-0.088585466,0.8499416,9.667787,0.015271631,-0.051923547,-0.014049901,-0.08768569678068161,0.009162696078419685,-2.524648904800415,1017.5935,
2021.02.11 16:36:35,44.0,33.0,16.14,-24.72,-23.76,0.11971009,0.7350199,9.648633,0.043982297,-0.10323623,-0.013439035,-0.07602598518133163,-0.012406310997903347,-2.5182952880859375,1017.5935,
2021.02.11 16:36:35,44.0,33.0,16.38,-25.14,-23.76,0.22984336,0.9744401,9.339781,0.03970624,-0.20097467,-0.05131268,-0.10392487794160843,-0.024604108184576035,-2.4974398612976074,1017.5935,
2021.02.11 16:36:35,44.0,33.0,15.78,-25.619999,-23.939999,-0.023942016,0.8690952,10.101137,-0.07696902,-0.03481932,-0.057421334,-0.08582773059606552,0.002370225265622139,-2.5513415336608887,1017.5935,
2021.02.11 16:36:35,44.0,33.0,16.14,-25.619999,-23.88,-0.0047884034,0.91697925,9.67018,0.028710667,-0.1142318,-0.049480084,-0.09454274922609329,4.95172047521919E-4,-2.535127878189087,1017.5879,
