Time,X-cord,Y-cord,Mag_x,Mag_y,Mag_z,Acc_x,Acc_y,Acc_z,Gyro_x,Gyro_y,Gyro_z,Orn_x,Orn_y,Orn_z,Pressure,
2021.02.11 16:38:41,40.0,25.0,-21.9,-14.099999,-45.84,-0.062249243,0.866701,9.258378,0.26633725,-0.01160644,-0.02687807,-0.0933384969830513,0.006723457016050816,1.985628604888916,1017.48193,
2021.02.11 16:38:41,40.0,25.0,-21.9,-14.16,-45.48,-0.5315128,0.6991069,8.734048,0.24495697,0.22357668,-0.064751714,-0.0797266960144043,0.06078030914068222,1.9775112867355347,1017.48193,
2021.02.11 16:38:41,40.0,25.0,-21.66,-13.92,-45.36,-0.2873042,0.7613561,9.744401,-0.070249505,-0.03726278,0.044593163,-0.07794052362442017,0.029475489631295204,1.9955601692199707,1017.48193,
2021.02.11 16:38:41,40.0,25.0,-21.66,-14.04,-45.48,-0.11252748,0.79008657,9.983821,-0.13316862,-0.036651913,0.08002335,-0.07896711677312851,0.01127050630748272,2.01043701171875,1017.48193,
2021.02.11 16:38:41,40.0,25.0,-21.6,-14.219999,-45.12,-0.007182605,0.7350199,9.718064,-0.05375614,-0.0580322,0.077579886,-0.07549064606428146,7.390982354991138E-4,2.033005475997925,1017.4824,
2021.02.11 16:38:41,40.0,25.0,-21.66,-14.04,-45.48,0.05267244,0.6703765,9.742006,-0.044593163,-0.13683382,0.06780604,-0.06870367377996445,-0.005406681448221207,2.0407674312591553,1017.4824,
2021.02.11 16:38:41,40.0,25.0,-21.96,-14.04,-45.78,-0.20590134,0.7110779,9.634268,0.01038471,-0.02565634,0.023823744,-0.07365681231021881,0.021368516609072685,2.0062098503112793,1017.4824,
2021.02.11 16:38:41,40.0,25.0,-22.26,-14.099999,-46.079998,-0.19393034,0.7422025,9.622296,0.018325957,-6.1086525E-4,0.017715093,-0.07696562260389328,0.020151540637016296,1.997860074043274,1017.4824,
2021.02.11 16:38:41,40.0,25.0,-22.619999,-14.219999,-46.44,-0.30406362,0.6344634,10.036493,-0.01160644,0.021380283,0.035430185,-0.06310276687145233,0.03028653748333454,2.0108461380004883,1017.4934,
2021.02.11 16:38:41,40.0,25.0,-22.199999,-14.5199995,-46.68,-0.11252748,0.7469909,9.598354,0.04153884,0.055588737,0.043982297,-0.07766302675008774,0.011723085306584835,2.0167813301086426,1017.4934,
2021.02.11 16:38:41,40.0,25.0,-22.38,-14.34,-46.62,-0.12449849,0.61530983,9.595961,0.040927973,0.034208454,0.057421334,-0.06402872502803802,0.012973323464393616,2.029384136199951,1017.4934,
2021.02.11 16:38:41,40.0,25.0,-22.26,-13.98,-46.14,-0.04309563,0.6512229,9.406818,0.01282817,-0.017715093,0.06047566,-0.06911781430244446,0.004581286106258631,2.0176284313201904,1017.4934,
2021.02.11 16:38:41,40.0,25.0,-22.02,-14.04,-45.66,-0.11971009,0.7062895,9.485827,-0.015271631,-0.0067195175,0.043982297,-0.07431431114673615,0.012619218789041042,2.01061749458313,1017.4888,
2021.02.11 16:38:41,40.0,25.0,-22.74,-13.92,-45.12,-0.16519992,0.7015011,9.325416,-0.028099801,-0.022602014,0.044593163,-0.07507149875164032,0.017713166773319244,1.9914029836654663,1017.4888,
2021.02.11 16:38:41,40.0,25.0,-22.8,-14.099999,-44.879997,-0.18914193,0.7661445,9.725247,-0.089186326,-0.012217305,0.047036625,-0.07860175520181656,0.01944609545171261,1.9907357692718506,1017.4888,
2021.02.11 16:38:41,40.0,25.0,-22.5,-14.16,-44.399998,-0.17956513,0.6919243,9.900024,-0.08674286,-0.02076942,0.04886922,-0.06976626068353653,0.018135858699679375,2.0139360427856445,1017.4888,
2021.02.11 16:38:42,40.0,25.0,-22.74,-14.099999,-44.64,-0.25378537,0.6703765,9.519346,-0.04337143,-0.025045475,0.036651913,-0.07028158009052277,0.02665364369750023,2.0009043216705322,1017.4868,
2021.02.11 16:38:42,40.0,25.0,-22.32,-13.799999,-44.879997,-0.20829555,0.7206547,9.52174,-0.07452556,-0.05375614,0.051923547,-0.07552317529916763,0.021872298792004585,1.991104006767273,1017.4868,
2021.02.11 16:38:42,40.0,25.0,-22.32,-13.62,-45.36,0.05746084,0.7589619,10.079589,-0.12156218,-0.032375857,0.07452556,-0.07515387237071991,-0.005700651090592146,2.0026156902313232,1017.4868,
2021.02.11 16:38:42,40.0,25.0,-22.56,-13.38,-46.02,0.007182605,0.7062895,10.240001,-0.06291912,0.014049901,0.03359759,-0.06886450201272964,-7.014261209405959E-4,1.9952396154403687,1017.4868,
2021.02.11 16:38:42,40.0,25.0,-22.38,-13.32,-46.14,-0.19153613,0.6703765,9.832987,0.032375857,-0.009773844,-0.01160644,-0.0680580735206604,0.019476473331451416,1.983174204826355,1017.4773,
2021.02.11 16:38:42,40.0,25.0,-22.38,-12.96,-45.719997,-0.25857377,0.51235914,9.591172,0.052534413,0.0012217305,-6.1086525E-4,-0.05334979295730591,0.02695302851498127,1.9906448125839233,1017.4773,
2021.02.11 16:38:42,40.0,25.0,-22.74,-13.0199995,-45.48,-0.038307227,0.4141969,9.873688,0.012217305,0.014660766,0.03848451,-0.041924674063920975,0.003879708703607321,2.0220787525177,1017.4773,
2021.02.11 16:38:42,40.0,25.0,-22.74,-13.0199995,-44.76,-0.090979666,0.5267244,9.548077,0.049480084,-0.014660766,0.008552114,-0.05510714277625084,0.009528296999633312,1.9980385303497314,1017.4773,
2021.02.11 16:38:42,40.0,25.0,-22.5,-12.84,-44.7,-0.21308395,0.6344634,9.583989,0.03726278,-0.013439035,-0.010995574,-0.06608761101961136,0.022229662165045738,1.9694658517837524,1017.4844,
2021.02.11 16:38:42,40.0,25.0,-22.38,-13.38,-44.879997,-0.24660277,0.6344634,10.000581,0.0061086523,-0.014049901,0.0036651916,-0.06333854049444199,0.024653848260641098,1.9930275678634644,1017.4844,
2021.02.11 16:38:42,40.0,25.0,-22.14,-13.139999,-45.0,-0.23223756,0.59615624,9.890448,0.037873644,-0.0036651916,0.0030543262,-0.06018657237291336,0.023476682603359222,1.9938597679138184,1017.4844,
2021.02.11 16:38:42,40.0,25.0,-22.38,-13.08,-45.539997,-0.062249243,0.47884035,9.514558,0.07513642,0.007941248,-0.0067195175,-0.05028362199664116,0.006542433053255081,2.0146090984344482,1017.4844,
2021.02.11 16:38:42,40.0,25.0,-22.859999,-13.2,-45.36,0.16998832,0.30406362,9.880871,0.014049901,0.002443461,0.01160644,-0.030758701264858246,-0.01720208302140236,2.0612053871154785,1017.4761,
2021.02.11 16:38:42,40.0,25.0,-23.039999,-13.0199995,-45.66,0.1388637,0.41180268,10.005369,0.005497787,0.009773844,-0.04337143,-0.041130997240543365,-0.013878026977181435,2.0314559936523438,1017.4761,
2021.02.11 16:38:42,40.0,25.0,-22.98,-13.38,-45.3,-0.2896984,0.60573304,10.0341,0.040927973,-0.004886922,-0.105068825,-0.060269229114055634,0.028863372281193733,1.984821081161499,1017.4761,
2021.02.11 16:38:42,40.0,25.0,-23.1,-13.08,-45.36,-0.5434838,0.5650316,9.782708,0.076358154,-0.01038471,-0.09773844,-0.05760546773672104,0.055498503148555756,1.9611154794692993,1017.4761,
2021.02.11 16:38:42,40.0,25.0,-22.859999,-13.259999,-45.36,-0.34955344,0.50996494,9.3182335,0.08979719,-0.009162978,-0.04642576,-0.05463474988937378,0.037495262920856476,1.9857213497161865,1017.4846,
2021.02.11 16:38:42,40.0,25.0,-23.039999,-12.84,-44.94,-0.21787235,0.50996494,9.339781,0.03359759,-0.013439035,-0.0036651916,-0.05453241243958473,0.023323122411966324,1.9785133600234985,1017.4846,
2021.02.11 16:38:42,40.0,25.0,-22.98,-12.54,-44.82,0.10295067,0.50996494,9.425972,-0.03176499,-0.017715093,0.032986723,-0.05404619872570038,-0.010921587236225605,1.9924291372299194,1017.4846,
2021.02.11 16:38:42,40.0,25.0,-22.439999,-12.66,-44.76,0.10295067,0.5482722,10.022128,-0.06780604,-0.017715093,0.019547688,-0.054648805409669876,-0.01027197577059269,2.004688262939453,1017.4846,
2021.02.11 16:38:42,40.0,25.0,-22.859999,-12.36,-45.0,-0.05267244,0.545878,10.038888,-0.04520403,0.028099801,-0.0030543262,-0.054322097450494766,0.005246791522949934,1.9759377241134644,1017.48267,
2021.02.11 16:38:42,40.0,25.0,-22.619999,-12.9,-44.94,-0.320823,0.61770403,9.452309,0.05131268,0.015271631,-0.05131268,-0.06521929800510406,0.03392821177840233,1.963489294052124,1017.48267,
2021.02.11 16:38:42,40.0,25.0,-22.68,-13.2,-45.3,-0.2896984,0.5530606,9.758766,-0.040927973,0.007941248,0.009773844,-0.05658777430653572,0.029677249491214752,1.9884302616119385,1017.48267,
2021.02.11 16:38:42,40.0,25.0,-22.859999,-13.44,-44.879997,-0.04070143,0.7302315,9.998186,-0.061086524,-0.020158553,0.026267206,-0.07290634512901306,0.004070858936756849,1.9854216575622559,1017.48267,
2021.02.11 16:38:42,40.0,25.0,-22.5,-13.679999,-44.82,-0.04309563,0.8403648,9.363723,0.010995574,-0.028710667,0.0,-0.089506134390831,0.004602370783686638,1.9718520641326904,1017.489,
2021.02.11 16:38:43,40.0,25.0,-22.619999,-13.259999,-45.36,0.10055647,0.6440403,9.703699,-0.04337143,0.025045475,0.02443461,-0.06626985222101212,-0.010362323373556137,2.002803087234497,1017.489,
2021.02.11 16:38:43,40.0,25.0,-22.56,-12.96,-45.3,0.1412579,0.51714754,9.892841,-0.040927973,-0.002443461,0.017104227,-0.05222207307815552,-0.014277828857302666,2.019944429397583,1017.489,
2021.02.11 16:38:43,40.0,25.0,-22.619999,-13.08,-45.6,0.050278235,0.51475334,9.572019,0.0030543262,-0.02443461,6.1086525E-4,-0.05372439697384834,-0.00525257783010602,2.013352870941162,1017.489,
2021.02.11 16:38:43,40.0,25.0,-22.92,-12.719999,-45.6,0.22026655,0.33039984,9.210494,-0.07269296,-0.03604105,0.010995574,-0.035846494138240814,-0.02391017973423004,2.0398101806640625,1017.4839,
2021.02.11 16:38:43,40.0,25.0,-22.859999,-13.259999,-45.239998,0.21308395,0.46447513,9.634268,-0.09896017,-0.02321288,-0.09162979,-0.04816167429089546,-0.02211369201540947,2.0386738777160645,1017.4839,
2021.02.11 16:38:43,40.0,25.0,-22.859999,-13.44,-45.239998,-0.521936,0.8355764,9.933543,-0.09101892,0.034208454,-0.13744467,-0.08380403369665146,0.052494507282972336,1.9386065006256104,1017.4839,
2021.02.11 16:38:43,40.0,25.0,-22.8,-13.38,-45.539997,-0.6584055,0.91219085,10.067618,-0.03176499,0.02565634,-0.021380283,-0.09016811847686768,0.06530534476041794,1.920039415359497,1017.4839,
2021.02.11 16:38:43,40.0,25.0,-22.5,-13.86,-45.78,-0.35194764,0.80205756,10.084377,0.002443461,-0.002443461,0.06963864,-0.07931949943304062,0.03488612547516823,1.9733022451400757,1017.4883,
2021.02.11 16:38:43,40.0,25.0,-22.56,-13.44,-45.78,-0.033518825,0.6727707,9.437943,0.029321533,-0.018936822,0.092240654,-0.07116279006004333,0.003551481757313013,1.9911410808563232,1017.4883,
2021.02.11 16:38:43,40.0,25.0,-22.619999,-13.259999,-45.66,0.1316811,0.521936,9.478644,-0.030543262,-0.0018325958,0.1001819,-0.0550035685300827,-0.013891504146158695,2.0242373943328857,1017.4883,
2021.02.11 16:38:43,40.0,25.0,-22.439999,-13.2,-45.48,0.38307226,0.34955344,9.744401,-0.035430185,0.0,0.05375614,-0.03582920879125595,-0.039291806519031525,2.0803916454315186,1017.4883,
2021.02.11 16:38:43,40.0,25.0,-22.8,-13.2,-45.42,0.24181437,0.4261679,9.828198,-0.02321288,-0.012217305,-0.021380283,-0.04332151263952255,-0.02459917590022087,2.047602653503418,1017.49097,
2021.02.11 16:38:43,40.0,25.0,-22.38,-13.559999,-45.539997,-0.21547815,0.59136784,9.672575,0.0067195175,-0.0036651916,-0.062308256,-0.061047498136758804,0.02227354422211647,2.002945899963379,1017.49097,
2021.02.11 16:38:43,40.0,25.0,-22.92,-13.559999,-45.78,-0.39025488,0.7589619,9.52174,-0.009773844,-0.015882496,-0.019547688,-0.07947371155023575,0.04096274450421333,1.9530439376831055,1017.49097,
2021.02.11 16:38:43,40.0,25.0,-23.46,-13.38,-46.02,-0.24420857,0.7374141,9.861717,-0.03604105,-0.007330383,0.04153884,-0.07461374253034592,0.024758230894804,1.9554935693740845,1017.49097,
2021.02.11 16:38:43,40.0,25.0,-23.16,-13.38,-45.84,0.1436521,0.60333884,9.813833,-0.0036651916,-0.018936822,0.059253927,-0.06139456480741501,-0.014636669307947159,2.0084452629089355,1017.4995,
2021.02.11 16:38:43,40.0,25.0,-23.58,-13.259999,-45.719997,0.22744916,0.45968673,9.555259,0.017715093,0.002443461,0.009162978,-0.048057589679956436,-0.023799065500497818,2.026562452316284,1017.4995,
2021.02.11 16:38:43,40.0,25.0,-22.92,-13.139999,-45.719997,0.0023942017,0.5363012,9.715671,-0.014049901,-0.008552114,-0.031154128,-0.05514364317059517,-2.464268181938678E-4,2.004159688949585,1017.4995,
2021.02.11 16:38:43,40.0,25.0,-22.859999,-12.9,-45.48,-0.15322891,0.6584055,9.734824,0.0030543262,-0.0012217305,-0.03970624,-0.06752285361289978,0.015738986432552338,1.9657533168792725,1017.4995,
2021.02.11 16:38:43,40.0,25.0,-22.92,-13.2,-45.3,-0.15562311,0.6512229,9.710882,0.0036651916,-0.017104227,-0.007941248,-0.06695231795310974,0.01602426916360855,1.9768320322036743,1017.49414,
2021.02.11 16:38:43,40.0,25.0,-22.859999,-12.96,-45.239998,0.0,0.5267244,9.785102,-0.0036651916,0.0036651916,0.008552114,-0.05377732217311859,1.0E-6,2.0017166137695312,1017.49414,
2021.02.11 16:38:43,40.0,25.0,-23.039999,-12.9,-45.059998,0.035913024,0.5722142,9.765948,0.01160644,-0.017104227,-0.015271631,-0.058525484055280685,-0.003677355358377099,1.9916110038757324,1017.49414,
2021.02.11 16:38:43,40.0,25.0,-22.38,-13.139999,-44.94,-0.02873042,0.58418524,9.61272,0.008552114,0.0,-0.022602014,-0.06069719418883324,0.0029887831769883633,2.003300666809082,1017.49414,
2021.02.11 16:38:43,40.0,25.0,-22.619999,-12.54,-45.059998,0.031124622,0.545878,9.787497,0.01038471,0.0067195175,-0.032986723,-0.05571499466896057,-0.0031800284050405025,1.9896793365478516,1017.4907,
2021.02.11 16:38:43,40.0,25.0,-22.68,-12.96,-44.82,-0.1388637,0.557849,9.749189,0.017715093,-0.007330383,-0.034208454,-0.057151924818754196,0.014242651872336864,1.9902632236480713,1017.4907,
2021.02.11 16:38:44,40.0,25.0,-22.98,-13.5,-44.76,-0.079008654,0.5530606,9.763555,0.023823744,0.018325957,-0.02321288,-0.05658309906721115,0.00809202529489994,2.0097081661224365,1017.4907,
2021.02.11 16:38:44,40.0,25.0,-23.64,-13.86,-44.94,-0.088585466,0.5554548,9.679757,0.025045475,-0.0030543262,-0.027488936,-0.05731787532567978,0.009151365607976913,2.0091915130615234,1017.4907,
2021.02.11 16:38:44,40.0,25.0,-23.82,-13.86,-45.42,-0.07182605,0.5674258,9.737218,0.022602014,0.016493361,-0.014660766,-0.05820649862289429,0.007376310881227255,2.005127191543579,1017.4873,
2021.02.11 16:38:44,40.0,25.0,-23.76,-13.86,-45.36,-0.09816227,0.60094464,9.662998,0.02443461,-0.010995574,-0.014049901,-0.06210710480809212,0.01015822310000658,1.9982500076293945,1017.4873,
2021.02.11 16:38:44,40.0,25.0,-23.4,-13.38,-45.3,-0.10295067,0.60333884,9.768343,0.02565634,0.032375857,-0.01038471,-0.06168292835354805,0.010538825765252113,1.9878253936767578,1017.4873,
2021.02.11 16:38:44,40.0,25.0,-23.22,-13.2,-45.42,-0.08140286,0.5482722,9.725247,0.04153884,-0.004276057,-0.0061086523,-0.05631458759307861,0.008370066061615944,1.9941413402557373,1017.4873,
2021.02.11 16:38:44,40.0,25.0,-22.5,-13.0199995,-45.0,0.0,0.557849,9.588778,0.030543262,0.04886922,-0.017104227,-0.058111771941185,1.0E-6,2.0031986236572266,1017.4983,
2021.02.11 16:38:44,40.0,25.0,-22.32,-12.66,-45.12,-0.12449849,0.61052144,9.799467,0.025045475,0.016493361,-0.03176499,-0.06221606582403183,0.01270393468439579,1.977067232131958,1017.4983,
2021.02.11 16:38:44,40.0,25.0,-22.619999,-13.139999,-44.94,-0.06703765,0.6823475,9.536105,0.032986723,0.020158553,-0.012217305,-0.07143060117959976,0.0070297615602612495,1.9786722660064697,1017.4983,
2021.02.11 16:38:44,40.0,25.0,-22.32,-13.32,-44.579998,-0.12689269,0.61052144,9.399636,-0.0012217305,0.01160644,-0.0036651916,-0.06485459953546524,0.013498924672603607,1.99758780002594,1017.4983,
2021.02.11 16:38:44,40.0,25.0,-22.439999,-13.74,-44.82,-0.06943185,0.5243302,9.753978,-0.043982297,0.015882496,0.007941248,-0.05370248109102249,0.007118190638720989,2.0324666500091553,1017.49194,
2021.02.11 16:38:44,40.0,25.0,-22.8,-13.559999,-45.18,-0.093373865,0.62967503,9.703699,-0.012217305,0.002443461,-0.026267206,-0.06479635834693909,0.009622205048799515,1.9995503425598145,1017.49194,
2021.02.11 16:38:44,40.0,25.0,-22.32,-12.96,-45.6,-0.110133275,0.6560113,9.524135,-0.037873644,-0.002443461,0.0,-0.06876563280820847,0.011563084088265896,1.9765392541885376,1017.49194,
2021.02.11 16:38:44,40.0,25.0,-22.5,-12.78,-45.66,0.093373865,0.5291186,10.060435,-0.03481932,0.014660766,-0.0030543262,-0.05254333093762398,-0.009281028062105179,2.0093443393707275,1017.49194,
2021.02.11 16:38:44,40.0,25.0,-22.859999,-13.139999,-45.3,-0.19632454,0.6464345,9.502586,0.040927973,-0.01282817,-0.057421334,-0.06790812313556671,0.02065717801451683,1.971150517463684,1017.489,
2021.02.11 16:38:44,40.0,25.0,-22.5,-13.86,-45.12,-0.22744916,0.62728083,9.399636,-0.01038471,-0.021380283,-0.0067195175,-0.06661634147167206,0.02419293485581875,2.002418279647827,1017.489,
2021.02.11 16:38:44,40.0,25.0,-22.92,-14.28,-44.76,-0.10055647,0.59615624,9.785102,-0.06169739,-0.032375857,0.01160644,-0.060846470296382904,0.010276124812662601,2.029533863067627,1017.489,
2021.02.11 16:38:44,40.0,25.0,-22.92,-14.219999,-44.879997,-0.06703765,0.62967503,9.818622,-0.03604105,-0.02443461,-0.0036651916,-0.06404150277376175,0.006827496457844973,2.0246059894561768,1017.489,
2021.02.11 16:38:44,40.0,25.0,-22.619999,-13.38,-45.48,0.035913024,0.5674258,9.65821,-0.01160644,-0.020158553,-0.0012217305,-0.05868275836110115,-0.0037183761596679688,2.0149929523468018,1017.4856,
2021.02.11 16:38:44,40.0,25.0,-22.619999,-12.9,-45.48,0.05746084,0.49799395,9.749189,-0.022602014,-0.008552114,-0.017104227,-0.051035307347774506,-0.005893841851502657,2.0120294094085693,1017.4856,
2021.02.11 16:38:44,40.0,25.0,-22.68,-12.12,-46.02,-0.1388637,0.5506664,9.78989,-0.01038471,-0.0018325958,-0.03970624,-0.05618362873792648,0.014183447696268559,1.9587745666503906,1017.4856,
2021.02.11 16:38:44,40.0,25.0,-22.26,-12.179999,-45.899998,-0.24660277,0.6584055,9.667787,-6.1086525E-4,-0.01038471,-0.02076942,-0.06797599047422409,0.025502145290374756,1.9403789043426514,1017.4856,
2021.02.11 16:38:44,40.0,25.0,-22.439999,-13.0199995,-45.3,-0.088585466,0.5602432,9.746795,-0.014660766,0.0030543262,0.019547688,-0.05741419270634651,0.0090884268283844,1.998301386833191,1017.4895,
2021.02.11 16:38:44,40.0,25.0,-22.68,-13.259999,-45.48,-0.02633622,0.51714754,9.718064,-0.0036651916,0.0030543262,0.005497787,-0.053164735436439514,0.002710020635277033,2.0141100883483887,1017.4895,
2021.02.11 16:38:44,40.0,25.0,-22.74,-13.44,-45.36,0.007182605,0.51714754,9.6845455,0.0030543262,0.0061086523,-0.0018325958,-0.05334857478737831,-7.41656229365617E-4,2.021967649459839,1017.4895,
2021.02.11 16:38:45,40.0,25.0,-23.1,-13.0199995,-45.48,0.02873042,0.47884035,9.639056,-0.0061086523,0.002443461,-0.010995574,-0.04963607341051102,-0.002980617107823491,2.0084006786346436,1017.4895,
2021.02.11 16:38:45,40.0,25.0,-23.519999,-12.54,-46.14,-0.06703765,0.533907,9.739613,-0.0030543262,0.01160644,-0.021380283,-0.054761987179517746,0.006882880348712206,1.9681789875030518,1017.4883,
2021.02.11 16:38:45,40.0,25.0,-23.34,-12.599999,-45.96,-0.1316811,0.533907,9.873688,0.021991149,0.02076942,-0.028710667,-0.05401630699634552,0.013335776515305042,1.9704782962799072,1017.4883,
2021.02.11 16:38:45,40.0,25.0,-23.039999,-12.96,-45.96,-0.29927522,0.5602432,9.562442,0.029932396,0.01038471,-0.0030543262,-0.05849241092801094,0.03128673508763313,1.969070553779602,1017.4883,
2021.02.11 16:38:45,40.0,25.0,-23.22,-13.38,-46.2,-0.11731588,0.47884035,9.646238,0.005497787,0.0018325958,0.03176499,-0.04959573969244957,0.012161226943135262,2.0070762634277344,1017.4883,
2021.02.11 16:38:45,40.0,25.0,-22.68,-13.2,-45.6,-0.15801731,0.5554548,9.667787,0.028710667,-0.028099801,0.021380283,-0.05738344416022301,0.016343269497156143,1.9952342510223389,1017.48584,
2021.02.11 16:38:45,40.0,25.0,-22.859999,-12.719999,-45.48,-0.062249243,0.62967503,9.445126,-0.032986723,-0.031154128,0.05681047,-0.06656672060489655,0.00659052561968565,1.966580867767334,1017.48584,
2021.02.11 16:38:45,40.0,25.0,-23.1,-12.719999,-45.18,0.20350714,0.51475334,10.199299,-0.02565634,0.007941248,0.040317107,-0.05041668191552162,-0.01995040476322174,2.009159564971924,1017.48584,
2021.02.11 16:38:45,40.0,25.0,-22.859999,-12.42,-44.94,0.1364695,0.5291186,9.720459,0.077579886,0.015882496,-0.034208454,-0.05437448248267174,-0.014038486406207085,1.9914017915725708,1017.48584,
2021.02.11 16:38:45,40.0,25.0,-22.92,-12.599999,-45.3,-0.090979666,0.47884035,9.361329,0.03359759,0.02687807,-0.02321288,-0.05110394209623337,0.009718363173305988,1.9854111671447754,1017.4861,
2021.02.11 16:38:45,40.0,25.0,-22.98,-12.9,-45.719997,-0.0047884034,0.50757074,9.734824,-0.021380283,0.02565634,-0.02076942,-0.05209251120686531,4.918838967569172E-4,1.9991095066070557,1017.4861,
2021.02.11 16:38:45,40.0,25.0,-23.16,-12.96,-45.96,-0.18674773,0.63206923,9.818622,0.037873644,0.05131268,-0.051923547,-0.06427424401044846,0.019017456099390984,1.9655035734176636,1017.4861,
2021.02.11 16:38:45,40.0,25.0,-23.4,-13.08,-46.2,-0.32321724,0.6679823,9.385271,0.027488936,-0.007941248,-0.0061086523,-0.07101169228553772,0.034425169229507446,1.9456859827041626,1017.4861,
2021.02.11 16:38:45,40.0,25.0,-23.4,-13.08,-45.84,-0.009576807,0.50996494,9.92636,-0.045814894,0.040927973,0.044593163,-0.05132966861128807,9.647850529290736E-4,1.999385952949524,1017.4785,
2021.02.11 16:38:45,40.0,25.0,-23.34,-12.719999,-45.899998,0.10295067,0.49799395,9.799467,0.029932396,0.014049901,-0.019547688,-0.05077199637889862,-0.010505354963243008,1.996427297592163,1017.4785,
2021.02.11 16:38:45,40.0,25.0,-22.92,-12.66,-45.84,-0.1412579,0.61291564,9.390059,0.032986723,0.004276057,-0.028710667,-0.06517299264669418,0.01504220999777317,1.959591031074524,1017.4785,
2021.02.11 16:38:45,40.0,25.0,-22.74,-12.78,-45.719997,-0.14604631,0.5243302,9.531317,-0.023823744,-0.021991149,0.0018325958,-0.054949477314949036,0.015321585349738598,1.9837464094161987,1017.4785,
2021.02.11 16:38:45,40.0,25.0,-22.68,-12.42,-46.379997,-0.18435353,0.557849,9.763555,-0.03726278,-0.021380283,6.1086525E-4,-0.057063646614551544,0.018879562616348267,1.9643696546554565,1017.468,
2021.02.11 16:38:45,40.0,25.0,-22.619999,-13.0199995,-46.079998,-0.21068975,0.62728083,9.797073,-0.01160644,-0.018325957,-0.0012217305,-0.0639253482222557,0.021502062678337097,1.9744287729263306,1017.468,
2021.02.11 16:38:45,40.0,25.0,-22.92,-12.9,-46.2,-0.16998832,0.60812724,9.629479,-0.008552114,-0.04520403,0.031154128,-0.06305910646915436,0.01765107549726963,1.969195008277893,1017.468,
2021.02.11 16:38:45,40.0,25.0,-22.92,-13.0199995,-46.02,0.009576807,0.48841715,9.576807,-0.015882496,-0.028099801,0.048258353,-0.05095582827925682,-9.999996982514858E-4,2.006829023361206,1017.468,
2021.02.11 16:38:45,40.0,25.0,-23.1,-13.38,-45.66,-0.074220255,0.5243302,9.715671,-0.02565634,-0.018325957,0.021380283,-0.053913600742816925,0.0076390826143324375,2.0062735080718994,1017.4795,
2021.02.11 16:38:45,40.0,25.0,-23.88,-12.96,-45.48,-0.10055647,0.6703765,9.713276,-0.01282817,-0.01160644,0.021380283,-0.06890356540679932,0.01035210769623518,1.9539682865142822,1017.4795,
2021.02.11 16:38:45,40.0,25.0,-23.58,-12.96,-45.539997,-0.06464344,0.6392518,9.787497,0.010995574,0.009773844,0.036651913,-0.06521905213594437,0.006604600232094526,1.9664642810821533,1017.4795,
2021.02.11 16:38:45,40.0,25.0,-23.4,-12.48,-45.6,-0.12449849,0.47644615,9.639056,0.017715093,0.01038471,0.032375857,-0.049384403973817825,0.012915327213704586,1.9738816022872925,1017.4795,
2021.02.11 16:38:45,40.0,25.0,-23.16,-12.719999,-45.719997,0.05267244,0.51954174,9.746795,0.007330383,-0.029932396,0.012217305,-0.053252678364515305,-0.005404025316238403,1.9918745756149292,1017.4817,
2021.02.11 16:38:46,40.0,25.0,-22.619999,-12.84,-45.96,0.047884032,0.5386954,9.481039,0.0030543262,0.018325957,-6.1086525E-4,-0.056756433099508286,-0.0050504617393016815,1.9985181093215942,1017.4817,
2021.02.11 16:38:46,40.0,25.0,-23.22,-12.96,-45.719997,-0.09816227,0.5482722,9.7563715,-0.012217305,0.012217305,-0.007330383,-0.05613444000482559,0.010061010718345642,1.9842069149017334,1017.4817,
2021.02.11 16:38:46,40.0,25.0,-23.16,-13.2,-45.6,-0.06943185,0.641646,9.691729,0.0036651916,-0.002443461,0.0067195175,-0.0661073625087738,0.007163908798247576,1.9794390201568604,1017.4817,
2021.02.11 16:38:46,40.0,25.0,-23.46,-12.96,-45.42,-0.1388637,0.7086837,9.655815,0.004276057,-0.02443461,0.021991149,-0.07325559854507446,0.014380362816154957,1.9506481885910034,1017.48193,
2021.02.11 16:38:46,40.0,25.0,-23.46,-13.08,-45.059998,0.023942016,0.5530606,9.768343,-0.002443461,-0.0030543262,0.015882496,-0.05655709281563759,-0.0024509753566235304,1.9937026500701904,1017.48193,
2021.02.11 16:38:46,40.0,25.0,-23.22,-13.139999,-45.0,0.016759412,0.48123455,9.655815,0.034208454,-0.009162978,0.0018325958,-0.049797553569078445,-0.0017356789903715253,2.0103366374969482,1017.48193,
2021.02.11 16:38:46,40.0,25.0,-23.76,-13.32,-45.539997,-0.06943185,0.533907,9.689334,0.019547688,-0.026267206,-0.01160644,-0.0550454705953598,0.00716567924246192,1.9924473762512207,1017.48193,
2021.02.11 16:38:46,40.0,25.0,-23.46,-13.5,-45.48,0.0,0.6488287,9.603143,0.03726278,-0.004276057,0.01282817,-0.06746166944503784,1.0E-6,1.9881943464279175,1017.47314,
2021.02.11 16:38:46,40.0,25.0,-23.64,-13.32,-45.66,0.12689269,0.6775591,9.739613,0.02565634,-0.04153884,0.0012217305,-0.06944957375526428,-0.013027777895331383,1.9838216304779053,1017.47314,
2021.02.11 16:38:46,40.0,25.0,-23.64,-13.259999,-45.78,-0.035913024,0.6440403,9.665392,0.06414085,-0.039095376,0.01038471,-0.06653483211994171,0.0037156131584197283,1.9752815961837769,1017.47314,
2021.02.11 16:38:46,40.0,25.0,-23.4,-13.32,-45.36,-0.0047884034,0.6488287,9.725247,0.070249505,-0.04642576,0.002443461,-0.06661717593669891,4.923682427033782E-4,1.9840819835662842,1017.47314,
2021.02.11 16:38:46,40.0,25.0,-23.699999,-13.08,-45.719997,-0.02873042,0.61052144,10.06283,0.11789699,-0.112399206,-0.0421497,-0.06059642508625984,0.0028550957795232534,1.9784600734710693,1017.47266,
2021.02.11 16:38:46,40.0,25.0,-23.4,-13.44,-45.78,0.9840169,1.0366893,8.259995,0.14782938,-0.039095376,-0.06047566,-0.12398674339056015,-0.11857162415981293,1.9630787372589111,1017.47266,
2021.02.11 16:38:46,40.0,25.0,-23.4,-13.679999,-45.6,-0.06703765,0.6536171,10.232818,-0.030543262,-0.073303826,-0.04886922,-0.0637865737080574,0.006551146972924471,1.9968429803848267,1017.47266,
2021.02.11 16:38:46,40.0,25.0,-23.76,-13.679999,-45.48,0.34955344,0.7206547,10.180145,0.1160644,-0.10934488,-0.11056661,-0.07063083350658417,-0.03432329744100571,2.0084402561187744,1017.47266,
