Time,X-cord,Y-cord,Mag_x,Mag_y,Mag_z,Acc_x,Acc_y,Acc_z,Gyro_x,Gyro_y,Gyro_z,Orn_x,Orn_y,Orn_z,Pressure,
2021.02.11 16:45:46,10.0,15.0,9.059999,-31.32,-36.18,-0.05267244,0.61291564,10.43872,-0.089186326,-0.24495697,0.026267206,-0.058647509664297104,0.0050458284094929695,-2.8459079265594482,1017.4646,
2021.02.11 16:45:46,10.0,15.0,8.22,-31.5,-36.18,-0.17956513,0.6775591,9.753978,0.081855945,-0.040927973,-0.04886922,-0.06934177875518799,0.018407346680760384,-2.8860349655151367,1017.4646,
2021.02.11 16:45:46,10.0,15.0,8.639999,-31.619999,-36.12,-0.4285621,0.59615624,9.126697,0.15821409,0.04337143,-0.059253927,-0.06515578925609589,0.04692251235246658,-2.9081971645355225,1017.4529,
2021.02.11 16:45:46,10.0,15.0,8.7,-31.92,-36.239998,-0.37110126,0.6464345,9.368511,-0.029932396,-0.018936822,-0.023823744,-0.06883775442838669,0.039590854197740555,-2.8989803791046143,1017.4529,
2021.02.11 16:45:46,10.0,15.0,8.46,-31.98,-35.88,-0.41180268,0.62009823,9.895236,-0.112399206,-0.015271631,-0.010995574,-0.062530517578125,0.04159225896000862,-2.911043405532837,1017.4529,
2021.02.11 16:45:46,10.0,15.0,8.58,-32.1,-35.64,-0.24181437,0.60812724,9.9550905,-0.03359759,-0.002443461,0.018936822,-0.06099329888820648,0.024285748600959778,-2.8888094425201416,1017.4529,
2021.02.11 16:45:46,10.0,15.0,8.04,-31.92,-35.82,-0.2657564,0.5746084,9.921572,0.021991149,-0.017104227,0.02076942,-0.05782973766326904,0.026779314503073692,-2.908281087875366,1017.4636,
2021.02.11 16:45:46,10.0,15.0,7.8599997,-31.859999,-35.52,-0.4381389,0.5674258,9.67018,0.040927973,-0.031154128,0.004886922,-0.05855076014995575,0.04527727887034416,-2.934422254562378,1017.4636,
2021.02.11 16:45:46,10.0,15.0,7.74,-31.619999,-35.94,-0.36631286,0.5674258,9.433155,0.058643065,0.0067195175,0.03726278,-0.060034751892089844,0.03881298750638962,-2.9291443824768066,1017.4636,
2021.02.11 16:45:46,10.0,15.0,8.04,-31.5,-36.0,-0.20829555,0.5722142,9.3733,0.018936822,-0.031154128,0.064751714,-0.060956574976444244,0.02221856638789177,-2.8989107608795166,1017.4636,
2021.02.11 16:45:46,10.0,15.0,8.22,-31.679998,-36.059998,-0.076614454,0.51954174,9.514558,-0.026267206,0.0067195175,0.058643065,-0.05454898625612259,0.008052165620028973,-2.8803870677948,1017.46313,
2021.02.11 16:45:46,10.0,15.0,8.16,-31.439999,-35.82,-0.07182605,0.5674258,9.82341,-0.059253927,0.040927973,0.036651913,-0.057696953415870667,0.007311592344194651,-2.8784587383270264,1017.46313,
2021.02.11 16:45:46,10.0,15.0,8.34,-31.74,-35.76,-0.2825158,0.62249243,10.201694,-0.076358154,0.04886922,-0.002443461,-0.06091967597603798,0.027685951441526413,-2.897437810897827,1017.46313,
2021.02.11 16:45:46,10.0,15.0,8.28,-31.859999,-36.0,-0.33279404,0.51714754,10.012551,-0.0067195175,0.0061086523,0.005497787,-0.051575638353824615,0.03322545439004898,-2.909464120864868,1017.46313,
2021.02.11 16:45:46,10.0,15.0,8.46,-31.679998,-35.88,-0.4141969,0.5386954,9.41879,0.07391469,-0.008552114,-0.004886922,-0.057076409459114075,0.043947283178567886,-2.913078784942627,1017.4746,
2021.02.11 16:45:46,10.0,15.0,8.639999,-31.859999,-36.42,-0.36391866,0.48123455,9.464279,0.05009095,0.009162978,0.017104227,-0.05076625943183899,0.03843287378549576,-2.9046292304992676,1017.4746,
2021.02.11 16:45:46,10.0,15.0,8.28,-31.439999,-36.719997,-0.30166942,0.521936,9.900024,-0.04520403,0.0067195175,0.04520403,-0.05264752730727196,0.03046215884387493,-2.903181314468384,1017.4746,
2021.02.11 16:45:46,10.0,15.0,8.28,-31.439999,-36.48,-0.36391866,0.56982,9.792285,-0.004886922,-0.0067195175,0.029932396,-0.05808515101671219,0.03714671730995178,-2.9093210697174072,1017.4746,
2021.02.11 16:45:46,10.0,15.0,8.22,-31.32,-36.3,-0.2873042,0.533907,9.560047,0.05375614,0.02565634,0.05131268,-0.055764660239219666,0.030043547973036766,-2.9025120735168457,1017.4729,
2021.02.11 16:45:46,10.0,15.0,7.74,-31.08,-35.82,-0.22505496,0.5315128,9.562442,0.009773844,0.01038471,0.052534413,-0.05551090091466904,0.023530958220362663,-2.9084389209747314,1017.4729,
2021.02.11 16:45:46,10.0,15.0,8.34,-31.08,-35.34,-0.15322891,0.51235914,9.691729,-0.020158553,0.002443461,0.055588737,-0.052809856832027435,0.015808958560228348,-2.8808913230895996,1017.4729,
2021.02.11 16:45:46,10.0,15.0,7.8599997,-30.96,-35.52,-0.04309563,0.51714754,9.595961,-0.01038471,0.019547688,0.04520403,-0.053839582949876785,0.0044909873977303505,-2.882066249847412,1017.4729,
2021.02.11 16:45:47,10.0,15.0,7.74,-30.9,-36.059998,-0.17477672,0.49320555,9.607931,-0.0061086523,0.01160644,0.004276057,-0.05127968266606331,0.018188873305916786,-2.90207839012146,1017.4702,
2021.02.11 16:45:47,10.0,15.0,7.56,-30.599998,-36.18,-0.31364042,0.5482722,9.662998,-0.021380283,0.026267206,-0.020158553,-0.05664880946278572,0.0324464850127697,-2.9212090969085693,1017.4702,
2021.02.11 16:45:47,10.0,15.0,7.08,-30.359999,-36.239998,-0.47405192,0.6392518,9.6845455,-0.02687807,0.021380283,-0.031154128,-0.0658332034945488,0.04891028255224228,-2.953810453414917,1017.4702,
2021.02.11 16:45:47,10.0,15.0,7.56,-30.48,-35.88,-0.33039984,0.6488287,9.660604,-0.032375857,0.018936822,0.0067195175,-0.06702254712581635,0.03418741747736931,-2.9192304611206055,1017.4702,
2021.02.11 16:45:47,10.0,15.0,7.5,-30.66,-35.34,-0.20350714,0.5674258,9.631873,-0.03359759,-0.005497787,0.018936822,-0.058830149471759796,0.021125366911292076,-2.909134864807129,1017.4634,
2021.02.11 16:45:47,10.0,15.0,7.62,-31.08,-35.7,-0.055066638,0.5506664,9.691729,-0.042760566,0.007941248,0.0036651916,-0.056756243109703064,0.005681756883859634,-2.8912203311920166,1017.4634,
2021.02.11 16:45:47,10.0,15.0,7.98,-31.74,-35.46,-0.22026655,0.545878,9.82341,-0.032375857,0.005497787,-0.036651913,-0.05549808219075203,0.022418858483433723,-2.9044079780578613,1017.4634,
2021.02.11 16:45:47,10.0,15.0,7.98,-31.74,-35.82,-0.39504328,0.59376204,9.801862,-0.005497787,-0.01160644,-0.056199603,-0.060453563928604126,0.040281083434820175,-2.9237172603607178,1017.4634,
2021.02.11 16:45:47,10.0,15.0,7.98,-31.74,-36.239998,-0.45489833,0.5650316,9.753978,0.014660766,-0.0018325958,-0.048258353,-0.05780097842216492,0.04660344123840332,-2.932255506515503,1017.46436,
2021.02.11 16:45:47,10.0,15.0,8.16,-31.74,-36.18,-0.35194764,0.5554548,9.603143,0.013439035,-0.032375857,-0.02443461,-0.057737890630960464,0.03663282096385956,-2.9147138595581055,1017.46436,
2021.02.11 16:45:47,10.0,15.0,7.8599997,-31.38,-36.42,-0.2633622,0.44771573,9.610326,0.004276057,-0.010995574,-0.015271631,-0.04653584212064743,0.02739723026752472,-2.914191484451294,1017.46436,
2021.02.11 16:45:47,10.0,15.0,7.8599997,-30.84,-36.719997,-0.19632454,0.45010993,9.694122,-0.0067195175,-0.0036651916,-0.021991149,-0.046388402581214905,0.020249146968126297,-2.901775360107422,1017.46436,
2021.02.11 16:45:47,10.0,15.0,8.34,-30.9,-36.48,-0.4189853,0.5602432,9.627085,0.0012217305,-0.021991149,-0.050701816,-0.058074068278074265,0.04349406808614731,-2.9108221530914307,1017.45654,
2021.02.11 16:45:47,10.0,15.0,8.099999,-30.599998,-36.42,-0.4429273,0.62728083,9.7563715,-0.0012217305,0.004276057,-0.031154128,-0.0641402155160904,0.04536762088537216,-2.91693377494812,1017.45654,
2021.02.11 16:45:47,10.0,15.0,8.4,-30.96,-36.36,-0.37110126,0.5243302,9.842564,-0.02321288,0.004276057,-0.005497787,-0.05318368598818779,0.03768586739897728,-2.903705358505249,1017.45654,
2021.02.11 16:45:47,10.0,15.0,8.099999,-30.96,-36.12,-0.30406362,0.4381389,9.576807,0.019547688,-0.02076942,-0.002443461,-0.045695122331380844,0.03173933923244476,-2.9084513187408447,1017.45654,
2021.02.11 16:45:47,10.0,15.0,7.98,-30.72,-36.059998,-0.1388637,0.38307226,9.406818,0.028099801,-0.01160644,0.013439035,-0.040695905685424805,0.014760954305529594,-2.892072916030884,1017.45483,
2021.02.11 16:45:47,10.0,15.0,8.04,-30.72,-35.76,-0.20829555,0.48362875,9.665392,-0.02687807,-0.017715093,-0.004886922,-0.04998387396335602,0.02154732309281826,-2.8951163291931152,1017.45483,
2021.02.11 16:45:47,10.0,15.0,7.56,-30.359999,-36.18,-0.320823,0.5626374,9.840169,-0.03726278,-0.014049901,-0.028710667,-0.05708516016602516,0.03259186074137688,-2.919451951980591,1017.45483,
2021.02.11 16:45:47,10.0,15.0,7.56,-30.359999,-36.18,-0.34715924,0.5674258,9.689334,0.010995574,-0.0067195175,-0.020158553,-0.058457665145397186,0.03581368923187256,-2.923008441925049,1017.45483,
2021.02.11 16:45:47,10.0,15.0,7.3199997,-30.66,-36.3,-0.25857377,0.50038815,9.696517,0.005497787,0.004276057,-0.010995574,-0.051540911197662354,0.02666034735739231,-2.924146890640259,1017.4551,
2021.02.11 16:45:47,10.0,15.0,7.74,-30.96,-36.899998,-0.2753332,0.49320555,9.631873,-0.004276057,-0.010995574,-0.005497787,-0.051140036433935165,0.02857785113155842,-2.915287733078003,1017.4551,
2021.02.11 16:45:47,10.0,15.0,8.16,-30.84,-36.36,-0.21068975,0.50038815,9.564836,0.01038471,-0.01282817,-0.0036651916,-0.052255094051361084,0.022023973986506462,-2.892226219177246,1017.4551,
2021.02.11 16:45:47,10.0,15.0,8.099999,-31.14,-36.239998,-0.23463176,0.5243302,9.727641,-0.013439035,-0.0061086523,-6.1086525E-4,-0.05383332818746567,0.024115432053804398,-2.8985517024993896,1017.4551,
2021.02.11 16:45:47,10.0,15.0,8.099999,-30.96,-36.42,-0.272939,0.50757074,9.840169,-0.025045475,-0.01038471,-0.01038471,-0.05151605233550072,0.027730116620659828,-2.902168035507202,1017.4529,
2021.02.11 16:45:48,10.0,15.0,7.62,-30.84,-36.18,-0.25378537,0.50996494,9.610326,0.022602014,-0.009773844,-0.005497787,-0.05299610644578934,0.02640143595635891,-2.914797306060791,1017.4529,
2021.02.11 16:45:48,10.0,15.0,7.3199997,-30.72,-36.66,-0.25378537,0.50996494,9.600749,0.018325957,-0.0061086523,-0.007941248,-0.05304883420467377,0.02642775885760784,-2.924060344696045,1017.4529,
2021.02.11 16:45:48,10.0,15.0,7.56,-30.599998,-36.42,-0.20829555,0.45968673,9.629479,-6.1086525E-4,-0.0061086523,-0.0012217305,-0.04769008979201317,0.021627657115459442,-2.9108617305755615,1017.4529,
2021.02.11 16:45:48,10.0,15.0,7.2599998,-30.3,-36.48,-0.14844051,0.533907,9.595961,0.0036651916,-0.02443461,-0.004276057,-0.05557478219270706,0.015467829070985317,-2.9086670875549316,1017.4624,
2021.02.11 16:45:48,10.0,15.0,7.3199997,-29.82,-36.899998,-0.19871874,0.5386954,9.818622,-0.017715093,0.004886922,-0.01160644,-0.054798517376184464,0.02023620344698429,-2.9090254306793213,1017.4624,
2021.02.11 16:45:48,10.0,15.0,7.62,-30.119999,-36.42,-0.19153613,0.5386954,9.821015,0.0036651916,-0.015271631,-0.019547688,-0.05478598549962044,0.019500209018588066,-2.9002981185913086,1017.4624,
2021.02.11 16:45:48,10.0,15.0,7.98,-30.3,-36.899998,-0.21068975,0.45250413,9.564836,0.047036625,0.005497787,-0.021991149,-0.047262441366910934,0.022023973986506462,-2.895402669906616,1017.4624,
2021.02.11 16:45:48,10.0,15.0,8.04,-30.599998,-37.02,-0.23942018,0.46208093,9.552865,0.021991149,-0.004276057,-0.026267206,-0.048318102955818176,0.025057408958673477,-2.8992927074432373,1017.46606,
2021.02.11 16:45:48,10.0,15.0,8.4,-31.199999,-37.02,-0.25378537,0.49799395,9.689334,-0.007941248,-0.0018325958,-0.02565634,-0.051333338022232056,0.026186253875494003,-2.8928966522216797,1017.46606,
2021.02.11 16:45:48,10.0,15.0,7.62,-31.08,-37.2,-0.2705448,0.5530606,9.634268,0.015271631,-0.0036651916,-0.02565634,-0.05732008442282677,0.028074132278561592,-2.917863130569458,1017.46606,
2021.02.11 16:45:48,10.0,15.0,7.3199997,-30.66,-36.899998,-0.25617957,0.5434838,9.662998,0.007330383,0.01160644,-0.01282817,-0.05616492033004761,0.026505187153816223,-2.922940969467163,1017.46606,
2021.02.11 16:45:48,10.0,15.0,7.5,-30.539999,-36.78,-0.1604115,0.48123455,9.624691,0.0012217305,-0.0030543262,-0.002443461,-0.0499514676630497,0.016665121540427208,-2.9057912826538086,1017.4563,
2021.02.11 16:45:48,10.0,15.0,7.5,-30.779999,-36.059998,-0.2753332,0.50996494,9.55047,0.007330383,6.1086525E-4,-0.019547688,-0.05332406982779503,0.028821298852562904,-2.9210407733917236,1017.4563,
2021.02.11 16:45:48,10.0,15.0,8.099999,-31.199999,-36.3,-0.25857377,0.5554548,9.667787,0.0012217305,0.015882496,-0.017104227,-0.0573706217110157,0.026739537715911865,-2.901067018508911,1017.4563,
2021.02.11 16:45:48,10.0,15.0,7.9199996,-31.56,-36.059998,-0.2753332,0.5434838,9.706094,-0.014049901,-0.01160644,-0.009162978,-0.05591321736574173,0.028359441086649895,-2.9118857383728027,1017.4563,
2021.02.11 16:45:48,10.0,15.0,8.34,-31.679998,-36.0,-0.24420857,0.48123455,9.677363,0.016493361,0.0061086523,0.0018325958,-0.04967114329338074,0.02522967755794525,-2.8976149559020996,1017.4563,
2021.02.11 16:45:48,10.0,15.0,8.34,-31.26,-36.42,-0.22266077,0.5363012,9.715671,0.01038471,-0.005497787,0.007941248,-0.05512920022010803,0.022913683205842972,-2.8900344371795654,1017.4563,
2021.02.11 16:45:48,10.0,15.0,8.5199995,-31.08,-36.18,-0.22026655,0.5482722,9.694122,0.007941248,-0.0061086523,-0.0018325958,-0.05648244172334671,0.022717751562595367,-2.882002592086792,1017.4563,
2021.02.11 16:45:48,10.0,15.0,8.82,-31.32,-36.3,-0.2873042,0.5267244,9.555259,0.035430185,0.008552114,0.002443461,-0.05504347383975983,0.030058594420552254,-2.883483648300171,1017.4563,
2021.02.11 16:45:48,10.0,15.0,8.34,-31.74,-36.239998,-0.19393034,0.51954174,9.576807,0.004886922,6.1086525E-4,0.004886922,-0.05418578162789345,0.020247232168912888,-2.891108751296997,1017.45605,
2021.02.11 16:45:48,10.0,15.0,8.639999,-32.1,-36.36,-0.20590134,0.5530606,9.643845,-0.009162978,-0.0067195175,0.009773844,-0.05727279186248779,0.021347302943468094,-2.884932518005371,1017.45605,
2021.02.11 16:45:48,10.0,15.0,8.28,-31.619999,-36.12,-0.20829555,0.5506664,9.742006,-0.009773844,0.010995574,0.007941248,-0.056451983749866486,0.021377919241786003,-2.892618179321289,1017.45605,
2021.02.11 16:45:48,10.0,15.0,8.22,-31.14,-36.239998,-0.23942018,0.5530606,9.715671,-0.004276057,0.0,0.01038471,-0.056846000254154205,0.024637695401906967,-2.894352436065674,1017.45605,
2021.02.11 16:45:48,10.0,15.0,8.5199995,-30.96,-36.36,-0.24420857,0.557849,9.586384,0.016493361,0.0,0.0018325958,-0.058107443153858185,0.025469016283750534,-2.8837335109710693,1017.4553,
2021.02.11 16:45:48,10.0,15.0,7.74,-30.539999,-35.94,-0.20350714,0.5554548,9.631873,0.007941248,0.015271631,0.008552114,-0.05759178847074509,0.021125366911292076,-2.9007208347320557,1017.4553,
2021.02.11 16:45:49,10.0,15.0,7.8599997,-31.14,-36.0,-0.17717093,0.5506664,9.651027,-0.010995574,-0.005497787,0.01160644,-0.05698642507195473,0.01835566572844982,-2.8985564708709717,1017.4553,
2021.02.11 16:45:49,10.0,15.0,7.74,-31.26,-36.0,-0.24181437,0.5434838,9.698911,-0.0061086523,-0.009162978,-0.0018325958,-0.055959656834602356,0.02492695301771164,-2.911388635635376,1017.4553,
2021.02.11 16:45:49,10.0,15.0,7.74,-31.199999,-36.18,-0.22026655,0.56982,9.713276,0.0018325958,-0.0067195175,-0.002443461,-0.05858185142278671,0.022672969847917557,-2.9075686931610107,1017.46313,
2021.02.11 16:45:49,10.0,15.0,8.04,-31.019999,-36.66,-0.260968,0.5506664,9.600749,0.002443461,6.1086525E-4,0.0,-0.05727272480726242,0.027175351977348328,-2.9022910594940186,1017.46313,
2021.02.11 16:45:49,10.0,15.0,7.98,-30.779999,-36.899998,-0.19632454,0.59376204,9.583989,0.0061086523,0.0,0.004886922,-0.06186150759458542,0.02048177272081375,-2.8928093910217285,1017.46313,
2021.02.11 16:45:49,10.0,15.0,8.22,-31.14,-36.6,-0.17477672,0.5746084,9.737218,-0.013439035,0.002443461,0.0030543262,-0.05893372371792793,0.017947420477867126,-2.885859966278076,1017.46313,
2021.02.11 16:45:49,10.0,15.0,8.34,-31.439999,-36.36,-0.25617957,0.59376204,9.734824,-0.0018325958,-0.017715093,-0.014049901,-0.0608971081674099,0.02630971558392048,-2.8936614990234375,1017.46045,
2021.02.11 16:45:49,10.0,15.0,8.099999,-31.5,-36.12,-0.16998832,0.5410896,9.682152,0.014660766,-0.007330383,0.004276057,-0.05581860616803169,0.01755507104098797,-2.893174171447754,1017.46045,
2021.02.11 16:45:49,10.0,15.0,8.28,-31.619999,-36.18,-0.16519992,0.5410896,9.552865,0.020158553,-0.002443461,-0.007941248,-0.05657270550727844,0.017291508615016937,-2.8878896236419678,1017.46045,
2021.02.11 16:45:49,10.0,15.0,8.04,-31.08,-36.66,-0.18195933,0.5722142,9.576807,0.01160644,-0.0012217305,-0.020158553,-0.05966830253601074,0.018997713923454285,-2.8922221660614014,1017.46045,
2021.02.11 16:45:49,10.0,15.0,7.62,-30.599998,-36.54,-0.22744916,0.5793968,9.672575,-0.014049901,-0.0018325958,-0.02076942,-0.0598130002617836,0.023510519415140152,-2.907559633255005,1017.45044,
2021.02.11 16:45:49,10.0,15.0,7.98,-30.66,-36.36,-0.19632454,0.6368576,9.677363,-0.0067195175,-0.009773844,-0.021991149,-0.06570076942443848,0.020284201949834824,-2.8902242183685303,1017.45044,
2021.02.11 16:45:49,10.0,15.0,7.44,-30.9,-36.3,-0.20590134,0.59376204,9.737218,-0.009773844,-0.012217305,-0.02321288,-0.06088961660861969,0.021142655983567238,-2.9126319885253906,1017.45044,
2021.02.11 16:45:49,10.0,15.0,7.3199997,-31.26,-36.059998,-0.12928689,0.545878,9.648633,0.0030543262,-0.01282817,-0.014049901,-0.05651037395000458,0.013398700393736362,-2.9113752841949463,1017.45044,
2021.02.11 16:45:49,10.0,15.0,7.08,-31.199999,-36.18,-0.17717093,0.5626374,9.543288,0.018325957,0.0036651916,-0.023823744,-0.058878056704998016,0.01856284588575363,-2.9242169857025146,1017.44507,
2021.02.11 16:45:49,10.0,15.0,7.3799996,-31.98,-36.3,-0.24420857,0.62728083,9.627085,-0.0018325958,-0.009162978,-0.03359759,-0.0650450810790062,0.02536138705909252,-2.9263994693756104,1017.44507,
2021.02.11 16:45:49,10.0,15.0,7.5,-31.679998,-36.12,-0.1364695,0.59855044,9.674969,-0.0067195175,0.0012217305,-0.009773844,-0.06178100034594536,0.01410448458045721,-2.908048152923584,1017.44507,
2021.02.11 16:45:49,10.0,15.0,7.56,-31.38,-36.239998,-0.22505496,0.5746084,9.696517,6.1086525E-4,0.0018325958,-0.015271631,-0.05917413532733917,0.02320571057498455,-2.915280342102051,1017.44507,
2021.02.11 16:45:49,10.0,15.0,7.74,-31.679998,-36.0,-0.20111294,0.5434838,9.622296,0.0030543262,0.008552114,-0.007941248,-0.05640947446227074,0.020897680893540382,-2.90975284576416,1017.4453,
2021.02.11 16:45:49,10.0,15.0,7.3799996,-31.199999,-36.3,-0.21308395,0.5482722,9.636662,0.0012217305,0.008552114,-0.010995574,-0.056819286197423935,0.022108200937509537,-2.919203042984009,1017.4453,
2021.02.11 16:45:49,10.0,15.0,7.68,-31.199999,-36.3,-0.22505496,0.5363012,9.560047,0.0,6.1086525E-4,-0.009773844,-0.05602395161986351,0.02353685162961483,-2.911334991455078,1017.4453,
2021.02.11 16:45:49,10.0,15.0,7.98,-31.38,-35.579998,-0.17717093,0.581791,9.631873,-0.005497787,0.005497787,-0.004276057,-0.0603192038834095,0.018392160534858704,-2.895585060119629,1017.4453,
2021.02.11 16:45:49,10.0,15.0,7.98,-30.779999,-35.76,-0.22026655,0.61052144,9.720459,-0.013439035,0.005497787,-0.01160644,-0.06270942836999893,0.022656220942735672,-2.8949317932128906,1017.44995,
2021.02.11 16:45:49,10.0,15.0,8.22,-30.72,-35.52,-0.19871874,0.56982,9.607931,-6.1086525E-4,0.014049901,-0.009162978,-0.05922522768378258,0.020679831504821777,-2.885267734527588,1017.44995,
2021.02.11 16:45:49,10.0,15.0,8.22,-30.84,-35.64,-0.17477672,0.545878,9.739613,-0.0018325958,0.01282817,-0.005497787,-0.05597962439060211,0.0179430078715086,-2.884171962738037,1017.44995,
2021.02.11 16:45:50,10.0,15.0,8.16,-30.66,-36.48,-0.19153613,0.5746084,9.679757,0.0012217305,0.009773844,-0.012217305,-0.05928070470690727,0.019784703850746155,-2.8857948780059814,1017.44995,
2021.02.11 16:45:50,10.0,15.0,8.04,-31.019999,-36.42,-0.2896984,0.5626374,9.564836,0.030543262,0.0030543262,-0.023823744,-0.058728959411382675,0.030278604477643967,-2.905456781387329,1017.4485,
2021.02.11 16:45:50,10.0,15.0,7.74,-31.019999,-36.42,-0.23463176,0.59615624,9.495404,0.018936822,0.009773844,-0.008552114,-0.06268227845430374,0.024705007672309875,-2.9074323177337646,1017.4485,
2021.02.11 16:45:50,10.0,15.0,7.68,-31.14,-36.42,-0.25139117,0.59376204,9.643845,-0.014049901,0.012217305,-0.0036651916,-0.06147056818008423,0.02606162428855896,-2.912334442138672,1017.4485,
2021.02.11 16:45:50,10.0,15.0,8.28,-31.32,-36.0,-0.20829555,0.581791,9.713276,-0.031154128,0.015882496,0.0018325958,-0.05981128290295601,0.021441131830215454,-2.8891642093658447,1017.4485,
2021.02.11 16:45:50,10.0,15.0,8.4,-31.32,-36.239998,-0.23702596,0.5291186,9.662998,-0.01160644,0.021991149,0.0012217305,-0.05468614399433136,0.02452431619167328,-2.890568256378174,1017.44946,
2021.02.11 16:45:50,10.0,15.0,8.58,-31.38,-36.54,-0.2633622,0.51475334,9.600749,-0.01160644,0.0,0.0,-0.05354456603527069,0.02742454595863819,-2.8891637325286865,1017.44946,
2021.02.11 16:45:50,10.0,15.0,8.16,-31.08,-36.78,-0.25617957,0.5746084,9.576807,-0.02076942,-0.02076942,-0.015271631,-0.05990677326917648,0.02674362249672413,-2.8975586891174316,1017.44946,
2021.02.11 16:45:50,10.0,15.0,7.14,-30.599998,-37.079998,-0.22026655,0.545878,9.61272,-0.029932396,0.002443461,0.005497787,-0.05671127885580063,0.022910064086318016,-2.9239754676818848,1017.44946,
2021.02.11 16:45:50,10.0,15.0,7.14,-30.539999,-37.02,-0.20829555,0.5674258,9.722853,-0.03481932,0.017104227,0.008552114,-0.058280546218156815,0.02142002061009407,-2.921196222305298,1017.44946,
2021.02.11 16:45:50,10.0,15.0,6.8399997,-30.3,-36.719997,-0.25378537,0.51954174,9.739613,-0.030543262,0.007330383,0.0061086523,-0.05327460542321205,0.02605113387107849,-2.936643123626709,1017.44946,
2021.02.11 16:45:50,10.0,15.0,7.2599998,-30.42,-36.48,-0.21308395,0.47644615,9.643845,-0.014660766,-0.018936822,0.015271631,-0.0493520051240921,0.022091737017035484,-2.919518232345581,1017.44946,
2021.02.11 16:45:50,10.0,15.0,7.14,-30.779999,-36.6,-0.18674773,0.50038815,9.682152,-0.013439035,-0.032986723,0.012217305,-0.05162597820162773,0.01928544230759144,-2.9221577644348145,1017.44946,
2021.02.11 16:45:50,10.0,15.0,7.2599998,-30.84,-36.6,-0.17477672,0.5410896,9.696517,0.004886922,-0.015882496,0.005497787,-0.055735621601343155,0.01802273839712143,-2.9159348011016846,1017.4585,
2021.02.11 16:45:50,10.0,15.0,7.5,-31.32,-36.719997,-0.16519992,0.5291186,9.689334,0.014049901,-0.03604105,6.1086525E-4,-0.054546259343624115,0.01704801619052887,-2.910919666290283,1017.4585,
2021.02.11 16:45:50,10.0,15.0,7.3199997,-31.32,-36.719997,-0.1412579,0.45489833,9.651027,0.018325957,-0.03848451,0.007330383,-0.047094814479351044,0.014635521918535233,-2.916008949279785,1017.4585,
2021.02.11 16:45:50,10.0,15.0,7.98,-31.32,-36.54,-0.16998832,0.51235914,9.61272,0.021380283,-0.023823744,6.1086525E-4,-0.05324142798781395,0.017681844532489777,-2.8965587615966797,1017.4585,
2021.02.11 16:45:50,10.0,15.0,7.7999997,-31.32,-36.54,-0.22266077,0.51954174,9.610326,0.014049901,-0.021380283,-0.01038471,-0.05399375036358833,0.023164765909314156,-2.90859317779541,1017.46484,
2021.02.11 16:45:50,10.0,15.0,7.68,-30.42,-36.36,-0.15562311,0.5315128,9.617508,0.010995574,-0.016493361,0.007941248,-0.055201753973960876,0.01617981679737568,-2.8965978622436523,1017.46484,
2021.02.11 16:45:50,10.0,15.0,8.4,-30.42,-36.36,-0.17238252,0.5291186,9.624691,-0.0036651916,-0.005497787,-0.0067195175,-0.0549110546708107,0.017908532172441483,-2.875009775161743,1017.46484,
2021.02.11 16:45:50,10.0,15.0,7.9199996,-30.66,-36.48,-0.19153613,0.51954174,9.629479,0.004886922,0.015882496,0.0036651916,-0.053890351206064224,0.019887976348400116,-2.8955509662628174,1017.46484,
2021.02.11 16:45:50,10.0,15.0,7.98,-30.66,-36.36,-0.093373865,0.51714754,9.78989,-0.01160644,-0.005497787,0.012217305,-0.05277320370078087,0.009537494741380215,-2.8816170692443848,1017.4636,
2021.02.11 16:45:50,10.0,15.0,8.04,-31.32,-36.48,-0.20590134,0.5506664,9.710882,-0.0018325958,-0.018325957,0.002443461,-0.05663274973630905,0.02119997702538967,-2.897712230682373,1017.4636,
2021.02.11 16:45:50,10.0,15.0,7.56,-30.96,-36.48,-0.16998832,0.50996494,9.531317,0.028099801,-0.004276057,0.0018325958,-0.053444694727659225,0.01783282496035099,-2.907424211502075,1017.4636,
2021.02.11 16:45:50,10.0,15.0,7.44,-30.179998,-36.66,-0.1388637,0.50278234,9.617508,0.007941248,-0.005497787,0.01282817,-0.052224837243556976,0.014437632635235786,-2.9014551639556885,1017.4636,
2021.02.11 16:45:51,10.0,15.0,7.02,-30.359999,-36.899998,-0.16280572,0.59136784,9.672575,-0.0018325958,0.0012217305,0.0030543262,-0.061053983867168427,0.016830094158649445,-2.9172980785369873,1017.46704,
2021.02.11 16:45:51,10.0,15.0,7.02,-30.119999,-36.719997,-0.16519992,0.58897364,9.703699,-0.004886922,-0.0030543262,0.008552114,-0.06061265617609024,0.017022784799337387,-2.9157888889312744,1017.46704,
2021.02.11 16:45:51,10.0,15.0,6.8999996,-30.3,-37.2,-0.1604115,0.50517654,9.579201,0.007941248,0.0,0.015271631,-0.05268063396215439,0.01674424670636654,-2.923302173614502,1017.46704,
2021.02.11 16:45:51,10.0,15.0,7.02,-30.9,-36.84,-0.10055647,0.50757074,9.619903,-0.0018325958,0.009773844,0.020158553,-0.05271080881357193,0.010452580638229847,-2.9160265922546387,1017.46704,
2021.02.11 16:45:51,10.0,15.0,7.44,-31.199999,-36.48,-0.15562311,0.58897364,9.689334,-0.015271631,0.02076942,0.0061086523,-0.06070326268672943,0.01605989970266819,-2.90893292427063,1017.46606,
2021.02.11 16:45:51,10.0,15.0,7.62,-30.96,-36.66,-0.14604631,0.5626374,9.667787,-0.005497787,0.007941248,0.002443461,-0.05812494084239006,0.01510533969849348,-2.900789499282837,1017.46606,
2021.02.11 16:45:51,10.0,15.0,7.7999997,-31.14,-36.18,-0.059855044,0.5602432,9.730036,-0.004886922,-0.005497787,0.017104227,-0.05751414969563484,0.0061514973640441895,-2.8860716819763184,1017.46606,
2021.02.11 16:45:51,10.0,15.0,7.98,-31.32,-36.18,-0.15801731,0.5506664,9.576807,0.01160644,-0.005497787,-0.004276057,-0.05742895230650902,0.01649850234389305,-2.893845319747925,1017.46606,
2021.02.11 16:45:51,10.0,15.0,7.74,-30.779999,-36.36,-0.1364695,0.5602432,9.674969,-0.0036651916,-6.1086525E-4,0.0030543262,-0.057836126536130905,0.01410448458045721,-2.894272804260254,1017.4641,
2021.02.11 16:45:51,10.0,15.0,7.2599998,-30.96,-36.18,-0.1388637,0.5267244,9.734824,-0.004886922,0.0018325958,-6.1086525E-4,-0.054049037396907806,0.014263665303587914,-2.912783622741699,1017.4641,
2021.02.11 16:45:51,10.0,15.0,7.2599998,-30.84,-36.059998,-0.23463176,0.5602432,9.770737,0.012217305,-0.02443461,-0.008552114,-0.057259704917669296,0.024009108543395996,-2.922565460205078,1017.4641,
2021.02.11 16:45:51,10.0,15.0,6.96,-30.72,-36.3,-0.1412579,0.45489833,9.818622,0.04642576,-0.058643065,0.01282817,-0.046292275190353394,0.014385742135345936,-2.9231858253479004,1017.4641,
2021.02.11 16:45:51,10.0,15.0,6.8999996,-30.48,-36.3,-0.21787235,0.61530983,9.23683,0.11911872,0.015882496,-0.023823744,-0.06649811565876007,0.023582980036735535,-2.9289915561676025,1017.4629,
2021.02.11 16:45:51,10.0,15.0,7.08,-30.42,-36.3,-0.06464344,0.59136784,10.189722,-0.02321288,0.009773844,0.01038471,-0.057969529181718826,0.006343900226056576,-2.903827428817749,1017.4629,
2021.02.11 16:45:51,10.0,15.0,7.08,-30.539999,-36.42,0.24660277,0.6703765,10.079589,0.002443461,-0.21135938,-0.0012217305,-0.06639070063829422,-0.024460678920149803,-2.864973545074463,1017.4629,
