Time,X-cord,Y-cord,Mag_x,Mag_y,Mag_z,Acc_x,Acc_y,Acc_z,Gyro_x,Gyro_y,Gyro_z,Orn_x,Orn_y,Orn_z,Pressure,
2021.02.11 16:43:18,13.0,25.0,-19.56,-13.44,-41.46,0.48602295,0.7062895,9.610326,0.16615535,-0.35918877,0.07819075,-0.07326759397983551,-0.05052994564175606,2.104271650314331,1017.46704,
2021.02.11 16:43:18,13.0,25.0,-19.92,-13.2,-41.76,-0.7182605,0.8451532,8.700529,0.40744713,0.2302962,-0.12705997,-0.09650808572769165,0.08236688375473022,1.950226068496704,1017.46704,
2021.02.11 16:43:19,13.0,25.0,-19.859999,-13.799999,-42.0,-0.62488663,0.878672,8.978256,0.1966986,0.13072516,-0.06352998,-0.09732204675674438,0.06948794424533844,1.977797269821167,1017.4717,
2021.02.11 16:43:19,13.0,25.0,-20.279999,-13.86,-42.059998,-0.521936,0.79248077,9.871294,-0.1282817,-0.020158553,0.051923547,-0.07999826967716217,0.05282492935657501,2.0095272064208984,1017.4717,
2021.02.11 16:43:19,13.0,25.0,-20.46,-14.04,-41.94,-0.5363012,0.8523358,9.962274,-0.103847094,-0.009162978,0.039095376,-0.08522570878267288,0.05378130078315735,2.0049405097961426,1017.4717,
2021.02.11 16:43:19,13.0,25.0,-20.699999,-14.28,-41.94,-0.5770026,0.91937345,9.569624,0.04642576,0.014660766,0.05497787,-0.09560553729534149,0.060222312808036804,1.9901795387268066,1017.4717,
2021.02.11 16:43:19,13.0,25.0,-20.939999,-14.04,-41.64,-0.39983168,0.85473,9.5385,0.05375614,-0.018936822,0.07941248,-0.08929173648357391,0.04189314320683479,1.9992445707321167,1017.48535,
2021.02.11 16:43:19,13.0,25.0,-20.58,-14.28,-41.82,-0.36631286,0.78529817,9.569624,0.012217305,-0.014660766,0.103847094,-0.08181843161582947,0.03826003149151802,2.02716064453125,1017.48535,
2021.02.11 16:43:19,13.0,25.0,-20.46,-14.219999,-41.94,-0.37828386,0.85473,9.615114,-0.027488936,0.03726278,0.076358154,-0.08859319239854813,0.039322346448898315,2.015476703643799,1017.48535,
2021.02.11 16:43:19,13.0,25.0,-20.1,-14.7,-41.76,-0.38067806,0.7781156,9.859323,-0.04153884,0.061086524,0.08246681,-0.07870016247034073,0.03859180584549904,2.0558414459228516,1017.48535,
2021.02.11 16:43:19,13.0,25.0,-19.74,-14.82,-41.94,-0.36391866,0.8523358,9.655815,-0.004276057,0.0036651916,0.058643065,-0.08798141777515411,0.03767123445868492,2.0527713298797607,1017.47095,
2021.02.11 16:43:19,13.0,25.0,-19.92,-14.219999,-41.879997,-0.4261679,0.82599956,9.507375,0.016493361,0.014049901,0.057421334,-0.08657577633857727,0.044794999063014984,2.024792194366455,1017.47095,
2021.02.11 16:43:19,13.0,25.0,-19.92,-14.04,-41.879997,-0.33279404,0.91219085,9.275137,0.0067195175,-0.06352998,0.054367006,-0.09797006845474243,0.03586484491825104,2.0058088302612305,1017.47095,
2021.02.11 16:43:19,13.0,25.0,-20.279999,-13.86,-42.0,-0.260968,0.91697925,9.536105,-0.044593163,0.0036651916,0.03970624,-0.09582826495170593,0.027359481900930405,2.001107692718506,1017.47095,
2021.02.11 16:43:19,13.0,25.0,-20.82,-13.74,-42.36,-0.1388637,0.78290397,9.907207,-0.08857546,0.007941248,0.028099801,-0.0788520872592926,0.014015515334904194,2.0223441123962402,1017.46265,
2021.02.11 16:43:19,13.0,25.0,-20.699999,-14.099999,-42.48,-0.15083471,0.6464345,9.957485,-0.0580322,0.002443461,-0.01038471,-0.06482105702161789,0.015146713703870773,2.0592002868652344,1017.46265,
2021.02.11 16:43:19,13.0,25.0,-20.939999,-14.099999,-42.84,-0.18195933,0.58418524,9.325416,0.0421497,-0.04337143,-0.053145275,-0.06255079060792923,0.01950971968472004,2.053896427154541,1017.46265,
2021.02.11 16:43:19,13.0,25.0,-20.46,-14.04,-42.48,-0.38067806,0.5482722,9.241618,0.01160644,-0.005497787,-0.07880162,-0.05920688062906265,0.04116843640804291,2.050826072692871,1017.46265,
2021.02.11 16:43:19,13.0,25.0,-20.46,-14.04,-42.6,-0.34955344,0.49799395,9.514558,-0.06780604,-0.026267206,-0.06291912,-0.05225729942321777,0.03672228381037712,2.0642008781433105,1017.46045,
2021.02.11 16:43:19,13.0,25.0,-21.119999,-13.86,-42.78,-0.545878,0.61530983,9.821015,-0.077579886,0.0036651916,-0.09040806,-0.06247440353035927,0.055525511503219604,2.017545700073242,1017.46045,
2021.02.11 16:43:19,13.0,25.0,-20.939999,-14.16,-42.42,-0.6679823,0.7517793,9.938332,-0.0421497,0.043982297,-0.089186326,-0.07533131539821625,0.0671117752790451,2.0061299800872803,1017.46045,
2021.02.11 16:43:19,13.0,25.0,-21.42,-13.86,-42.78,-0.5674258,0.7350199,10.038888,-0.02687807,0.014660766,-0.03970624,-0.07297078520059586,0.056462693959474564,1.9966952800750732,1017.46045,
2021.02.11 16:43:19,13.0,25.0,-20.699999,-13.679999,-42.6,-0.3878607,0.59615624,9.7324295,0.032375857,-0.01038471,0.0,-0.061129774898290634,0.03983132541179657,2.031378984451294,1017.46313,
2021.02.11 16:43:19,13.0,25.0,-20.58,-14.099999,-42.3,-0.4381389,0.50996494,9.662998,0.054367006,0.012217305,-0.0067195175,-0.052672095596790314,0.04531088471412659,2.0579161643981934,1017.46313,
2021.02.11 16:43:19,13.0,25.0,-20.76,-13.86,-42.54,-0.37349546,0.50517654,9.82341,0.015882496,0.032375857,0.0061086523,-0.051343489438295364,0.038002654910087585,2.052872896194458,1017.46313,
2021.02.11 16:43:19,13.0,25.0,-20.16,-13.92,-42.18,-0.2873042,0.5291186,9.94312,-6.1086525E-4,0.008552114,-0.004276057,-0.05314226076006889,0.028886735439300537,2.071420192718506,1017.46313,
2021.02.11 16:43:19,13.0,25.0,-20.699999,-14.34,-42.48,-0.22744916,0.51475334,9.722853,0.03176499,0.020158553,-0.018936822,-0.05287880077958107,0.02338898740708828,2.0797295570373535,1017.4729,
2021.02.11 16:43:20,13.0,25.0,-19.859999,-14.099999,-42.6,-0.29209262,0.5770026,9.509769,0.06780604,-0.012217305,-0.040317107,-0.060571931302547455,0.030705351382493973,2.0698695182800293,1017.4729,
2021.02.11 16:43:20,13.0,25.0,-19.8,-13.98,-42.6,-0.4429273,0.7038953,9.588778,0.037873644,-0.014660766,-0.06047566,-0.07319902628660202,0.046159446239471436,2.0353596210479736,1017.4729,
2021.02.11 16:43:20,13.0,25.0,-19.859999,-14.28,-42.78,-0.50278234,0.78529817,9.701305,0.01282817,-0.02076942,-0.043982297,-0.0806637778878212,0.05177992954850197,2.0289931297302246,1017.4729,
2021.02.11 16:43:20,13.0,25.0,-20.16,-14.28,-42.42,-0.48123455,0.7302315,9.68694,6.1086525E-4,-0.017104227,-0.02687807,-0.07514846324920654,0.04963788762688637,2.034945487976074,1017.4685,
2021.02.11 16:43:20,13.0,25.0,-20.699999,-14.46,-42.059998,-0.48602295,0.6727707,9.449914,0.012217305,-0.022602014,-0.013439035,-0.07097990065813065,0.05138619244098663,2.0380640029907227,1017.4685,
2021.02.11 16:43:20,13.0,25.0,-20.699999,-14.759999,-41.879997,-0.50517654,0.60333884,9.354146,-0.018325957,-0.019547688,0.0018325958,-0.06431692838668823,0.05395321547985077,2.0568392276763916,1017.4685,
2021.02.11 16:43:20,13.0,25.0,-20.64,-14.58,-41.82,-0.4285621,0.7422025,9.576807,-0.069027774,-0.02321288,0.007941248,-0.07726837694644928,0.04472016543149948,2.0393526554107666,1017.4685,
2021.02.11 16:43:20,13.0,25.0,-20.16,-14.4,-41.94,-0.4141969,0.79966336,9.770737,-0.06719518,0.045814894,0.0061086523,-0.08158773928880692,0.042366206645965576,2.036181688308716,1017.4678,
2021.02.11 16:43:20,13.0,25.0,-19.619999,-14.28,-41.94,-0.44771573,0.7134721,9.959879,0.012217305,-0.005497787,0.047036625,-0.07144057005643845,0.04492168128490448,2.0555899143218994,1017.4678,
2021.02.11 16:43:20,13.0,25.0,-19.38,-14.16,-41.7,-0.2873042,0.7134721,9.648633,0.06047566,-0.073303826,0.04520403,-0.07377849519252777,0.029767878353595734,2.0644564628601074,1017.4678,
2021.02.11 16:43:20,13.0,25.0,-19.5,-14.4,-41.82,-0.30645782,0.58897364,9.3182335,0.02321288,-0.047036625,0.076358154,-0.06308858841657639,0.03287612274289131,2.0846598148345947,1017.4678,
2021.02.11 16:43:20,13.0,25.0,-19.5,-14.5199995,-41.52,-0.088585466,0.4141969,9.421184,-0.07819075,-0.06352998,0.0842994,-0.04393419250845909,0.009402519091963768,2.1387267112731934,1017.45874,
2021.02.11 16:43:20,13.0,25.0,-20.279999,-14.639999,-41.28,0.23223756,0.4237737,9.466674,-0.08368854,-0.092240654,-0.034208454,-0.044721491634845734,-0.02452719770371914,2.1558163166046143,1017.45874,
2021.02.11 16:43:20,13.0,25.0,-20.58,-14.82,-41.34,-0.29927522,0.6943185,9.651027,-0.021380283,0.039095376,-0.13255776,-0.07178431749343872,0.030999742448329926,2.068202018737793,1017.45874,
2021.02.11 16:43:20,13.0,25.0,-20.76,-14.639999,-41.16,-0.6943185,0.93373865,10.005369,-0.02076942,0.03726278,-0.07269296,-0.09283226728439331,0.06928351521492004,2.0042595863342285,1017.45874,
2021.02.11 16:43:20,13.0,25.0,-20.88,-14.16,-41.64,-0.7038953,1.0390835,10.089166,-0.028710667,-0.010995574,-0.03359759,-0.10238106548786163,0.06965457648038864,1.9692646265029907,1017.46216,
2021.02.11 16:43:20,13.0,25.0,-20.64,-14.4,-42.12,-0.51235914,0.8451532,9.617508,0.052534413,-0.045814894,0.05375614,-0.08752788603305817,0.053223274648189545,2.0110137462615967,1017.46216,
2021.02.11 16:43:20,13.0,25.0,-20.4,-14.219999,-42.48,0.062249243,0.51954174,9.241618,0.014049901,0.032375857,0.058643065,-0.05615723133087158,-0.006735649891197681,2.101567029953003,1017.46216,
2021.02.11 16:43:20,13.0,25.0,-20.52,-14.5199995,-42.54,0.06464344,0.4357447,9.631873,-0.056199603,0.007941248,-0.021991149,-0.04520802944898605,-0.006711308378726244,2.1269116401672363,1017.46216,
2021.02.11 16:43:20,13.0,25.0,-20.52,-14.7,-42.18,-0.22266077,0.6703765,9.9790325,-0.009773844,0.004886922,-0.077579886,-0.06706107407808304,0.022309157997369766,2.076180934906006,1017.4629,
2021.02.11 16:43:20,13.0,25.0,-20.88,-14.16,-42.36,-0.60333884,0.8738836,9.7324295,0.058643065,-0.004276057,-0.06536258,-0.08938007801771164,0.061913393437862396,1.9896554946899414,1017.4629,
2021.02.11 16:43:20,13.0,25.0,-21.119999,-14.219999,-42.3,-0.59855044,0.830788,9.607931,0.027488936,-0.004886922,0.0012217305,-0.08608836680650711,0.06221713125705719,1.9929869174957275,1017.4629,
2021.02.11 16:43:20,13.0,25.0,-21.24,-13.98,-42.6,-0.33039984,0.6607997,9.555259,0.017104227,-0.007330383,0.02565634,-0.06900455802679062,0.034564029425382614,2.0242462158203125,1017.4629,
2021.02.11 16:43:20,13.0,25.0,-21.3,-14.04,-42.36,-0.31364042,0.62009823,9.662998,0.007941248,0.025045475,0.010995574,-0.06405093520879745,0.0324464850127697,2.0349390506744385,1017.4502,
2021.02.11 16:43:20,13.0,25.0,-20.46,-13.92,-41.82,-0.2633622,0.63206923,9.751583,0.0030543262,-0.0018325958,0.008552114,-0.06470301747322083,0.027000559493899345,2.0503580570220947,1017.4502,
2021.02.11 16:43:21,13.0,25.0,-20.46,-13.62,-42.059998,-0.45968673,0.6919243,9.61272,0.029321533,-0.002443461,-0.004886922,-0.07177441567182541,0.04778427258133888,2.013536214828491,1017.4502,
2021.02.11 16:43:21,13.0,25.0,-20.279999,-13.74,-41.879997,-0.39983168,0.81402856,9.488221,0.019547688,6.1086525E-4,0.025045475,-0.08550850301980972,0.042114876210689545,2.004089117050171,1017.4502,
2021.02.11 16:43:21,13.0,25.0,-20.34,-13.799999,-42.48,-0.36870706,0.7254431,9.68694,-0.025045475,0.009162978,0.04337143,-0.07469535619020462,0.03804391995072365,2.022742986679077,1017.458,
2021.02.11 16:43:21,13.0,25.0,-21.06,-14.04,-42.84,-0.25857377,0.6392518,9.765948,-0.014660766,-0.0030543262,0.040927973,-0.06534113734960556,0.026470893993973732,2.0400867462158203,1017.458,
2021.02.11 16:43:21,13.0,25.0,-21.06,-14.099999,-42.719997,-0.2896984,0.6488287,9.718064,0.010995574,0.016493361,0.025045475,-0.06663676351308823,0.029801473021507263,2.0382120609283447,1017.458,
2021.02.11 16:43:21,13.0,25.0,-21.18,-13.62,-42.66,-0.30885202,0.6991069,9.560047,0.01282817,0.004276057,0.022602014,-0.07296010851860046,0.03229530155658722,2.007563829421997,1017.458,
2021.02.11 16:43:21,13.0,25.0,-21.359999,-13.92,-42.719997,-0.32800564,0.7278373,9.56723,-0.014049901,0.01160644,0.021991149,-0.07588540762662888,0.03427086025476456,2.009343147277832,1017.4553,
2021.02.11 16:43:21,13.0,25.0,-21.18,-13.92,-42.719997,-0.28491,0.6943185,9.595961,-0.02321288,0.002443461,0.026267206,-0.07219770550727844,0.029681898653507233,2.0211503505706787,1017.4553,
2021.02.11 16:43:21,13.0,25.0,-21.18,-14.16,-42.48,-0.2825158,0.6655881,9.701305,-0.040317107,0.017104227,0.02076942,-0.06847181171178818,0.029113193973898888,2.0365848541259766,1017.4553,
2021.02.11 16:43:21,13.0,25.0,-20.88,-14.58,-42.78,-0.28491,0.62009823,9.631873,-0.021991149,-0.007330383,0.0067195175,-0.06426306068897247,0.02957129292190075,2.062079906463623,1017.4553,
2021.02.11 16:43:21,13.0,25.0,-20.82,-14.219999,-42.18,-0.32800564,0.6607997,9.536105,-0.02565634,0.009162978,0.007941248,-0.06914316117763519,0.03438263013958931,2.04140043258667,1017.4551,
2021.02.11 16:43:21,13.0,25.0,-20.64,-14.34,-42.42,-0.2681506,0.641646,9.629479,-0.05009095,0.010995574,0.0067195175,-0.06650944799184799,0.027839647606015205,2.0569920539855957,1017.4551,
2021.02.11 16:43:21,13.0,25.0,-20.16,-14.099999,-42.239998,-0.2801216,0.6679823,9.746795,-0.0421497,0.004276057,-0.004886922,-0.0683983787894249,0.02873195894062519,2.0543975830078125,1017.4551,
2021.02.11 16:43:21,13.0,25.0,-20.34,-13.559999,-42.12,-0.2753332,0.61770403,9.7563715,-0.009773844,-0.0036651916,-0.0036651916,-0.06320340186357498,0.028213372454047203,2.0399980545043945,1017.4551,
2021.02.11 16:43:21,13.0,25.0,-20.34,-13.32,-42.12,-0.272939,0.59136784,9.629479,-0.0018325958,-0.004276057,-0.02443461,-0.06131064519286156,0.028336521238088608,2.0339951515197754,1017.4592,
2021.02.11 16:43:21,13.0,25.0,-20.279999,-13.259999,-41.34,-0.39025488,0.641646,9.5385,-0.002443461,-0.004886922,-0.03604105,-0.06711190193891525,0.04089085012674332,2.017512559890747,1017.4592,
2021.02.11 16:43:21,13.0,25.0,-20.64,-13.32,-41.46,-0.37110126,0.641646,9.65821,-0.02443461,-0.0018325958,-0.0012217305,-0.06628904491662979,0.03840450942516327,2.0159337520599365,1017.4592,
2021.02.11 16:43:21,13.0,25.0,-20.46,-13.259999,-41.28,-0.23942018,0.63206923,9.737218,-0.02076942,-0.021380283,-0.010995574,-0.06480223685503006,0.02458319626748562,2.0291430950164795,1017.4592,
2021.02.11 16:43:21,13.0,25.0,-19.98,-13.44,-41.34,-0.30166942,0.62249243,9.665392,0.018936822,-0.0036651916,-0.017715093,-0.06428422033786774,0.03120116889476776,2.040743112564087,1017.4585,
2021.02.11 16:43:21,13.0,25.0,-20.1,-13.62,-41.52,-0.3184288,0.59136784,9.646238,0.0012217305,-0.0012217305,-0.01038471,-0.06119566038250923,0.03299868851900101,2.0480589866638184,1017.4585,
2021.02.11 16:43:21,13.0,25.0,-20.16,-13.259999,-41.399998,-0.29927522,0.61530983,9.682152,-0.007330383,-0.03176499,-0.02076942,-0.0634353756904602,0.030900152400135994,2.032010078430176,1017.4585,
2021.02.11 16:43:21,13.0,25.0,-20.4,-13.44,-41.7,-0.37588966,0.61052144,9.624691,0.018936822,0.02076942,-0.017104227,-0.06329983472824097,0.0390348844230175,2.0279431343078613,1017.4585,
2021.02.11 16:43:21,13.0,25.0,-20.34,-13.62,-41.82,-0.2705448,0.58657944,9.660604,-0.005497787,-0.01282817,-0.009773844,-0.06062055379152298,0.027997640892863274,2.047215461730957,1017.45996,
2021.02.11 16:43:21,13.0,25.0,-20.699999,-13.2,-42.36,-0.33997664,0.62728083,9.744401,-0.005497787,0.0012217305,-0.021991149,-0.0642457827925682,0.034875284880399704,2.0132532119750977,1017.45996,
2021.02.11 16:43:21,13.0,25.0,-20.4,-13.5,-42.239998,-0.33518824,0.60812724,9.653421,0.018325957,0.01038471,-0.009773844,-0.06287510693073273,0.034708280116319656,2.0321922302246094,1017.45996,
2021.02.11 16:43:22,13.0,25.0,-20.039999,-13.92,-42.239998,-0.34715924,0.5746084,9.615114,0.004276057,0.0036651916,-0.0061086523,-0.05965118855237961,0.03608989715576172,2.0581462383270264,1017.45996,
2021.02.11 16:43:22,13.0,25.0,-20.64,-13.74,-42.0,-0.2705448,0.58657944,9.643845,-0.0030543262,-0.002443461,-0.005497787,-0.060725562274456024,0.028046268969774246,2.045280933380127,1017.4646,
2021.02.11 16:43:22,13.0,25.0,-20.279999,-13.74,-41.64,-0.29209262,0.62249243,9.624691,0.0,-0.012217305,-0.01038471,-0.0645570158958435,0.030338948592543602,2.045494794845581,1017.4646,
2021.02.11 16:43:22,13.0,25.0,-20.52,-13.74,-42.18,-0.2705448,0.59376204,9.674969,-0.014660766,0.005497787,-0.009773844,-0.06127018854022026,0.027956092730164528,2.0462522506713867,1017.4646,
2021.02.11 16:43:22,13.0,25.0,-20.82,-13.559999,-41.94,-0.2681506,0.5674258,9.782708,-0.007941248,-0.009162978,-0.004886922,-0.057916317135095596,0.027403810992836952,2.0403592586517334,1017.4646,
2021.02.11 16:43:22,13.0,25.0,-20.64,-13.259999,-42.12,-0.2753332,0.5506664,9.727641,0.007330383,0.0018325958,-0.02076942,-0.05652547627687454,0.028296655043959618,2.033764123916626,1017.46265,
2021.02.11 16:43:22,13.0,25.0,-20.82,-12.9,-42.3,-0.34237084,0.581791,9.607931,0.027488936,-0.017104227,-0.032986723,-0.06044108420610428,0.03561911731958389,2.0057637691497803,1017.46265,
2021.02.11 16:43:22,13.0,25.0,-20.939999,-12.9,-42.059998,-0.36152446,0.6536171,9.52174,0.018936822,0.002443461,-0.02076942,-0.06848800182342529,0.03795009106397629,1.9904524087905884,1017.46265,
2021.02.11 16:43:22,13.0,25.0,-21.119999,-12.84,-42.36,-0.260968,0.59376204,9.763555,-0.029932396,0.002443461,-0.0036651916,-0.060717690736055374,0.02672242745757103,2.0037407875061035,1017.46265,
2021.02.11 16:43:22,13.0,25.0,-20.699999,-12.78,-42.18,-0.2705448,0.5722142,9.792285,0.014660766,-0.017104227,-0.018936822,-0.05834661424160004,0.027621334418654442,2.0124056339263916,1017.458,
2021.02.11 16:43:22,13.0,25.0,-20.64,-13.38,-42.0,-0.36870706,0.545878,9.595961,0.023823744,0.020158553,-0.01282817,-0.056783173233270645,0.03840425983071327,2.0309436321258545,1017.458,
2021.02.11 16:43:22,13.0,25.0,-20.4,-13.32,-42.12,-0.33997664,0.60812724,9.586384,-0.015271631,-0.007941248,-0.005497787,-0.06331197917461395,0.03544967621564865,2.024737596511841,1017.458,
2021.02.11 16:43:22,13.0,25.0,-20.1,-13.44,-41.879997,-0.32800564,0.5746084,9.694122,-0.009773844,6.1086525E-4,0.01038471,-0.05917084217071533,0.03382261469960213,2.0429303646087646,1017.458,
2021.02.11 16:43:22,13.0,25.0,-20.699999,-13.799999,-42.18,-0.2873042,0.5793968,9.631873,0.0018325958,-6.1086525E-4,0.0012217305,-0.060055069625377655,0.02981964498758316,2.045588731765747,1017.46387,
2021.02.11 16:43:22,13.0,25.0,-20.46,-13.74,-42.6,-0.33758244,0.62728083,9.643845,-0.009773844,0.0018325958,0.009162978,-0.06491353362798691,0.03499067574739456,2.0354251861572266,1017.46387,
2021.02.11 16:43:22,13.0,25.0,-20.64,-13.799999,-42.239998,-0.24899697,0.5722142,9.722853,-0.018325957,0.005497787,0.014660766,-0.0587654709815979,0.02560385875403881,2.051604986190796,1017.46387,
2021.02.11 16:43:22,13.0,25.0,-21.18,-13.74,-42.66,-0.22505496,0.5530606,9.701305,-0.0067195175,-0.01282817,-6.1086525E-4,-0.05693195387721062,0.02319425903260708,2.0429651737213135,1017.46387,
2021.02.11 16:43:22,13.0,25.0,-21.18,-13.74,-42.899998,-0.3184288,0.59855044,9.603143,0.005497787,0.008552114,-0.0030543262,-0.062213968485593796,0.03314666822552681,2.0272011756896973,1017.45557,
2021.02.11 16:43:22,13.0,25.0,-21.539999,-13.32,-42.66,-0.32800564,0.62249243,9.593566,-0.01160644,-0.0018325958,0.005497787,-0.06475788354873657,0.03417685627937317,2.0022053718566895,1017.45557,
2021.02.11 16:43:22,13.0,25.0,-21.3,-13.44,-43.02,-0.24181437,0.61052144,9.734824,-0.023823744,0.01160644,0.018936822,-0.06261390447616577,0.02483503147959709,2.019118070602417,1017.45557,
2021.02.11 16:43:22,13.0,25.0,-20.88,-13.799999,-42.899998,-0.19393034,0.58418524,9.727641,0.0,-0.01160644,0.0018325958,-0.059970226138830185,0.019933367148041725,2.0477540493011475,1017.45557,
2021.02.11 16:43:22,13.0,25.0,-20.52,-13.559999,-42.66,-0.30166942,0.5674258,9.651027,0.01282817,0.018936822,-0.0061086523,-0.0586981363594532,0.03124758042395115,2.039975643157959,1017.4514,
2021.02.11 16:43:22,13.0,25.0,-20.52,-14.099999,-42.48,-0.260968,0.5650316,9.679757,-0.0018325958,0.02076942,-0.009162978,-0.058285199105739594,0.026953650638461113,2.0637686252593994,1017.4514,
2021.02.11 16:43:22,13.0,25.0,-20.279999,-14.46,-42.42,-0.4165911,0.60333884,9.574412,0.008552114,0.0018325958,-0.02076942,-0.06287321448326111,0.04348345100879669,2.0619778633117676,1017.4514,
2021.02.11 16:43:22,13.0,25.0,-20.52,-13.98,-42.3,-0.37349546,0.6464345,9.564836,-0.0036651916,0.025045475,0.014660766,-0.06743063777685165,0.03902898356318474,2.0372116565704346,1017.4514,
2021.02.11 16:43:23,13.0,25.0,-20.82,-14.16,-42.36,-0.2681506,0.5602432,9.8042555,-0.04337143,-0.0067195175,0.02076942,-0.05705949664115906,0.027343614026904106,2.0620665550231934,1017.46045,
2021.02.11 16:43:23,13.0,25.0,-20.82,-13.5,-42.48,-0.31364042,0.5602432,9.713276,-0.007941248,-0.026267206,0.0012217305,-0.057584308087825775,0.03227865695953369,2.0338191986083984,1017.46045,
2021.02.11 16:43:23,13.0,25.0,-20.82,-13.44,-42.36,-0.2633622,0.51954174,9.615114,0.01038471,0.018325957,0.0018325958,-0.05396116524934769,0.0273835901170969,2.041024923324585,1017.46045,
2021.02.11 16:43:23,13.0,25.0,-20.52,-13.5,-42.059998,-0.2657564,0.5746084,9.526528,-0.010995574,-0.0012217305,-0.01160644,-0.060220301151275635,0.027889223769307137,2.039491653442383,1017.46045,
2021.02.11 16:43:23,13.0,25.0,-20.22,-13.44,-42.239998,-0.33279404,0.545878,9.727641,-0.022602014,0.040927973,-0.0067195175,-0.05602467060089111,0.034197837114334106,2.044280529022217,1017.46606,
2021.02.11 16:43:23,13.0,25.0,-19.92,-13.74,-42.239998,-0.4213795,0.59615624,9.821015,0.004276057,-0.0018325958,-0.009773844,-0.06057211011648178,0.04287960007786751,2.047462224960327,1017.46606,
2021.02.11 16:43:23,13.0,25.0,-20.46,-13.139999,-42.54,-0.47884035,0.6703765,9.634268,0.047036625,0.0018325958,0.004276057,-0.06938515603542328,0.049660928547382355,1.9968632459640503,1017.46606,
2021.02.11 16:43:23,13.0,25.0,-20.76,-13.139999,-42.78,-0.36631286,0.6440403,9.674969,0.03726278,-6.1086525E-4,0.039095376,-0.06642217189073563,0.037843842059373856,2.003352642059326,1017.46606,
2021.02.11 16:43:23,13.0,25.0,-20.76,-13.679999,-42.239998,-0.23463176,0.58897364,9.706094,0.049480084,-0.016493361,0.03726278,-0.06058884039521217,0.024168947711586952,2.043257236480713,1017.4614,
2021.02.11 16:43:23,13.0,25.0,-20.699999,-13.679999,-42.36,-0.2633622,0.61770403,9.485827,0.059864793,-0.03176499,-0.005497787,-0.06500183790922165,0.027756625786423683,2.034594774246216,1017.4614,
2021.02.11 16:43:23,13.0,25.0,-20.34,-14.28,-42.239998,-0.35194764,0.6536171,9.507375,0.012217305,-0.04886922,-0.009773844,-0.0685935914516449,0.037001486867666245,2.051133155822754,1017.4614,
2021.02.11 16:43:23,13.0,25.0,-20.46,-14.04,-42.239998,-0.35434186,0.7134721,9.629479,0.004886922,-0.053145275,0.0018325958,-0.0739075094461441,0.03678102046251297,2.0322816371917725,1017.4614,
2021.02.11 16:43:23,13.0,25.0,-20.88,-13.62,-42.719997,-0.18914193,0.6703765,9.794679,0.017715093,-0.05009095,0.016493361,-0.06832365691661835,0.01930828206241131,2.0288736820220947,1017.46606,
2021.02.11 16:43:23,13.0,25.0,-20.82,-13.679999,-42.42,-0.05746084,0.7445967,9.773131,0.03848451,-0.07696902,-0.0036651916,-0.07603992521762848,0.005879403091967106,2.030364990234375,1017.46606,
2021.02.11 16:43:23,13.0,25.0,-21.24,-13.139999,-42.36,-0.10295067,0.6679823,9.703699,0.051923547,-0.08735373,-0.026267206,-0.06872562319040298,0.010609026998281479,2.0109968185424805,1017.46606,
2021.02.11 16:43:23,13.0,25.0,-21.0,-13.799999,-42.239998,-0.09816227,0.557849,9.854534,0.08979719,-0.17165314,-0.062308256,-0.0565452054142952,0.009960797615349293,2.0599844455718994,1017.46606,
2021.02.11 16:43:23,13.0,25.0,-20.58,-14.04,-41.76,-0.076614454,0.90979666,9.074024,0.004276057,0.106901415,-0.12095132,-0.09992635250091553,0.008443071506917477,2.0095112323760986,1017.45703,
2021.02.11 16:43:23,13.0,25.0,-21.18,-14.16,-41.64,-0.35194764,0.7326257,9.813833,-0.047036625,-0.115453534,0.025045475,-0.07446643710136414,0.03584703803062439,2.0256471633911133,1017.45703,
2021.02.11 16:43:23,13.0,25.0,-21.0,-14.94,-41.34,0.17717093,0.7757214,10.335769,0.05009095,-0.19730948,-0.044593163,-0.07490071654319763,-0.01713985577225685,2.096780776977539,1017.45703,
