Time,X-cord,Y-cord,Mag_x,Mag_y,Mag_z,Acc_x,Acc_y,Acc_z,Gyro_x,Gyro_y,Gyro_z,Orn_x,Orn_y,Orn_z,Pressure,
2021.02.11 16:36:05,44.0,35.0,11.88,-33.18,-29.279999,-0.08619126,0.9983821,9.813833,-0.05497787,-0.20769419,0.052534413,-0.10137943923473358,0.008782404474914074,-2.772386312484741,1017.58936,
2021.02.11 16:36:06,44.0,35.0,12.12,-32.52,-29.22,-0.49320555,0.9792285,9.583989,-0.09285152,-0.1459968,-0.032986723,-0.10168640315532684,0.051416050642728806,-2.7946879863739014,1017.59375,
2021.02.11 16:36:06,44.0,35.0,11.46,-32.7,-29.82,-0.29688102,0.7685388,9.514558,-0.17592919,-0.27488935,-0.0012217305,-0.08056100457906723,0.03119269758462906,-2.8059194087982178,1017.59375,
2021.02.11 16:36:06,44.0,35.0,11.28,-32.399998,-30.179998,-0.038307227,0.6344634,10.45069,-0.36041048,-0.118507855,0.047647487,-0.060635365545749664,0.0036655047442764044,-2.790649890899658,1017.59375,
2021.02.11 16:36:06,44.0,35.0,11.04,-31.8,-30.66,0.088585466,0.61291564,10.644621,-0.4343252,-0.11789699,-0.007330383,-0.05751434713602066,-0.008321895264089108,-2.7814083099365234,1017.59375,
2021.02.11 16:36:06,44.0,35.0,10.44,-31.679998,-31.26,0.093373865,0.7565677,9.528923,-0.06414085,-0.2706133,-0.054367006,-0.07922697812318802,-0.009798681363463402,-2.7880187034606934,1017.60425,
2021.02.11 16:36:06,44.0,35.0,10.32,-31.619999,-31.5,0.074220255,0.7422025,8.585608,0.29932398,-0.08246681,-0.059864793,-0.08622970432043076,-0.008644514717161655,-2.789142608642578,1017.60425,
2021.02.11 16:36:06,44.0,35.0,10.679999,-31.32,-31.679998,-0.059855044,0.6991069,8.267179,0.28221974,-0.010995574,-0.036651913,-0.0843612402677536,0.007239955011755228,-2.7905080318450928,1017.60425,
2021.02.11 16:36:06,44.0,35.0,10.5,-31.26,-31.679998,-0.20829555,0.7278373,9.045294,0.002443461,-0.032986723,-0.062308256,-0.08027168363332748,0.02302399091422558,-2.812483310699463,1017.60425,
2021.02.11 16:36:06,44.0,35.0,10.679999,-31.26,-31.32,-0.260968,0.7302315,10.024523,-0.26511553,0.013439035,-0.028099801,-0.07269153743982315,0.026027081534266472,-2.8125832080841064,1017.59375,
2021.02.11 16:36:06,44.0,35.0,10.92,-31.32,-31.26,-0.15562311,0.6727707,10.25676,-0.13500121,0.005497787,0.015882496,-0.06549155712127686,0.01517157256603241,-2.798046350479126,1017.59375,
2021.02.11 16:36:06,44.0,35.0,10.559999,-31.56,-31.439999,0.02633622,0.6823475,10.172963,0.0,0.032375857,0.03176499,-0.06697405874729156,-0.002588838804513216,-2.7941694259643555,1017.59375,
2021.02.11 16:36:06,44.0,35.0,10.2,-31.8,-31.32,-0.016759412,0.62488663,9.847352,0.07452556,0.028099801,0.016493361,-0.06337226182222366,0.0017019190127030015,-2.8129160404205322,1017.59375,
2021.02.11 16:36:06,44.0,35.0,10.26,-32.1,-31.5,-0.019153614,0.6967127,9.334992,0.12217305,-0.03970624,0.002443461,-0.07449624687433243,0.002051805378869176,-2.810556173324585,1017.58594,
2021.02.11 16:36:06,44.0,35.0,10.139999,-31.92,-31.74,-0.1316811,0.7254431,9.583989,0.04886922,0.054367006,0.0067195175,-0.07554206997156143,0.01373883243650198,-2.823050022125244,1017.58594,
2021.02.11 16:36:06,44.0,35.0,10.08,-32.1,-31.74,0.02873042,0.6823475,9.801862,0.0030543262,0.018325957,0.028710667,-0.06950164586305618,-0.002931110328063369,-2.8128304481506348,1017.58594,
2021.02.11 16:36:06,44.0,35.0,10.5,-31.74,-31.619999,-0.19393034,0.7158663,9.787497,0.028710667,0.03176499,-0.020158553,-0.07299661636352539,0.019811498001217842,-2.816981554031372,1017.58594,
2021.02.11 16:36:06,44.0,35.0,10.32,-31.38,-31.619999,-0.074220255,0.6991069,9.696517,0.05497787,0.05375614,-0.0012217305,-0.07197213172912598,0.0076541719026863575,-2.8073482513427734,1017.5847,
2021.02.11 16:36:06,44.0,35.0,10.44,-31.439999,-31.32,-0.05267244,0.7254431,9.588778,0.03970624,0.014660766,0.010995574,-0.07551044970750809,0.005493078846484423,-2.8011233806610107,1017.5847,
2021.02.11 16:36:06,44.0,35.0,10.86,-31.439999,-31.32,-0.19871874,0.80684596,9.332599,0.06047566,0.0030543262,-0.013439035,-0.08622070401906967,0.021289752796292305,-2.799372673034668,1017.5847,
2021.02.11 16:36:06,44.0,35.0,10.559999,-31.92,-31.439999,-0.0047884034,0.78529817,9.473856,0.010995574,0.0061086523,0.020158553,-0.08270200341939926,5.054333596490324E-4,-2.7952091693878174,1017.5847,
2021.02.11 16:36:06,44.0,35.0,10.74,-32.04,-31.199999,-0.02873042,0.7469909,9.818622,-0.056199603,0.02076942,0.009162978,-0.07593239843845367,0.002926107030361891,-2.796025037765503,1017.5869,
2021.02.11 16:36:06,44.0,35.0,10.559999,-32.16,-31.38,-0.107739076,0.7493851,9.931149,-0.04642576,0.06963864,-0.004886922,-0.07531090080738068,0.010848176665604115,-2.8102009296417236,1017.5869,
2021.02.11 16:36:06,44.0,35.0,10.2,-31.679998,-31.439999,-0.12449849,0.78769237,9.959879,-0.01038471,0.03726278,-0.015271631,-0.07891613245010376,0.012499349191784859,-2.8164873123168945,1017.5869,
2021.02.11 16:36:06,44.0,35.0,10.08,-31.5,-31.5,-0.12928689,0.830788,9.543288,0.040317107,-0.0012217305,-0.015271631,-0.0868278443813324,0.013546586036682129,-2.8165040016174316,1017.5869,
2021.02.11 16:36:06,44.0,35.0,9.9,-31.32,-31.679998,-0.24420857,0.7254431,9.497798,0.048258353,0.014049901,-0.007330383,-0.07620703428983688,0.025706462562084198,-2.8360884189605713,1017.59766,
2021.02.11 16:36:07,44.0,35.0,10.08,-31.38,-31.199999,-0.1412579,0.6560113,9.94312,-0.014660766,0.02443461,0.029932396,-0.06587429344654083,0.014205641113221645,-2.823349714279175,1017.59766,
2021.02.11 16:36:07,44.0,35.0,10.26,-31.679998,-30.96,-0.19632454,0.78050977,9.44752,0.009773844,0.007330383,0.010995574,-0.08241040259599686,0.020777547731995583,-2.8215317726135254,1017.59766,
2021.02.11 16:36:07,44.0,35.0,11.099999,-31.8,-30.779999,-0.24181437,0.7613561,9.255983,0.040317107,-0.007330383,0.007330383,-0.08204293251037598,0.026119254529476166,-2.802149534225464,1017.59766,
2021.02.11 16:36:07,44.0,35.0,11.28,-31.74,-30.48,-0.07182605,0.6488287,10.335769,-0.124005646,0.07574729,0.05131268,-0.06269130855798721,0.006949157919734716,-2.7855725288391113,1017.5935,
2021.02.11 16:36:07,44.0,35.0,11.099999,-31.5,-30.72,-0.08379706,0.78769237,9.653421,-0.042760566,0.032986723,0.032375857,-0.08141379058361053,0.008680337108671665,-2.7828431129455566,1017.5935,
2021.02.11 16:36:07,44.0,35.0,11.34,-31.5,-30.72,-0.038307227,0.8643068,8.810662,0.12339478,-0.02687807,0.01038471,-0.09778404235839844,0.004347798880189657,-2.7651045322418213,1017.5935,
2021.02.11 16:36:07,44.0,35.0,10.98,-31.74,-30.9,0.038307227,0.60094464,9.461885,-0.02565634,0.01160644,-0.0061086523,-0.0634264349937439,-0.004048560746014118,-2.7840070724487305,1017.5935,
2021.02.11 16:36:07,44.0,35.0,11.34,-32.16,-31.08,-0.088585466,0.60094464,9.854534,-0.14110987,0.027488936,-0.017104227,-0.06090366095304489,0.008989068679511547,-2.7905592918395996,1017.60376,
2021.02.11 16:36:07,44.0,35.0,11.759999,-32.219997,-31.08,-0.29927522,0.7230489,9.794679,-0.09896017,0.037873644,-0.065973446,-0.07365268468856812,0.030545376241207123,-2.793959617614746,1017.60376,
2021.02.11 16:36:07,44.0,35.0,11.82,-31.859999,-31.38,-0.2777274,0.79008657,9.416395,0.029932396,0.03359759,-0.035430185,-0.08367312699556351,0.02948547713458538,-2.783484697341919,1017.60376,
2021.02.11 16:36:07,44.0,35.0,11.94,-31.5,-31.32,-0.2777274,0.7326257,9.476251,-0.023823744,0.022602014,-0.019547688,-0.07712529599666595,0.02929934300482273,-2.7781503200531006,1017.60376,
2021.02.11 16:36:07,44.0,35.0,11.759999,-31.08,-31.14,-0.22266077,0.6440403,9.694122,-0.077579886,0.018325957,-0.0061086523,-0.0663212314248085,0.0229645986109972,-2.7769899368286133,1017.59766,
2021.02.11 16:36:07,44.0,35.0,11.82,-31.38,-31.439999,-0.062249243,0.59615624,10.125079,-0.084910266,0.06291912,-0.0030543262,-0.058810167014598846,0.00614794809371233,-2.7658615112304688,1017.59766,
2021.02.11 16:36:07,44.0,35.0,11.639999,-31.8,-31.26,-0.2681506,0.60333884,10.3692875,-0.03359759,0.043982297,-0.048258353,-0.05810026824474335,0.025854317471385002,-2.7942965030670166,1017.59766,
2021.02.11 16:36:07,44.0,35.0,11.639999,-31.619999,-31.08,-0.61770403,0.6967127,9.562442,0.13927728,-0.0018325958,-0.07574729,-0.07258003205060959,0.06450726836919785,-2.8239150047302246,1017.59766,
2021.02.11 16:36:07,44.0,35.0,11.82,-31.74,-31.679998,-0.5530606,0.8882488,9.121908,0.19303341,0.0036651916,-0.0067195175,-0.09689249098300934,0.06055579334497452,-2.8074514865875244,1017.583,
2021.02.11 16:36:07,44.0,35.0,11.759999,-31.08,-31.14,-0.23942018,0.7086837,9.749189,0.029321533,0.040317107,0.07513642,-0.07254213094711304,0.024553023278713226,-2.776076078414917,1017.583,
2021.02.11 16:36:07,44.0,35.0,12.3,-30.9,-31.32,-0.22266077,0.7517793,10.0269165,-0.035430185,-0.023823744,0.05131268,-0.0748177319765091,0.02220265567302704,-2.754420518875122,1017.583,
2021.02.11 16:36:07,44.0,35.0,12.3,-30.9,-31.56,-0.2777274,0.7398083,9.931149,0.035430185,0.018936822,0.02565634,-0.07432743906974792,0.02795799821615219,-2.760045051574707,1017.583,
2021.02.11 16:36:07,44.0,35.0,12.179999,-31.38,-31.019999,-0.1316811,0.7015011,9.5385,0.13439035,0.02443461,0.03970624,-0.07340503484010696,0.013804344460368156,-2.7567169666290283,1017.60205,
2021.02.11 16:36:07,44.0,35.0,12.0,-31.8,-31.08,-0.15322891,0.6823475,9.464279,0.09162979,0.012217305,0.007330383,-0.07196320593357086,0.01618882082402706,-2.769670009613037,1017.60205,
2021.02.11 16:36:07,44.0,35.0,11.5199995,-31.859999,-30.72,-0.20829555,0.7086837,9.617508,0.029932396,-0.004886922,-0.005497787,-0.07353672385215759,0.02165456861257553,-2.789078712463379,1017.60205,
2021.02.11 16:36:07,44.0,35.0,11.46,-32.399998,-30.179998,-0.2777274,0.79966336,9.65821,0.02076942,-0.04337143,-0.002443461,-0.08257383108139038,0.02874765731394291,-2.7999355792999268,1017.60205,
2021.02.11 16:36:07,44.0,35.0,11.7,-31.92,-30.119999,-0.28491,0.81881696,9.749189,0.013439035,-0.047036625,0.0061086523,-0.0837559700012207,0.029215650632977486,-2.7875537872314453,1017.59106,
2021.02.11 16:36:07,44.0,35.0,11.759999,-31.679998,-30.359999,-0.15083471,0.7565677,9.787497,0.0036651916,-0.062308256,0.012217305,-0.07713687419891357,0.015409739688038826,-2.7730042934417725,1017.59106,
2021.02.11 16:36:08,44.0,35.0,11.5199995,-31.92,-30.3,-0.19632454,0.7781156,9.737218,0.07147124,-0.045814894,0.0012217305,-0.07972589880228043,0.02015955187380314,-2.786210298538208,1017.59106,
2021.02.11 16:36:08,44.0,35.0,11.639999,-31.8,-30.48,-0.059855044,0.90500826,9.56723,0.10140363,-0.08124508,0.005497787,-0.09431211650371552,0.006256174761801958,-2.7629899978637695,1017.59106,
2021.02.11 16:36:08,44.0,35.0,11.639999,-31.74,-30.42,-0.35673606,0.9696517,9.512163,0.07941248,0.013439035,-0.04520403,-0.10151630640029907,0.037485577166080475,-2.78830623626709,1017.5918,
2021.02.11 16:36:08,44.0,35.0,11.58,-32.16,-30.42,-0.22505496,0.9792285,9.464279,0.03726278,-0.010995574,-0.015271631,-0.10306994616985321,0.023774929344654083,-2.7815592288970947,1017.5918,
2021.02.11 16:36:08,44.0,35.0,11.46,-31.98,-30.66,-0.16759412,0.8571242,9.770737,-0.021991149,0.009773844,0.004276057,-0.08748680353164673,0.01715097762644291,-2.7829198837280273,1017.5918,
2021.02.11 16:36:08,44.0,35.0,11.34,-32.399998,-30.599998,-0.14604631,0.8810662,9.758766,-0.03481932,-0.007330383,0.015882496,-0.09003043919801712,0.01496453583240509,-2.7882606983184814,1017.5918,
2021.02.11 16:36:08,44.0,35.0,10.74,-32.88,-30.48,-0.21308395,0.94092125,9.433155,0.035430185,-0.0030543262,-0.017715093,-0.09939216077327728,0.022584989666938782,-2.815028429031372,1017.58716,
2021.02.11 16:36:08,44.0,35.0,10.559999,-33.059998,-30.48,-0.15322891,0.94331545,9.703699,0.0012217305,0.002443461,0.004886922,-0.09689544886350632,0.015789460390806198,-2.816920042037964,1017.58716,
2021.02.11 16:36:08,44.0,35.0,10.62,-32.94,-30.359999,-0.24181437,0.9552865,9.713276,-0.04153884,0.016493361,0.0018325958,-0.09800310432910919,0.024890102446079254,-2.8218882083892822,1017.58716,
2021.02.11 16:36:08,44.0,35.0,10.5,-32.04,-29.939999,-0.18195933,0.8595184,9.64145,0.004886922,0.0061086523,0.009162978,-0.0888974592089653,0.018870368599891663,-2.814094305038452,1017.58716,
2021.02.11 16:36:08,44.0,35.0,10.559999,-31.98,-30.119999,-0.17956513,0.8523358,9.691729,-0.007330383,0.01038471,0.004886922,-0.08770400285720825,0.01852554827928543,-2.8116610050201416,1017.5823,
2021.02.11 16:36:08,44.0,35.0,10.8,-31.56,-29.82,-0.18195933,0.90979666,9.749189,-0.0061086523,-0.009162978,6.1086525E-4,-0.09303463250398636,0.018661880865693092,-2.7981081008911133,1017.5823,
2021.02.11 16:36:08,44.0,35.0,11.099999,-31.679998,-29.939999,-0.28491,0.89303726,9.560047,0.02321288,0.0,-0.0012217305,-0.09310208261013031,0.029793335124850273,-2.8003437519073486,1017.5823,
2021.02.11 16:36:08,44.0,35.0,10.92,-32.46,-30.72,-0.16519992,0.8690952,9.622296,0.0,-0.0036651916,0.021991149,-0.09006336331367493,0.01716676354408264,-2.8034439086914062,1017.5823,
2021.02.11 16:36:08,44.0,35.0,11.099999,-32.46,-30.72,-0.16759412,0.91219085,9.600749,-0.0030543262,6.1086525E-4,0.002443461,-0.09471375495195389,0.017454585060477257,-2.796602249145508,1017.5879,
2021.02.11 16:36:08,44.0,35.0,11.099999,-32.64,-30.599998,-0.20350714,0.91219085,9.600749,-0.004886922,0.020158553,-0.009773844,-0.0947069600224495,0.021193834021687508,-2.8020122051239014,1017.5879,
2021.02.11 16:36:08,44.0,35.0,10.98,-32.88,-30.48,-0.18914193,0.91697925,9.753978,-0.02443461,0.018325957,-0.008552114,-0.0937177836894989,0.0193888321518898,-2.8068699836730957,1017.5879,
2021.02.11 16:36:08,44.0,35.0,11.7,-32.64,-30.3,-0.24420857,0.90500826,9.634268,-0.0036651916,0.008552114,-0.009773844,-0.09363164007663727,0.025342484936118126,-2.7883219718933105,1017.5879,
2021.02.11 16:36:08,44.0,35.0,11.88,-32.64,-30.42,-0.29209262,0.92655605,9.67018,-0.0067195175,0.0012217305,-0.0012217305,-0.09548090398311615,0.03019631654024124,-2.786630630493164,1017.5945,
2021.02.11 16:36:08,44.0,35.0,12.0,-32.64,-30.96,-0.320823,0.94810385,9.813833,-0.0018325958,0.005497787,0.01282817,-0.09625892341136932,0.03267925977706909,-2.7849631309509277,1017.5945,
2021.02.11 16:36:08,44.0,35.0,12.0,-32.76,-31.019999,-0.19871874,0.92655605,9.545682,0.03970624,-6.1086525E-4,0.021991149,-0.09674151241779327,0.020814651623368263,-2.775239944458008,1017.5945,
2021.02.11 16:36:08,44.0,35.0,11.46,-32.579998,-30.72,-0.055066638,0.92176765,9.799467,0.029932396,0.03726278,0.021380283,-0.0937856063246727,0.005619291216135025,-2.77677059173584,1017.5945,
2021.02.11 16:36:08,44.0,35.0,10.559999,-32.219997,-30.66,-0.16280572,0.8499416,10.242394,0.05131268,0.070249505,-0.012217305,-0.08278260380029678,0.01589394174516201,-2.8132271766662598,1017.5957,
2021.02.11 16:36:08,44.0,35.0,9.78,-32.28,-30.42,-0.4357447,1.0271125,9.344569,0.16554448,0.044593163,-0.03176499,-0.10935809463262558,0.04659704118967056,-2.858586311340332,1017.5957,
2021.02.11 16:36:08,44.0,35.0,9.9,-31.92,-30.179998,-0.36870706,1.1683705,8.901642,0.12339478,-0.059864793,-0.01038471,-0.13039681315422058,0.041396453976631165,-2.8389008045196533,1017.5957,
2021.02.11 16:36:09,44.0,35.0,10.38,-32.46,-30.72,-0.15801731,0.9959879,9.215282,-0.0030543262,-0.014049901,0.03726278,-0.1076464056968689,0.017145629972219467,-2.8136134147644043,1017.5957,
2021.02.11 16:36:09,44.0,35.0,11.099999,-32.52,-30.599998,-0.08140286,0.9792285,9.840169,-0.13194689,0.007330383,0.02076942,-0.09918345510959625,0.008272317238152027,-2.787282705307007,1017.59985,
2021.02.11 16:36:09,44.0,35.0,11.58,-32.7,-30.3,-0.11252748,1.0127473,9.935937,-0.11056661,-0.015271631,-0.004276057,-0.10157043486833572,0.011324817314743996,-2.7770631313323975,1017.59985,
2021.02.11 16:36:09,44.0,35.0,11.46,-32.82,-30.06,-0.23942018,1.0295067,9.703699,-0.05131268,-0.029932396,-0.03848451,-0.10566693544387817,0.024668078869581223,-2.7925076484680176,1017.59985,
2021.02.11 16:36:09,44.0,35.0,11.099999,-32.52,-30.06,-0.260968,0.9935937,9.627085,-0.02565634,-0.036651913,-0.02076942,-0.10280653089284897,0.027101049199700356,-2.8034074306488037,1017.59985,
2021.02.11 16:36:09,44.0,35.0,11.16,-32.219997,-29.939999,-0.272939,0.9696517,9.7324295,-0.025045475,0.004886922,-0.026267206,-0.09926452487707138,0.0280369333922863,-2.800518751144409,1017.59424,
2021.02.11 16:36:09,44.0,35.0,11.4,-32.16,-30.06,-0.30166942,0.9576807,9.694122,-0.021380283,0.007330383,-0.02443461,-0.09842298924922943,0.031108755618333817,-2.7956302165985107,1017.59424,
2021.02.11 16:36:09,44.0,35.0,11.7,-32.399998,-30.42,-0.2873042,0.9816227,9.746795,-0.004276057,6.1086525E-4,-0.017104227,-0.10033062100410461,0.029468253254890442,-2.7868940830230713,1017.59424,
2021.02.11 16:36:09,44.0,35.0,11.28,-32.28,-30.24,-0.24660277,0.9672575,9.528923,0.017104227,0.0036651916,-6.1086525E-4,-0.10112740844488144,0.025873620063066483,-2.794764995574951,1017.59424,
2021.02.11 16:36:09,44.0,35.0,11.4,-32.34,-30.24,-0.24420857,0.90261406,9.581595,-0.01038471,-0.02687807,0.02565634,-0.09389540553092957,0.02548173815011978,-2.794081449508667,1017.5752,
2021.02.11 16:36:09,44.0,35.0,11.4,-31.98,-30.599998,-0.074220255,0.80684596,9.742006,-0.02443461,0.005497787,0.020158553,-0.08263035118579865,0.007618432864546776,-2.7779083251953125,1017.5752,
2021.02.11 16:36:09,44.0,35.0,11.219999,-31.859999,-30.72,-0.17956513,0.866701,9.691729,0.004886922,6.1086525E-4,-0.020158553,-0.08917439728975296,0.01852554827928543,-2.7894434928894043,1017.5752,
2021.02.11 16:36:09,44.0,35.0,11.82,-32.04,-30.599998,-0.23942018,0.92655605,9.624691,0.029932396,-0.004886922,-0.022602014,-0.0959434062242508,0.02487049251794815,-2.776621103286743,1017.5752,
2021.02.11 16:36:09,44.0,35.0,11.639999,-32.46,-30.24,-0.23463176,0.9528923,9.607931,0.03176499,-0.015271631,0.0018325958,-0.0988251343369484,0.02441578172147274,-2.7853927612304688,1017.57764,
2021.02.11 16:36:09,44.0,35.0,11.58,-32.64,-29.58,-0.15562311,0.91697925,9.631873,0.032986723,-0.0421497,6.1086525E-4,-0.09490420669317245,0.01615569181740284,-2.783609390258789,1017.57764,
2021.02.11 16:36:09,44.0,35.0,11.5199995,-31.859999,-29.34,-0.22026655,0.92655605,9.495404,0.0421497,-0.034208454,-0.002443461,-0.0972454771399498,0.023193014785647392,-2.782119035720825,1017.57764,
2021.02.11 16:36:09,44.0,35.0,11.16,-31.679998,-29.34,-0.16519992,1.0223241,9.677363,0.014049901,-0.06536258,0.0036651916,-0.10523518174886703,0.017069099470973015,-2.782625675201416,1017.57764,
2021.02.11 16:36:09,44.0,35.0,11.04,-31.439999,-29.64,-0.10055647,0.9888053,9.600749,0.007941248,-0.029932396,0.015882496,-0.1026250571012497,0.010473432019352913,-2.778355121612549,1017.5813,
2021.02.11 16:36:09,44.0,35.0,10.92,-31.56,-30.119999,-0.20829555,0.93373865,9.562442,-0.0012217305,-0.036651913,0.017715093,-0.09731494635343552,0.02177922986447811,-2.795563220977783,1017.5813,
2021.02.11 16:36:09,44.0,35.0,11.04,-32.34,-30.359999,-0.17956513,1.0031705,9.560047,-0.0030543262,-0.06291912,0.0012217305,-0.10453271120786667,0.01878066174685955,-2.794905185699463,1017.5813,
2021.02.11 16:36:09,44.0,35.0,11.04,-32.34,-30.359999,0.009576807,1.0223241,9.67018,-0.026267206,-0.053145275,0.028710667,-0.10532795637845993,-9.903437457978725E-4,-2.7765941619873047,1017.5813,
2021.02.11 16:36:09,44.0,35.0,11.16,-32.46,-30.359999,0.011971008,0.9672575,9.603143,-0.03481932,-0.057421334,0.022602014,-0.10038437694311142,-0.001246571191586554,-2.7760353088378906,1017.58203,
2021.02.11 16:36:09,44.0,35.0,11.16,-32.579998,-30.599998,0.023942016,0.93613285,9.701305,-0.03726278,-0.039095376,0.0036651916,-0.09619742631912231,-0.002467912156134844,-2.777611255645752,1017.58203,
2021.02.11 16:36:09,44.0,35.0,10.98,-32.16,-30.84,0.088585466,0.8882488,9.622296,-0.02687807,-0.012217305,0.017104227,-0.09204676747322083,-0.009206010960042477,-2.773427724838257,1017.58203,
2021.02.11 16:36:09,44.0,35.0,11.34,-32.399998,-30.66,-0.12928689,0.93134445,9.651027,-0.015882496,0.009162978,-0.015271631,-0.09619562327861786,0.013395378366112709,-2.7844948768615723,1017.58203,
2021.02.11 16:36:10,44.0,35.0,11.28,-32.579998,-30.84,-0.062249243,0.90740246,9.627085,-0.01282817,-0.01160644,-0.007330383,-0.09397556632757187,0.006465963087975979,-2.7826874256134033,1017.5769,
2021.02.11 16:36:10,44.0,35.0,10.98,-32.399998,-30.72,0.019153614,0.89782566,9.653421,-0.009773844,-0.018325957,0.0018325958,-0.09273898601531982,-0.00198412430472672,-2.78254771232605,1017.5769,
2021.02.11 16:36:10,44.0,35.0,11.04,-32.34,-30.599998,-0.023942016,0.90500826,9.56723,-0.007941248,0.0018325958,-0.010995574,-0.09431365877389908,0.0025024970527738333,-2.783677577972412,1017.5769,
2021.02.11 16:36:10,44.0,35.0,10.26,-32.34,-30.42,-0.074220255,0.93134445,9.619903,-0.02076942,-0.0067195175,-0.02076942,-0.09651068598031998,0.00771512882784009,-2.8114113807678223,1017.5769,
2021.02.11 16:36:10,44.0,35.0,10.0199995,-32.04,-30.359999,0.011971008,0.8882488,9.689334,-0.035430185,-0.007941248,-0.005497787,-0.09141725301742554,-0.0012354825157672167,-2.8092055320739746,1017.5818,
2021.02.11 16:36:10,44.0,35.0,10.32,-32.16,-30.0,-0.035913024,0.81642276,9.588778,-0.02565634,-0.0030543262,-0.0036651916,-0.08493811637163162,0.0037453006953001022,-2.8084237575531006,1017.5818,
2021.02.11 16:36:10,44.0,35.0,10.32,-32.399998,-30.119999,-0.016759412,0.85473,9.564836,-0.02443461,-0.013439035,-6.1086525E-4,-0.08912482857704163,0.0017521885456517339,-2.8075971603393555,1017.5818,
2021.02.11 16:36:10,44.0,35.0,10.86,-32.46,-30.179998,0.079008654,0.8331822,9.792285,-0.03848451,-0.047647487,-0.007330383,-0.08487838506698608,-0.008068284019827843,-2.784850835800171,1017.5818,
2021.02.11 16:36:10,44.0,35.0,11.219999,-32.579998,-30.0,-0.074220255,0.85473,9.725247,-0.022602014,-0.040927973,-0.010995574,-0.08765994757413864,0.007631560787558556,-2.7884833812713623,1017.5823,
2021.02.11 16:36:10,44.0,35.0,11.04,-32.579998,-30.42,-0.11731588,0.8762778,9.720459,-0.0061086523,-0.049480084,-0.0036651916,-0.0898982584476471,0.012068379670381546,-2.796691417694092,1017.5823,
2021.02.11 16:36:10,44.0,35.0,10.559999,-32.399998,-30.3,0.093373865,0.8331822,9.619903,0.015271631,-0.04153884,0.0061086523,-0.08639062196016312,-0.009706016629934311,-2.7909438610076904,1017.5823,
2021.02.11 16:36:10,44.0,35.0,10.559999,-32.16,-30.72,0.12689269,0.8379706,9.773131,0.01038471,-0.03848451,0.021991149,-0.08552590757608414,-0.012983102351427078,-2.7851593494415283,1017.5823,
2021.02.11 16:36:10,44.0,35.0,10.2,-32.04,-30.72,0.023942016,0.8858546,9.689334,0.045814894,-0.065973446,0.004886922,-0.0911720022559166,-0.0024709610734134912,-2.8022711277008057,1017.57544,
2021.02.11 16:36:10,44.0,35.0,10.0199995,-31.98,-30.359999,0.21787235,0.93373865,8.944737,0.06963864,-0.09468412,6.1086525E-4,-0.10398238152265549,-0.02435278706252575,-2.782808542251587,1017.57544,
2021.02.11 16:36:10,44.0,35.0,10.26,-31.859999,-30.599998,-0.1340753,0.6584055,9.801862,0.0,0.15393804,-0.0036651916,-0.06706446409225464,0.013677701354026794,-2.821932315826416,1017.57544,
2021.02.11 16:36:10,44.0,35.0,10.0199995,-31.859999,-30.119999,0.24899697,0.830788,10.237606,-0.002443461,-0.09590584,0.021380283,-0.0809493437409401,-0.024317001923918724,-2.790412664413452,1017.57544,
2021.02.11 16:36:10,44.0,35.0,10.559999,-31.98,-30.179998,0.21547815,1.0702082,9.52174,0.12461651,-0.09040806,-0.03176499,-0.11189812421798706,-0.02262626215815544,-2.7651822566986084,1017.5796,
