Time,X-cord,Y-cord,Mag_x,Mag_y,Mag_z,Acc_x,Acc_y,Acc_z,Gyro_x,Gyro_y,Gyro_z,Orn_x,Orn_y,Orn_z,Pressure,
2021.02.11 16:45:29,10.0,16.0,5.2799997,-31.74,-38.64,0.07182605,0.32800564,10.386047,-0.030543262,-0.23396139,0.06658431,-0.031570129096508026,-0.006915518548339605,-2.9617202281951904,1017.45825,
2021.02.11 16:45:29,10.0,16.0,5.4,-31.8,-38.46,-0.34237084,0.5386954,9.49301,0.18142697,0.017104227,-0.01038471,-0.05664898455142975,0.03604994714260101,-3.0067572593688965,1017.45825,
2021.02.11 16:45:29,10.0,16.0,5.2799997,-32.16,-38.16,-0.47405192,0.4405331,9.052477,0.20525073,0.08002335,-0.022602014,-0.04855957627296448,0.05231930688023567,-3.0337085723876953,1017.45825,
2021.02.11 16:45:29,10.0,16.0,5.8799996,-32.28,-37.739998,-0.260968,0.3184288,9.706094,-0.022602014,0.0018325958,0.08307768,-0.032783497124910355,0.026880551129579544,-2.9860763549804688,1017.45825,
2021.02.11 16:45:29,10.0,16.0,5.7,-32.34,-38.1,-0.20590134,0.35194764,9.572019,-0.01038471,-0.05375614,0.08246681,-0.03674333170056343,0.02150743640959263,-2.985050916671753,1017.4585,
2021.02.11 16:45:29,10.0,16.0,5.64,-32.579998,-38.04,-0.050278235,0.37110126,9.390059,0.092240654,-0.013439035,0.081855945,-0.03949952870607376,0.005354359280318022,-2.968276023864746,1017.4585,
2021.02.11 16:45:29,10.0,16.0,5.52,-32.34,-38.04,0.059855044,0.36631286,9.818622,0.017104227,0.008552114,0.08002335,-0.03728998452425003,-0.006095998454838991,-2.9575605392456055,1017.4585,
2021.02.11 16:45:29,10.0,16.0,5.46,-32.219997,-38.579998,0.055066638,0.35194764,9.892841,-0.029932396,-0.027488936,0.040317107,-0.03556044399738312,-0.005566254258155823,-2.959561824798584,1017.4585,
2021.02.11 16:45:29,10.0,16.0,5.64,-32.34,-38.219997,-0.25617957,0.39743748,9.636662,0.026267206,0.021380283,-0.02565634,-0.041204340755939484,0.02657759003341198,-2.9923064708709717,1017.44775,
2021.02.11 16:45:29,10.0,16.0,5.7599998,-32.04,-38.28,-0.4357447,0.50038815,9.320627,0.08735373,-6.1086525E-4,-0.044593163,-0.05357620492577553,0.046716559678316116,-3.009857654571533,1017.44775,
2021.02.11 16:45:29,10.0,16.0,6.18,-32.34,-38.76,-0.35913026,0.48362875,9.435549,0.002443461,0.03726278,-0.022602014,-0.05117422342300415,0.03804304078221321,-2.987682580947876,1017.44775,
2021.02.11 16:45:29,10.0,16.0,5.58,-32.34,-38.76,-0.32800564,0.46208093,9.720459,-0.069027774,0.028710667,0.008552114,-0.0474742092192173,0.033731043338775635,-3.0023105144500732,1017.44775,
2021.02.11 16:45:29,10.0,16.0,5.52,-32.1,-38.879997,-0.2633622,0.46447513,9.698911,-0.06169739,0.05375614,0.02076942,-0.04783524200320244,0.027147121727466583,-2.9948744773864746,1017.4592,
2021.02.11 16:45:29,10.0,16.0,5.4,-32.219997,-38.64,-0.23942018,0.4333505,9.854534,-0.051923547,0.048258353,0.027488936,-0.04393346980214119,0.024290654808282852,-2.9963321685791016,1017.4592,
2021.02.11 16:45:29,10.0,16.0,4.98,-32.1,-38.52,-0.1364695,0.45729253,9.725247,-0.009162978,-0.02321288,0.029321533,-0.046981945633888245,0.014031575992703438,-2.995899200439453,1017.4592,
2021.02.11 16:45:29,10.0,16.0,5.2799997,-31.92,-38.94,-0.21787235,0.46447513,9.514558,0.03604105,-0.020158553,0.0061086523,-0.04876582324504852,0.02289484068751335,-2.9962801933288574,1017.4592,
2021.02.11 16:45:29,10.0,16.0,5.58,-32.16,-38.7,-0.25857377,0.5363012,9.682152,0.009162978,0.01038471,0.004276057,-0.055314477533102036,0.026699883863329887,-2.9910619258880615,1017.4573,
2021.02.11 16:45:29,10.0,16.0,5.22,-31.98,-39.12,-0.31603462,0.58897364,9.880871,-6.1086525E-4,-0.015882496,-0.002443461,-0.05950665846467018,0.03197358921170235,-3.008322238922119,1017.4573,
2021.02.11 16:45:29,10.0,16.0,5.46,-31.98,-38.879997,-0.23223756,0.60094464,9.653421,0.03604105,-0.01160644,0.007941248,-0.06215381622314453,0.024052899330854416,-2.9894230365753174,1017.4573,
2021.02.11 16:45:29,10.0,16.0,5.46,-32.46,-38.28,-0.16280572,0.47405192,9.552865,0.04153884,-0.018325957,0.023823744,-0.04957619681954384,0.017040956765413284,-2.9853694438934326,1017.4573,
2021.02.11 16:45:29,10.0,16.0,4.8599997,-32.28,-38.16,0.02633622,0.36870706,9.533711,0.026267206,-0.03604105,0.028710667,-0.038654621690511703,-0.0027624238282442093,-2.9816603660583496,1017.4592,
2021.02.11 16:45:29,10.0,16.0,4.7999997,-32.16,-37.739998,-0.045489833,0.3878607,9.500193,0.014660766,-0.004886922,-0.025045475,-0.04080348461866379,0.004788269754499197,-2.9917337894439697,1017.4592,
2021.02.11 16:45:30,10.0,16.0,4.68,-32.28,-37.739998,-0.2705448,0.5243302,9.588778,0.0036651916,0.0018325958,-0.06963864,-0.05460555851459503,0.02820724993944168,-3.022364616394043,1017.4592,
2021.02.11 16:45:30,10.0,16.0,4.68,-32.16,-37.68,-0.37110126,0.6512229,9.646238,-0.002443461,-0.017715093,-0.06047566,-0.0673585906624794,0.03845212236046791,-3.0327508449554443,1017.4592,
2021.02.11 16:45:30,10.0,16.0,4.68,-31.92,-38.28,-0.40701428,0.7254431,9.68694,-0.0061086523,-0.007330383,-0.04153884,-0.07468360662460327,0.041992105543613434,-3.0360262393951416,1017.46265,
2021.02.11 16:45:30,10.0,16.0,4.8599997,-32.219997,-38.399998,-0.20829555,0.61530983,9.67018,0.0030543262,-0.008552114,-0.009162978,-0.06352925300598145,0.021536655724048615,-3.006711959838867,1017.46265,
2021.02.11 16:45:30,10.0,16.0,5.2799997,-32.28,-38.399998,-0.095768064,0.49081135,9.562442,0.02443461,0.002443461,-0.0012217305,-0.051279421895742416,0.010014687664806843,-2.98124623298645,1017.46265,
2021.02.11 16:45:30,10.0,16.0,5.2799997,-32.1,-38.579998,-0.22984336,0.5626374,9.64145,0.005497787,-0.007941248,-0.029321533,-0.058273471891880035,0.023834573104977608,-2.996306896209717,1017.46265,
2021.02.11 16:45:30,10.0,16.0,5.3399997,-32.04,-38.52,-0.30406362,0.6679823,9.643845,-0.0018325958,-0.028710667,-0.036651913,-0.06912045180797577,0.031518854200839996,-3.0017449855804443,1017.4553,
2021.02.11 16:45:30,10.0,16.0,5.7,-32.16,-38.34,-0.31364042,0.59376204,9.701305,-0.002443461,0.02076942,-0.028710667,-0.061096251010894775,0.03231845796108246,-2.9928407669067383,1017.4553,
2021.02.11 16:45:30,10.0,16.0,5.2799997,-31.859999,-38.579998,-0.22505496,0.59376204,9.607931,0.007330383,-0.02687807,-0.009162978,-0.06170378252863884,0.023419590666890144,-2.993929862976074,1017.4553,
2021.02.11 16:45:30,10.0,16.0,5.04,-31.98,-38.46,-0.22744916,0.5793968,9.624691,0.01160644,-6.1086525E-4,-0.008552114,-0.0601096972823143,0.023627443239092827,-3.002986192703247,1017.4553,
2021.02.11 16:45:30,10.0,16.0,4.8599997,-32.04,-38.28,-0.15562311,0.5674258,9.634268,0.004276057,-0.018325957,0.004276057,-0.05882100388407707,0.016151675954461098,-2.999894142150879,1017.44946,
2021.02.11 16:45:30,10.0,16.0,4.68,-31.859999,-38.94,-0.2657564,0.61291564,9.639056,0.016493361,-0.019547688,-0.009162978,-0.06347712874412537,0.027563806623220444,-3.0192458629608154,1017.44946,
2021.02.11 16:45:30,10.0,16.0,4.68,-32.1,-38.879997,-0.21547815,0.5722142,9.730036,0.014049901,0.002443461,0.0,-0.05872702971100807,0.02214204892516136,-3.0139832496643066,1017.44946,
2021.02.11 16:45:30,10.0,16.0,4.7999997,-32.04,-38.879997,-0.20590134,0.58897364,9.710882,0.015882496,-0.018325957,-0.01038471,-0.0605631023645401,0.02119997888803482,-3.008209466934204,1017.44946,
2021.02.11 16:45:30,10.0,16.0,5.3399997,-32.579998,-38.399998,-0.1316811,0.5674258,9.572019,0.044593163,-0.012217305,-0.004276057,-0.05920475348830223,0.013756010681390762,-2.9838459491729736,1017.4553,
2021.02.11 16:45:30,10.0,16.0,5.52,-33.12,-37.8,-0.14604631,0.46926352,9.622296,0.043982297,0.008552114,-0.0061086523,-0.04872414469718933,0.015176740474998951,-2.9845616817474365,1017.4553,
2021.02.11 16:45:30,10.0,16.0,5.16,-32.94,-37.559998,-0.17956513,0.51235914,9.497798,0.017715093,-0.01160644,-0.009773844,-0.05388319492340088,0.01890372298657894,-2.9984290599823,1017.4553,
2021.02.11 16:45:30,10.0,16.0,5.16,-33.3,-37.92,-0.22266077,0.5746084,9.481039,0.03359759,0.0030543262,-0.021991149,-0.06051537021994591,0.023480532690882683,-3.004500150680542,1017.4553,
2021.02.11 16:45:30,10.0,16.0,4.8599997,-32.94,-38.34,-0.21787235,0.6512229,9.64145,-0.009162978,-0.009162978,-0.01038471,-0.0674244835972786,0.022593621164560318,-3.0104730129241943,1017.4531,
2021.02.11 16:45:30,10.0,16.0,4.68,-32.7,-38.46,-0.22505496,0.6560113,9.643845,-0.013439035,-0.014049901,-0.007941248,-0.06790076941251755,0.02333240956068039,-3.0162408351898193,1017.4531,
2021.02.11 16:45:30,10.0,16.0,5.58,-33.3,-38.579998,-0.110133275,0.5386954,9.691729,0.0,0.015271631,0.010995574,-0.05552229285240173,0.01136314682662487,-2.977783203125,1017.4531,
2021.02.11 16:45:30,10.0,16.0,5.52,-33.239998,-38.28,-0.06943185,0.5650316,9.674969,-0.004886922,-0.0067195175,-0.008552114,-0.0583336241543293,0.00717631820589304,-2.9737131595611572,1017.4531,
2021.02.11 16:45:30,10.0,16.0,5.4,-33.239998,-37.86,-0.24181437,0.5722142,9.636662,0.0061086523,-0.0012217305,-0.030543262,-0.05929062142968178,0.025087904185056686,-2.998749017715454,1017.44824,
2021.02.11 16:45:30,10.0,16.0,5.22,-33.059998,-37.68,-0.12928689,0.58897364,9.583989,0.009773844,0.009773844,-0.01160644,-0.06137116253376007,0.013489063829183578,-2.989234209060669,1017.44824,
2021.02.11 16:45:30,10.0,16.0,5.04,-32.76,-37.739998,-0.23942018,0.62488663,9.706094,-0.014049901,-0.01038471,-0.02565634,-0.06427263468503952,0.024661993607878685,-3.006671667098999,1017.44824,
2021.02.11 16:45:31,10.0,16.0,5.3399997,-32.88,-37.5,-0.21787235,0.61052144,9.720459,-0.007330383,0.01282817,-0.018325957,-0.06270977854728699,0.022410038858652115,-2.994964122772217,1017.44824,
2021.02.11 16:45:31,10.0,16.0,5.1,-32.7,-37.8,-0.11252748,0.5602432,9.706094,0.013439035,0.005497787,-0.004886922,-0.057652927935123444,0.011592969298362732,-2.9897568225860596,1017.4512,
2021.02.11 16:45:31,10.0,16.0,5.58,-33.0,-37.92,-0.1604115,0.58897364,9.595961,0.025045475,0.0030543262,-0.021380283,-0.061291806399822235,0.01671500876545906,-2.9814140796661377,1017.4512,
2021.02.11 16:45:31,10.0,16.0,5.46,-33.12,-37.86,-0.1604115,0.60573304,9.574412,0.007330383,0.002443461,-0.02321288,-0.06317276507616043,0.01675262115895748,-2.9854931831359863,1017.4512,
2021.02.11 16:45:31,10.0,16.0,5.2799997,-33.0,-37.739998,-0.17238252,0.61770403,9.706094,0.0030543262,0.0030543262,-0.020158553,-0.06354513764381409,0.017758367583155632,-2.9917638301849365,1017.4512,
2021.02.11 16:45:31,10.0,16.0,6.18,-33.36,-37.739998,-0.20111294,0.5506664,9.763555,0.0061086523,0.015271631,-0.019547688,-0.05632858723402023,0.02059542015194893,-2.970036506652832,1017.45557,
2021.02.11 16:45:31,10.0,16.0,5.8199997,-32.88,-37.98,-0.23223756,0.5626374,9.569624,0.03176499,0.023823744,-0.02565634,-0.058709241449832916,0.02426343970000744,-2.9828450679779053,1017.45557,
2021.02.11 16:45:31,10.0,16.0,5.7,-32.88,-37.92,-0.20829555,0.62488663,9.440337,0.020158553,-0.007330383,-0.02687807,-0.06608079373836517,0.02206083945930004,-2.9824650287628174,1017.45557,
2021.02.11 16:45:31,10.0,16.0,5.8799996,-32.88,-38.16,-0.15562311,0.61291564,9.765948,-0.016493361,0.004276057,6.1086525E-4,-0.06267033517360687,0.01593393087387085,-2.9700140953063965,1017.45557,
2021.02.11 16:45:31,10.0,16.0,5.3399997,-32.7,-38.28,-0.16280572,0.59855044,9.710882,0.0018325958,0.016493361,0.002443461,-0.061550576239824295,0.01676371693611145,-2.987673282623291,1017.4595,
2021.02.11 16:45:31,10.0,16.0,5.58,-32.94,-37.86,-0.22744916,0.62967503,9.593566,0.018936822,-0.0036651916,-0.012217305,-0.06552276760339737,0.02370407059788704,-2.988722801208496,1017.4595,
2021.02.11 16:45:31,10.0,16.0,5.58,-32.76,-37.92,-0.24660277,0.6727707,9.581595,0.010995574,0.009773844,-0.005497787,-0.07007671147584915,0.02573144994676113,-2.989438533782959,1017.4595,
2021.02.11 16:45:31,10.0,16.0,5.22,-32.7,-38.16,-0.22505496,0.6871359,9.631873,0.007941248,0.004276057,0.010995574,-0.07119977474212646,0.02336139790713787,-2.99784255027771,1017.4595,
2021.02.11 16:45:31,10.0,16.0,5.8199997,-33.059998,-38.04,-0.1604115,0.6943185,9.866506,-0.0061086523,0.023823744,0.017104227,-0.07024618983268738,0.016256755217909813,-2.97161602973938,1017.47754,
2021.02.11 16:45:31,10.0,16.0,5.8799996,-33.239998,-37.98,-0.28491,0.6847417,9.660604,0.029321533,0.007330383,0.0030543262,-0.07073082029819489,0.029483400285243988,-2.986654043197632,1017.47754,
2021.02.11 16:45:31,10.0,16.0,6.24,-33.42,-38.04,-0.14604631,0.6488287,9.490616,0.04337143,0.0030543262,0.01282817,-0.06825101375579834,0.015387282706797123,-2.959707260131836,1017.47754,
2021.02.11 16:45:31,10.0,16.0,6.3599997,-33.36,-38.46,-0.22026655,0.6488287,9.574412,0.030543262,0.01160644,0.015271631,-0.06764564663171768,0.023001693189144135,-2.9650070667266846,1017.47754,
2021.02.11 16:45:31,10.0,16.0,5.8799996,-33.36,-37.98,-0.24899697,0.7374141,9.662998,0.009773844,0.009773844,-0.004886922,-0.0761403739452362,0.02576238475739956,-2.981605052947998,1017.4751,
2021.02.11 16:45:31,10.0,16.0,6.06,-33.36,-38.399998,-0.2657564,0.7493851,9.610326,0.014660766,0.010995574,0.0061086523,-0.07778999209403992,0.027646169066429138,-2.977976083755493,1017.4751,
2021.02.11 16:45:31,10.0,16.0,5.7,-33.059998,-38.579998,-0.18195933,0.7350199,9.65821,0.0061086523,0.002443461,0.015271631,-0.07594328373670578,0.01883763261139393,-2.9775044918060303,1017.4751,
2021.02.11 16:45:31,10.0,16.0,6.06,-33.78,-38.04,-0.15562311,0.7062895,9.552865,0.01038471,0.010995574,0.009773844,-0.07379081100225449,0.016289284452795982,-2.9672110080718994,1017.4751,
2021.02.11 16:45:31,10.0,16.0,6.06,-33.78,-38.64,-0.19153613,0.6799533,9.61272,-0.004276057,0.009773844,-6.1086525E-4,-0.07060316950082779,0.019922643899917603,-2.972402334213257,1017.469,
2021.02.11 16:45:31,10.0,16.0,5.7599998,-33.899998,-38.399998,-0.2753332,0.6919243,9.682152,-0.0061086523,0.015271631,-0.004886922,-0.07131388038396835,0.028429530560970306,-2.9925122261047363,1017.469,
2021.02.11 16:45:31,10.0,16.0,6.0,-34.26,-37.8,-0.39025488,0.7398083,9.473856,0.009162978,0.004886922,-0.012217305,-0.07786554098129272,0.04116955026984215,-3.0002570152282715,1017.469,
2021.02.11 16:45:31,10.0,16.0,5.8799996,-34.02,-38.1,-0.23463176,0.7613561,9.564836,-0.018325957,0.0012217305,0.019547688,-0.07940822839736938,0.02452574484050274,-2.982839584350586,1017.469,
2021.02.11 16:45:32,10.0,16.0,6.0,-34.079998,-37.68,-0.16998832,0.6991069,9.7803135,-0.029932396,0.016493361,0.02687807,-0.07134891301393509,0.01737891137599945,-2.972480058670044,1017.4697,
2021.02.11 16:45:32,10.0,16.0,6.12,-33.78,-37.739998,-0.21787235,0.7134721,9.617508,-0.0067195175,-0.005497787,0.0012217305,-0.07403015345335007,0.022649846971035004,-2.9727942943573,1017.4697,
2021.02.11 16:45:32,10.0,16.0,6.42,-33.6,-37.98,-0.24899697,0.7182605,9.651027,-0.009162978,0.014049901,-0.0012217305,-0.07426165044307709,0.02579432912170887,-2.9661457538604736,1017.4697,
2021.02.11 16:45:32,10.0,16.0,6.0,-33.6,-37.559998,-0.12928689,0.7589619,9.68694,-0.015882496,-0.009773844,0.002443461,-0.07818232476711273,0.013345722109079361,-2.963569164276123,1017.4697,
2021.02.11 16:45:32,10.0,16.0,6.0,-33.36,-37.98,-0.21308395,0.7038953,9.603143,-0.0018325958,0.004886922,-0.023823744,-0.07314963638782501,0.02218533866107464,-2.9740514755249023,1017.4695,
2021.02.11 16:45:32,10.0,16.0,5.7599998,-33.239998,-38.1,-0.11252748,0.58897364,9.7084875,-0.018325957,0.009162978,-0.0067195175,-0.06058753654360771,0.011590111069381237,-2.970984935760498,1017.4695,
2021.02.11 16:45:32,10.0,16.0,5.64,-33.3,-38.1,-0.521936,0.80205756,9.437943,0.010995574,-0.016493361,-0.0580322,-0.08464981615543365,0.05524560436606407,-3.0243031978607178,1017.4695,
2021.02.11 16:45:32,10.0,16.0,6.06,-32.82,-38.34,-0.40462008,0.7541735,9.825804,-0.022602014,0.01038471,-0.0061086523,-0.07653956860303879,0.04115608334541321,-2.992340087890625,1017.4695,
2021.02.11 16:45:32,10.0,16.0,6.48,-33.42,-37.92,-0.1436521,0.6607997,9.883265,-0.027488936,-0.01160644,0.039095376,-0.06675408035516739,0.014533859677612782,-2.9515044689178467,1017.47046,
2021.02.11 16:45:32,10.0,16.0,6.66,-33.42,-37.8,-0.076614454,0.58657944,9.3733,0.031154128,-0.013439035,0.007330383,-0.06249624490737915,0.008173509500920773,-2.9394638538360596,1017.47046,
2021.02.11 16:45:32,10.0,16.0,6.48,-33.48,-37.559998,-0.11252748,0.60094464,9.564836,-0.004886922,-0.019547688,-0.007330383,-0.06274174153804779,0.0117641631513834,-2.9495654106140137,1017.47046,
2021.02.11 16:45:32,10.0,16.0,6.48,-33.54,-37.32,-0.29688102,0.6823475,9.7803135,-0.022602014,0.014660766,-0.029321533,-0.06962261348962784,0.030345642939209938,-2.970047950744629,1017.47046,
2021.02.11 16:45:32,10.0,16.0,5.8199997,-32.94,-37.62,-0.32561144,0.78529817,9.799467,-0.013439035,-0.017715093,-0.028710667,-0.07992202043533325,0.0332152433693409,-2.9895942211151123,1017.47144,
2021.02.11 16:45:32,10.0,16.0,6.06,-33.12,-37.26,-0.21547815,0.6895301,9.636662,0.009773844,-0.004276057,-0.010995574,-0.07141327112913132,0.02235652506351471,-2.971187114715576,1017.47144,
2021.02.11 16:45:32,10.0,16.0,6.12,-33.239998,-37.8,-0.08379706,0.58418524,9.61272,0.004886922,-0.015882496,0.005497787,-0.060695160180330276,0.008717088960111141,-2.9562525749206543,1017.47144,
2021.02.11 16:45:32,10.0,16.0,6.12,-33.18,-38.34,-0.19871874,0.61052144,9.67018,0.0,-0.0018325958,-0.018325957,-0.06303748488426208,0.020546749234199524,-2.969611883163452,1017.47144,
2021.02.11 16:45:32,10.0,16.0,6.42,-33.239998,-38.16,-0.2753332,0.6823475,9.703699,-0.012217305,-0.007941248,-0.036651913,-0.07017457485198975,0.028366433456540108,-2.9682607650756836,1017.47144,
2021.02.11 16:45:32,10.0,16.0,5.8199997,-33.48,-38.46,-0.34955344,0.7445967,9.600749,-0.0018325958,-0.0018325958,-0.029321533,-0.07735011726617813,0.036392901092767715,-2.9972832202911377,1017.47144,
2021.02.11 16:45:32,10.0,16.0,5.8199997,-33.36,-38.46,-0.29448682,0.6512229,9.765948,-0.004276057,-0.0067195175,-0.015882496,-0.06655427813529968,0.030145317316055298,-2.9910964965820312,1017.47144,
2021.02.11 16:45:32,10.0,16.0,5.58,-33.6,-38.399998,-0.02633622,0.5386954,9.643845,6.1086525E-4,-0.004276057,0.013439035,-0.05580078810453415,0.002730877138674259,-2.968989610671997,1017.47144,
2021.02.11 16:45:32,10.0,16.0,5.52,-33.6,-38.579998,-0.074220255,0.5267244,9.627085,0.005497787,0.012217305,-0.02076942,-0.05465664714574814,0.007709372788667679,-2.9769880771636963,1017.47534,
2021.02.11 16:45:32,10.0,16.0,5.94,-33.239998,-38.399998,-0.36152446,0.6751649,9.629479,0.0012217305,-0.0012217305,-0.05497787,-0.06995069235563278,0.03752588480710983,-2.995079517364502,1017.47534,
2021.02.11 16:45:32,10.0,16.0,6.12,-33.0,-38.219997,-0.37828386,0.7062895,9.696517,-0.007941248,0.009773844,-0.019547688,-0.07265602052211761,0.03899256885051727,-2.9892325401306152,1017.47534,
2021.02.11 16:45:32,10.0,16.0,6.42,-33.059998,-37.98,-0.22984336,0.61052144,9.564836,-6.1086525E-4,-0.01038471,0.008552114,-0.06372497230768204,0.024025414139032364,-2.963372230529785,1017.47534,
2021.02.11 16:45:32,10.0,16.0,6.24,-33.48,-37.92,-0.18435353,0.581791,9.698911,-0.016493361,0.0061086523,0.004276057,-0.059902604669332504,0.019005363807082176,-2.9662232398986816,1017.4734,
2021.02.11 16:45:33,10.0,16.0,6.06,-33.42,-38.28,-0.19632454,0.61291564,9.773131,-0.01160644,0.01038471,-0.005497787,-0.06261973083019257,0.020085491240024567,-2.9723188877105713,1017.4734,
2021.02.11 16:45:33,10.0,16.0,6.18,-33.48,-37.92,-0.24181437,0.6488287,9.49301,0.013439035,-0.02076942,-0.010995574,-0.068219855427742,0.02546738088130951,-2.973987340927124,1017.4734,
2021.02.11 16:45:33,10.0,16.0,5.7599998,-33.0,-37.92,-0.10534488,0.6344634,9.873688,-0.029932396,0.025045475,0.007941248,-0.06416613608598709,0.010668848641216755,-2.967768669128418,1017.4734,
2021.02.11 16:45:33,10.0,16.0,6.06,-32.579998,-38.34,-0.1364695,0.5793968,9.6845455,0.002443461,-6.1086525E-4,-0.01038471,-0.059749800711870193,0.014090538956224918,-2.960994005203247,1017.4668,
2021.02.11 16:45:33,10.0,16.0,6.2999997,-33.239998,-38.04,-0.2873042,0.62009823,9.502586,0.020158553,0.007330383,-0.02687807,-0.06513366103172302,0.030225107446312904,-2.975371837615967,1017.4668,
2021.02.11 16:45:33,10.0,16.0,6.3599997,-33.18,-38.28,-0.31124622,0.60573304,9.667787,-0.007941248,-0.0067195175,-0.007941248,-0.06254066526889801,0.03218303993344307,-2.9762399196624756,1017.4668,
2021.02.11 16:45:33,10.0,16.0,6.24,-33.66,-38.1,-0.2633622,0.61770403,9.698911,-0.007330383,0.0,0.01038471,-0.06357870995998383,0.027147119864821434,-2.976133108139038,1017.4668,
2021.02.11 16:45:33,10.0,16.0,6.06,-33.66,-37.92,-0.20111294,0.6655881,9.607931,-0.0012217305,-0.017104227,0.009773844,-0.06914926320314407,0.020928915590047836,-2.9730963706970215,1017.47,
2021.02.11 16:45:33,10.0,16.0,5.94,-33.3,-38.1,-0.110133275,0.60094464,9.744401,-0.01160644,-0.002443461,0.017715093,-0.0615888349711895,0.011301728896796703,-2.965092420578003,1017.47,
2021.02.11 16:45:33,10.0,16.0,5.7,-33.36,-38.04,-0.20350714,0.60333884,9.557653,0.0067195175,-0.012217305,-0.0030543262,-0.06302835047245026,0.021289367228746414,-2.9846291542053223,1017.47,
2021.02.11 16:45:33,10.0,16.0,6.0,-32.76,-38.399998,-0.2801216,0.6823475,9.634268,-0.0030543262,0.0,-0.01038471,-0.07067721337080002,0.029067356139421463,-2.980055093765259,1017.47,
2021.02.11 16:45:33,10.0,16.0,6.06,-33.059998,-38.16,-0.1436521,0.63206923,9.619903,-0.007330383,6.1086525E-4,0.008552114,-0.06560272723436356,0.0149316918104887,-2.963408946990967,1017.4707,
2021.02.11 16:45:33,10.0,16.0,5.7599998,-33.0,-38.28,-0.1436521,0.58897364,9.715671,-0.010995574,0.0018325958,0.005497787,-0.060540296137332916,0.014784530736505985,-2.97357439994812,1017.4707,
2021.02.11 16:45:33,10.0,16.0,5.7,-32.88,-38.82,-0.15562311,0.6512229,9.67018,-0.005497787,0.020158553,-0.017715093,-0.06723320484161377,0.01609170250594616,-2.9750704765319824,1017.4707,
2021.02.11 16:45:33,10.0,16.0,5.94,-33.48,-38.579998,-0.25617957,0.6631939,9.55047,0.015271631,0.021380283,-0.029321533,-0.06930481642484665,0.026817332953214645,-2.983302116394043,1017.4707,
2021.02.11 16:45:33,10.0,16.0,6.18,-32.94,-38.82,-0.24181437,0.63206923,9.629479,-6.1086525E-4,0.02565634,-0.015882496,-0.06552436202764511,0.025106607005000114,-2.971618175506592,1017.4812,
2021.02.11 16:45:33,10.0,16.0,6.2999997,-33.059998,-38.879997,-0.34237084,0.6703765,9.665392,-0.02076942,-0.0067195175,-0.009773844,-0.06920427829027176,0.03540754318237305,-2.9805195331573486,1017.4812,
2021.02.11 16:45:33,10.0,16.0,6.18,-33.12,-37.98,-0.2633622,0.6655881,9.885659,-0.015271631,0.018325957,-0.0012217305,-0.06720341742038727,0.02663453295826912,-2.9737138748168945,1017.4812,
2021.02.11 16:45:33,10.0,16.0,5.7599998,-32.94,-38.1,-0.11492168,0.59136784,9.701305,-0.0018325958,0.01038471,0.012217305,-0.060877956449985504,0.011845448054373264,-2.9695911407470703,1017.4812,
2021.02.11 16:45:33,10.0,16.0,5.7599998,-33.059998,-37.98,-0.10534488,0.6344634,9.665392,0.020158553,-0.04520403,-0.020158553,-0.06554488092660904,0.010898752138018608,-2.9680707454681396,1017.4861,
2021.02.11 16:45:33,10.0,16.0,5.58,-32.88,-37.68,-0.18674773,0.61052144,9.672575,0.028099801,-0.026267206,-0.019547688,-0.06302347779273987,0.019304532557725906,-2.9835150241851807,1017.4861,
2021.02.11 16:45:33,10.0,16.0,5.58,-33.12,-37.98,-0.22266077,0.641646,9.617508,0.026267206,-0.04886922,-0.032986723,-0.06659994274377823,0.023147473111748695,-2.988769292831421,1017.4861,
2021.02.11 16:45:33,10.0,16.0,5.8799996,-33.48,-37.68,-0.4357447,0.7134721,9.617508,0.020158553,-0.043982297,-0.035430185,-0.07397346943616867,0.04527647793292999,-3.0061419010162354,1017.4861,
2021.02.11 16:45:33,10.0,16.0,5.8199997,-33.36,-37.68,-0.17477672,0.641646,9.679757,0.019547688,-0.04642576,0.020158553,-0.06617981195449829,0.018053937703371048,-2.976210594177246,1017.4751,
2021.02.11 16:45:33,10.0,16.0,5.7599998,-33.12,-37.98,-0.08619126,0.6631939,9.76116,0.017104227,-0.08246681,0.03176499,-0.06783522665500641,0.008829792030155659,-2.965391159057617,1017.4751,
2021.02.11 16:45:34,10.0,16.0,5.4,-33.12,-38.34,-0.059855044,0.58657944,9.227253,0.043982297,-0.09162979,0.01160644,-0.06348355859518051,0.006486676633358002,-2.97491717338562,1017.4751,
2021.02.11 16:45:34,10.0,16.0,5.58,-32.64,-38.52,-0.4237737,0.545878,9.832987,-0.0030543262,0.093462385,0.0061086523,-0.05540672317147255,0.04307049885392189,-3.013662815093994,1017.4751,
2021.02.11 16:45:34,10.0,16.0,5.7,-33.0,-38.64,0.0047884034,0.63206923,10.398018,-0.031154128,-0.1301143,0.06169739,-0.06071275845170021,-4.605111316777766E-4,-2.956836462020874,1017.4646,
2021.02.11 16:45:34,10.0,16.0,6.3599997,-33.6,-38.76,0.3878607,0.8810662,9.878476,0.089186326,-0.28710666,-0.0012217305,-0.08888699114322662,-0.039243053644895554,-2.8852806091308594,1017.4646,
