Time,X-cord,Y-cord,Mag_x,Mag_y,Mag_z,Acc_x,Acc_y,Acc_z,Gyro_x,Gyro_y,Gyro_z,Orn_x,Orn_y,Orn_z,Pressure,
2021.02.11 16:43:28,12.0,25.0,-21.3,-15.059999,-42.239998,0.35194764,-0.038307227,10.1226845,0.028710667,-0.0580322,0.009162978,0.0037819920107722282,-0.03475421294569969,2.2257511615753174,1017.45703,
2021.02.11 16:43:28,12.0,25.0,-21.42,-15.36,-42.059998,-0.4261679,0.110133275,9.631873,0.124005646,0.04886922,-0.12156218,-0.011422580108046532,0.04421675205230713,2.1402499675750732,1017.45703,
2021.02.11 16:43:28,12.0,25.0,-21.66,-15.24,-41.94,-1.0103531,0.3184288,9.234436,0.13561209,0.07513642,-0.14721853,-0.03426478058099747,0.10897797346115112,2.0597753524780273,1017.45703,
2021.02.11 16:43:28,12.0,25.0,-21.539999,-15.12,-42.42,-0.7422025,0.37349546,9.65821,-0.05497787,6.1086525E-4,-0.0061086523,-0.038538526743650436,0.07669606059789658,2.071866512298584,1017.4619,
2021.02.11 16:43:28,12.0,25.0,-21.0,-15.059999,-42.239998,-0.5793968,0.32561144,10.01734,-0.13133603,-0.018325957,0.052534413,-0.03243916109204292,0.057775016874074936,2.101142406463623,1017.4619,
2021.02.11 16:43:29,12.0,25.0,-20.939999,-15.299999,-42.42,-0.20350714,0.34955344,9.751583,-0.029932396,-0.054367006,0.11056661,-0.03582267835736275,0.020866109058260918,2.1342930793762207,1017.4619,
2021.02.11 16:43:29,12.0,25.0,-20.82,-15.299999,-42.48,-0.16519992,0.37588966,9.730036,0.020158553,-0.04520403,0.12339478,-0.03860712796449661,0.016976715996861458,2.1360955238342285,1017.4619,
2021.02.11 16:43:29,12.0,25.0,-20.939999,-15.299999,-42.36,-0.14844051,0.37828386,9.65821,0.015271631,-0.048258353,0.11301007,-0.03914245218038559,0.015368150547146797,2.134396553039551,1017.4558,
2021.02.11 16:43:29,12.0,25.0,-21.42,-15.12,-42.66,-0.23223756,0.39983168,9.32781,0.032375857,-0.047647487,0.07819075,-0.04282499849796295,0.024892186746001244,2.1052427291870117,1017.4558,
2021.02.11 16:43:29,12.0,25.0,-21.539999,-14.58,-42.66,-0.272939,0.39264908,9.227253,0.0421497,0.01038471,0.0842994,-0.042508967220783234,0.029571035876870155,2.0818967819213867,1017.4558,
2021.02.11 16:43:29,12.0,25.0,-22.14,-14.7,-42.66,0.08619126,0.2705448,9.502586,-0.051923547,-0.010995574,0.12767084,-0.028461791574954987,-0.009070045314729214,2.125394344329834,1017.4558,
2021.02.11 16:43:29,12.0,25.0,-21.779999,-14.88,-42.239998,0.34715924,0.076614454,9.82341,-0.07391469,-0.047036625,0.08857546,-0.007794147357344627,-0.035325292497873306,2.1930904388427734,1017.45557,
2021.02.11 16:43:29,12.0,25.0,-21.66,-15.36,-42.12,0.35913026,0.09816227,9.617508,-0.015271631,-0.047647487,-0.02321288,-0.010199161246418953,-0.0373239628970623,2.210036516189575,1017.45557,
2021.02.11 16:43:29,12.0,25.0,-21.9,-15.599999,-42.059998,-0.32321724,0.49559975,9.679757,0.002443461,0.005497787,-0.12522738,-0.05112648755311966,0.03337864577770233,2.095083713531494,1017.45557,
2021.02.11 16:43:29,12.0,25.0,-21.3,-15.78,-41.76,-0.6775591,0.7110779,9.883265,-0.01160644,0.035430185,-0.09162979,-0.07165629416704178,0.06844909489154816,2.060892343521118,1017.45557,
2021.02.11 16:43:29,12.0,25.0,-21.6,-15.719999,-42.3,-0.7685388,0.6368576,10.19451,-0.032375857,0.030543262,-0.015271631,-0.062213484197854996,0.07524518668651581,2.060272216796875,1017.45044,
2021.02.11 16:43:29,12.0,25.0,-21.359999,-15.54,-42.12,-0.30645782,0.39743748,9.830592,0.057421334,-0.010995574,0.07086037,-0.04038704186677933,0.03116379864513874,2.1195180416107178,1017.45044,
2021.02.11 16:43:29,12.0,25.0,-20.88,-15.48,-41.64,-0.1604115,0.3184288,9.289502,0.09773844,0.017104227,0.044593163,-0.03425982967019081,0.017266325652599335,2.1478188037872314,1017.45044,
2021.02.11 16:43:29,12.0,25.0,-21.24,-15.0,-42.3,-0.09816227,0.18435353,9.382876,-0.030543262,-0.01038471,0.040927973,-0.01964426599442959,0.010461471043527126,2.1496880054473877,1017.45044,
2021.02.11 16:43:29,12.0,25.0,-21.48,-15.12,-41.82,-0.0047884034,0.1364695,9.627085,-0.053145275,0.014049901,-0.017715093,-0.014174627140164375,4.973887116648257E-4,2.1649558544158936,1017.45874,
2021.02.11 16:43:29,12.0,25.0,-21.96,-14.5199995,-42.18,-0.16998832,0.29448682,9.610326,-0.007941248,0.005497787,-0.076358154,-0.030628379434347153,0.01768624596297741,2.0985565185546875,1017.45874,
2021.02.11 16:43:29,12.0,25.0,-22.08,-14.28,-42.239998,-0.4333505,0.49081135,9.631873,-0.021991149,0.02443461,-0.08002335,-0.050861600786447525,0.044960979372262955,2.040721893310547,1017.45874,
2021.02.11 16:43:29,12.0,25.0,-21.6,-14.58,-41.76,-0.6560113,0.58657944,9.866506,-0.034208454,0.010995574,-0.035430185,-0.05925117805600166,0.0663909986615181,2.0347859859466553,1017.45874,
2021.02.11 16:43:29,12.0,25.0,-21.6,-14.639999,-42.3,-0.59376204,0.5291186,9.864111,-0.004276057,-0.018325957,0.009773844,-0.05349277704954147,0.06012163311243057,2.0469632148742676,1017.46045,
2021.02.11 16:43:29,12.0,25.0,-21.0,-15.12,-41.82,-0.260968,0.47165772,9.576807,0.01038471,-0.0036651916,0.018325957,-0.04919200390577316,0.02724326029419899,2.1043901443481445,1017.46045,
2021.02.11 16:43:29,12.0,25.0,-21.3,-15.54,-42.54,-0.23223756,0.40940848,9.545682,-0.0061086523,0.018325957,0.0061086523,-0.04285046085715294,0.024324269965291023,2.1219849586486816,1017.46045,
2021.02.11 16:43:29,12.0,25.0,-21.779999,-15.299999,-42.719997,-0.1604115,0.33039984,9.540894,-0.040317107,0.017715093,-0.012217305,-0.03461114317178726,0.016811463981866837,2.121880292892456,1017.46045,
2021.02.11 16:43:29,12.0,25.0,-21.3,-15.0,-42.239998,-0.22505496,0.32800564,9.900024,-0.04520403,0.0061086523,-0.02443461,-0.03311114013195038,0.022728854790329933,2.1196680068969727,1017.4685,
2021.02.11 16:43:29,12.0,25.0,-21.9,-14.94,-42.48,-0.39264908,0.46447513,9.876082,0.007941248,-0.004276057,-0.07269296,-0.04695862531661987,0.03973664715886116,2.0739071369171143,1017.4685,
2021.02.11 16:43:29,12.0,25.0,-21.72,-14.88,-41.94,-0.5746084,0.50278234,9.619903,0.053145275,0.004276057,-0.028099801,-0.05212455987930298,0.05966032296419144,2.055878162384033,1017.4685,
2021.02.11 16:43:30,12.0,25.0,-21.359999,-14.94,-42.18,-0.40222588,0.4237737,9.526528,-0.004276057,-0.013439035,0.0018325958,-0.0444147102534771,0.042196597903966904,2.086104154586792,1017.4685,
2021.02.11 16:43:30,12.0,25.0,-21.24,-14.94,-42.42,-0.30885202,0.35434186,9.737218,-0.015882496,-0.0036651916,0.007330383,-0.03635614365339279,0.03170808032155037,2.106937885284424,1017.469,
2021.02.11 16:43:30,12.0,25.0,-20.699999,-15.059999,-42.36,-0.22744916,0.36870706,9.725247,0.01160644,-0.0061086523,-0.0018325958,-0.037883859127759933,0.023383231833577156,2.1264257431030273,1017.469,
2021.02.11 16:43:30,12.0,25.0,-20.699999,-14.7,-42.48,-0.2633622,0.36391866,9.610326,0.021380283,-0.007330383,-0.018936822,-0.03783518821001053,0.02739723026752472,2.110917091369629,1017.469,
2021.02.11 16:43:30,12.0,25.0,-20.699999,-14.639999,-42.12,-0.40222588,0.37588966,9.509769,0.01282817,0.0,-0.025045475,-0.039470866322517395,0.042270876467227936,2.095543146133423,1017.469,
2021.02.11 16:43:30,12.0,25.0,-20.699999,-14.94,-41.76,-0.35913026,0.48123455,9.797073,-0.018325957,-0.01160644,-0.0030543262,-0.04904789850115776,0.03664048761129379,2.0973215103149414,1017.4761,
2021.02.11 16:43:30,12.0,25.0,-20.82,-14.759999,-42.0,-0.32800564,0.4141969,9.701305,-0.007941248,0.0061086523,0.007941248,-0.04264471307396889,0.03379758819937706,2.099579095840454,1017.4761,
2021.02.11 16:43:30,12.0,25.0,-20.4,-15.48,-41.94,-0.2633622,0.36870706,9.588778,0.019547688,-0.004886922,0.015271631,-0.03841852769255638,0.027458766475319862,2.1431264877319336,1017.4761,
2021.02.11 16:43:30,12.0,25.0,-20.58,-15.299999,-42.239998,-0.2873042,0.38067806,9.5385,6.1086525E-4,-0.01038471,0.007330383,-0.03987039998173714,0.03011137619614601,2.1286754608154297,1017.4761,
2021.02.11 16:43:30,12.0,25.0,-20.76,-15.12,-42.36,-0.2777274,0.39504328,9.703699,-0.01160644,6.1086525E-4,0.0067195175,-0.04067148640751839,0.02861296571791172,2.1189448833465576,1017.47437,
2021.02.11 16:43:30,12.0,25.0,-20.82,-15.42,-42.3,-0.21787235,0.39025488,9.859323,-0.02687807,-0.004276057,0.015271631,-0.039552025496959686,0.02209451049566269,2.134685516357422,1017.47437,
2021.02.11 16:43:30,12.0,25.0,-21.3,-14.94,-42.6,-0.32321724,0.39025488,9.67018,0.007941248,-0.009773844,0.004276057,-0.04031215235590935,0.03341167792677879,2.098623514175415,1017.47437,
2021.02.11 16:43:30,12.0,25.0,-21.3,-15.0,-42.42,-0.29688102,0.34715924,9.617508,0.028099801,6.1086525E-4,0.0018325958,-0.03606376051902771,0.03085901029407978,2.1088035106658936,1017.47437,
2021.02.11 16:43:30,12.0,25.0,-21.42,-15.36,-42.719997,-0.2633622,0.37828386,9.773131,-0.0018325958,-6.1086525E-4,0.008552114,-0.03867318108677864,0.026941055431962013,2.1171231269836426,1017.46924,
2021.02.11 16:43:30,12.0,25.0,-21.42,-14.94,-42.66,-0.2681506,0.40222588,9.667787,0.027488936,0.002443461,-0.0030543262,-0.04156480357050896,0.027729393914341927,2.0988593101501465,1017.46924,
2021.02.11 16:43:30,12.0,25.0,-21.6,-15.0,-42.719997,-0.36631286,0.41180268,9.576807,0.023823744,-6.1086525E-4,-0.014660766,-0.04294215887784958,0.038231365382671356,2.0874104499816895,1017.46924,
2021.02.11 16:43:30,12.0,25.0,-21.66,-15.0,-43.02,-0.24660277,0.36870706,9.662998,-0.002443461,-0.004276057,0.009162978,-0.03812568634748459,0.02551477961242199,2.102138042449951,1017.46924,
2021.02.11 16:43:30,12.0,25.0,-21.6,-14.639999,-42.42,-0.272939,0.40701428,9.797073,-0.007330383,0.016493361,-0.004276057,-0.04150451347231865,0.02785203419625759,2.085954427719116,1017.4636,
2021.02.11 16:43:30,12.0,25.0,-21.539999,-14.639999,-42.239998,-0.2873042,0.4285621,9.682152,0.018325957,-0.0036651916,-0.01160644,-0.044214796274900436,0.029664885252714157,2.08225417137146,1017.4636,
2021.02.11 16:43:30,12.0,25.0,-21.18,-14.58,-41.82,-0.260968,0.36870706,9.588778,0.018325957,0.004276057,-0.007941248,-0.038418788462877274,0.027209267020225525,2.0979197025299072,1017.4636,
2021.02.11 16:43:30,12.0,25.0,-21.0,-15.179999,-41.28,-0.21068975,0.37828386,9.627085,6.1086525E-4,0.0012217305,-0.01282817,-0.03926410898566246,0.02188161201775074,2.125443935394287,1017.4636,
2021.02.11 16:43:30,12.0,25.0,-20.82,-14.94,-41.64,-0.2873042,0.4429273,9.667787,-0.004886922,-0.0030543262,-0.02687807,-0.0457625687122345,0.02970893681049347,2.1051902770996094,1017.45483,
2021.02.11 16:43:30,12.0,25.0,-21.0,-15.299999,-41.76,-0.24181437,0.38067806,9.720459,-0.0030543262,0.01282817,-0.012217305,-0.03913046047091484,0.024871716275811195,2.1263060569763184,1017.45483,
2021.02.11 16:43:30,12.0,25.0,-21.18,-15.54,-41.94,-0.3854665,0.36631286,9.744401,-0.009773844,0.009162978,-0.02687807,-0.037545107305049896,0.03953712806105614,2.120657205581665,1017.45483,
2021.02.11 16:43:30,12.0,25.0,-21.24,-14.94,-42.18,-0.35913026,0.46686932,9.440337,0.03359759,-0.012217305,-0.02687807,-0.049378812313079834,0.03802376613020897,2.084528684616089,1017.45483,
2021.02.11 16:43:31,12.0,25.0,-21.539999,-14.94,-42.0,-0.2681506,0.40462008,9.682152,-0.0036651916,0.014049901,0.0030543262,-0.04175001382827759,0.027688272297382355,2.097590684890747,1017.4507,
2021.02.11 16:43:31,12.0,25.0,-21.96,-14.759999,-42.239998,-0.272939,0.4285621,9.876082,-0.03481932,-0.008552114,0.0,-0.04335019737482071,0.02762932889163494,2.0811595916748047,1017.4507,
2021.02.11 16:43:31,12.0,25.0,-21.24,-14.58,-42.12,-0.37349546,0.45010993,9.722853,0.02565634,0.0067195175,-0.015882496,-0.04622694477438927,0.03839530795812607,2.076810836791992,1017.4507,
2021.02.11 16:43:31,12.0,25.0,-21.48,-14.88,-41.7,-0.32561144,0.38307226,9.662998,0.021380283,0.01160644,-0.0036651916,-0.039600010961294174,0.033683985471725464,2.095763683319092,1017.4507,
2021.02.11 16:43:31,12.0,25.0,-20.76,-14.94,-41.76,-0.33279404,0.37588966,9.61272,0.018936822,-0.0036651916,-0.0030543262,-0.0390600748360157,0.03460635617375374,2.1115944385528564,1017.4514,
2021.02.11 16:43:31,12.0,25.0,-20.4,-15.299999,-41.34,-0.260968,0.4333505,9.667787,0.021991149,0.017104227,0.005497787,-0.04477789252996445,0.02698700875043869,2.1299614906311035,1017.4514,
2021.02.11 16:43:31,12.0,25.0,-21.24,-15.299999,-41.7,-0.38307226,0.50278234,9.718064,-0.0018325958,-0.004276057,-0.009162978,-0.0516507551074028,0.039398178458213806,2.093406915664673,1017.4514,
2021.02.11 16:43:31,12.0,25.0,-21.0,-15.299999,-42.239998,-0.37349546,0.44771573,9.603143,0.02076942,0.012217305,0.0030543262,-0.04655291140079498,0.03887345269322395,2.104093313217163,1017.4514,
2021.02.11 16:43:31,12.0,25.0,-21.66,-15.599999,-42.0,-0.2705448,0.38067806,9.619903,0.009162978,0.018325957,0.02076942,-0.03953567519783974,0.02811603434383869,2.1193292140960693,1017.449,
2021.02.11 16:43:31,12.0,25.0,-21.66,-15.12,-42.18,-0.29927522,0.4141969,9.646238,-0.0061086523,0.0067195175,0.010995574,-0.042891725897789,0.031015122309327126,2.0967628955841064,1017.449,
2021.02.11 16:43:31,12.0,25.0,-21.3,-15.059999,-41.879997,-0.35194764,0.46447513,9.67018,-0.007330383,0.015271631,0.0012217305,-0.04796309769153595,0.03637909144163132,2.09124493598938,1017.449,
2021.02.11 16:43:31,12.0,25.0,-21.359999,-14.94,-42.0,-0.35194764,0.4357447,9.646238,-0.0061086523,0.0061086523,0.007941248,-0.04511183872818947,0.03646930307149887,2.0897598266601562,1017.449,
2021.02.11 16:43:31,12.0,25.0,-21.48,-14.639999,-42.18,-0.36631286,0.4357447,9.672575,-0.01160644,0.015271631,0.009773844,-0.04498685896396637,0.03785319998860359,2.0763890743255615,1017.45654,
2021.02.11 16:43:31,12.0,25.0,-21.42,-14.34,-41.879997,-0.35194764,0.46926352,9.662998,-0.009773844,0.0,0.018936822,-0.04849270358681679,0.03640610724687576,2.064237117767334,1017.45654,
2021.02.11 16:43:31,12.0,25.0,-21.72,-14.16,-42.36,-0.272939,0.41180268,9.65821,-0.0067195175,0.007330383,0.021991149,-0.0425947830080986,0.028252271935343742,2.065927743911743,1017.45654,
2021.02.11 16:43:31,12.0,25.0,-21.42,-14.46,-42.18,-0.19871874,0.35434186,9.727641,-0.021380283,0.01160644,0.02565634,-0.03640260174870491,0.02042541652917862,2.096745252609253,1017.45654,
2021.02.11 16:43:31,12.0,25.0,-21.18,-15.059999,-42.239998,-0.272939,0.4357447,9.572019,0.0036651916,0.009773844,-0.007941248,-0.0454728938639164,0.028506534174084663,2.1022074222564697,1017.4612,
2021.02.11 16:43:31,12.0,25.0,-21.3,-15.299999,-42.899998,-0.44532153,0.5267244,9.713276,0.007330383,0.040927973,-0.013439035,-0.05411747470498085,0.04581460729241371,2.0811715126037598,1017.4612,
2021.02.11 16:43:31,12.0,25.0,-20.939999,-15.299999,-42.239998,-0.45489833,0.63206923,9.940725,-0.0036651916,0.022602014,-6.1086525E-4,-0.06343212723731995,0.04572917893528938,2.076596975326538,1017.4612,
2021.02.11 16:43:31,12.0,25.0,-21.0,-15.179999,-42.42,-0.4309563,0.47644615,9.828198,0.03726278,0.02565634,0.018325957,-0.048393115401268005,0.04382089152932167,2.093444347381592,1017.4612,
2021.02.11 16:43:31,12.0,25.0,-20.76,-14.88,-42.6,-0.19871874,0.320823,9.531317,0.065973446,0.009162978,0.029932396,-0.033639874309301376,0.020846014842391014,2.1269495487213135,1017.46313,
2021.02.11 16:43:31,12.0,25.0,-20.4,-15.24,-41.879997,-0.34715924,0.41180268,9.323022,0.057421334,0.008552114,-0.014660766,-0.04411128908395767,0.0372195765376091,2.1194374561309814,1017.46313,
2021.02.11 16:43:31,12.0,25.0,-20.52,-15.54,-42.0,-0.4309563,0.5602432,9.579201,0.004276057,0.018936822,-0.014049901,-0.05835993215441704,0.044958438724279404,2.1009037494659424,1017.46313,
2021.02.11 16:43:31,12.0,25.0,-20.4,-15.48,-41.64,-0.46447513,0.61770403,9.94312,-0.040927973,0.009162978,-0.0061086523,-0.06197662279009819,0.046679284423589706,2.0959417819976807,1017.46313,
2021.02.11 16:43:31,12.0,25.0,-20.34,-15.48,-41.52,-0.4285621,0.5482722,9.813833,0.0030543262,-0.0036651916,0.004276057,-0.05575624108314514,0.043641455471515656,2.108372688293457,1017.4719,
2021.02.11 16:43:32,12.0,25.0,-20.4,-15.36,-41.94,-0.37110126,0.46447513,9.619903,0.04337143,-0.012217305,0.014049901,-0.048209454864263535,0.03855728730559349,2.116529703140259,1017.4719,
2021.02.11 16:43:32,12.0,25.0,-19.8,-15.42,-41.82,-0.34237084,0.48841715,9.591172,0.048258353,-0.021380283,0.013439035,-0.050847332924604416,0.03568130359053612,2.129809856414795,1017.4719,
2021.02.11 16:43:32,12.0,25.0,-20.22,-15.66,-41.76,-0.35194764,0.5315128,9.662998,0.03481932,-0.02321288,0.014049901,-0.0549132414162159,0.03640610724687576,2.122987985610962,1017.4719,
2021.02.11 16:43:32,12.0,25.0,-20.22,-15.96,-41.579998,-0.34715924,0.5530606,9.782708,0.01282817,-0.03481932,0.002443461,-0.05643894150853157,0.035472143441438675,2.1320393085479736,1017.47,
2021.02.11 16:43:32,12.0,25.0,-20.4,-16.14,-41.52,-0.29927522,0.51475334,9.648633,0.04642576,-0.05009095,0.009162978,-0.053273774683475494,0.0310074295848608,2.142312526702881,1017.47,
2021.02.11 16:43:32,12.0,25.0,-20.4,-16.44,-41.52,-0.31124622,0.51235914,9.648633,0.057421334,-0.01038471,-0.007941248,-0.05302438139915466,0.03224688023328781,2.1513378620147705,1017.47,
2021.02.11 16:43:32,12.0,25.0,-20.4,-16.14,-41.52,-0.3184288,0.59136784,9.672575,0.032986723,-0.009773844,-0.014660766,-0.06102963164448738,0.03290890157222748,2.1301541328430176,1017.47,
2021.02.11 16:43:32,12.0,25.0,-20.4,-15.839999,-41.76,-0.33758244,0.6536171,9.706094,0.01038471,-0.028710667,-0.022602014,-0.06719887256622314,0.03476644679903984,2.1093926429748535,1017.4668,
2021.02.11 16:43:32,12.0,25.0,-20.1,-16.14,-41.52,-0.25617957,0.581791,9.746795,0.014660766,0.007330383,-0.004886922,-0.059599220752716064,0.026277419179677963,2.14387845993042,1017.4668,
2021.02.11 16:43:32,12.0,25.0,-20.699999,-15.96,-41.82,-0.31124622,0.60333884,9.624691,0.013439035,-0.012217305,-0.022602014,-0.06257202476263046,0.032327041029930115,2.1156208515167236,1017.4668,
2021.02.11 16:43:32,12.0,25.0,-20.76,-16.26,-42.18,-0.33279404,0.62967503,9.583989,0.018325957,-0.0030543262,-0.02687807,-0.0655670315027237,0.03471001237630844,2.117269515991211,1017.4668,
2021.02.11 16:43:32,12.0,25.0,-20.58,-16.5,-42.0,-0.34955344,0.62249243,9.773131,-0.007330383,-6.1086525E-4,-0.020158553,-0.06356780230998993,0.03575154021382332,2.131169557571411,1017.46533,
2021.02.11 16:43:32,12.0,25.0,-20.4,-15.839999,-42.12,-0.33758244,0.61291564,9.722853,-0.012217305,-0.005497787,-0.015271631,-0.0629175454378128,0.03470657393336296,2.114469289779663,1017.46533,
2021.02.11 16:43:32,12.0,25.0,-20.22,-15.719999,-41.82,-0.33039984,0.59855044,9.689334,0.0030543262,0.004276057,-0.017715093,-0.06166001409292221,0.03408613055944443,2.117210865020752,1017.46533,
2021.02.11 16:43:32,12.0,25.0,-19.68,-15.9,-41.64,-0.39743748,0.63206923,9.648633,6.1086525E-4,0.004276057,-0.017715093,-0.06535995006561279,0.041167791932821274,2.1240270137786865,1017.46533,
2021.02.11 16:43:32,12.0,25.0,-20.22,-15.66,-41.64,-0.23942018,0.58657944,9.691729,-0.01038471,-0.008552114,0.0067195175,-0.0604315847158432,0.02469853311777115,2.125021457672119,1017.46387,
2021.02.11 16:43:32,12.0,25.0,-20.76,-15.839999,-41.579998,-0.2633622,0.5722142,9.660604,-0.0012217305,-0.005497787,-0.0067195175,-0.059140682220458984,0.02725471369922161,2.1198318004608154,1017.46387,
2021.02.11 16:43:32,12.0,25.0,-20.76,-15.599999,-41.579998,-0.33279404,0.5650316,9.651027,-0.0018325958,0.005497787,-0.008552114,-0.05844485014677048,0.03446910157799721,2.107210874557495,1017.46387,
2021.02.11 16:43:32,12.0,25.0,-20.88,-15.059999,-41.219997,-0.33039984,0.6512229,9.847352,-0.02687807,-0.01282817,-0.014660766,-0.06599858403205872,0.03353957086801529,2.0777244567871094,1017.46387,
2021.02.11 16:43:32,12.0,25.0,-20.46,-15.059999,-41.399998,-0.32321724,0.62009823,9.579201,0.014049901,-0.012217305,-0.0030543262,-0.06460695713758469,0.03372877091169357,2.0871503353118896,1017.45703,
2021.02.11 16:43:32,12.0,25.0,-20.34,-15.12,-41.94,-0.29209262,0.5602432,9.624691,0.004276057,0.007941248,0.004886922,-0.058116644620895386,0.030338946729898453,2.1021015644073486,1017.45703,
2021.02.11 16:43:32,12.0,25.0,-20.64,-15.299999,-42.36,-0.260968,0.58657944,9.627085,-0.013439035,-0.02565634,0.0030543262,-0.06083259731531143,0.027101051062345505,2.0997679233551025,1017.45703,
2021.02.11 16:43:32,12.0,25.0,-20.699999,-15.66,-43.14,-0.21308395,0.60573304,9.68694,-0.015882496,0.0,-6.1086525E-4,-0.062434520572423935,0.021993488073349,2.110557794570923,1017.45703,
2021.02.11 16:43:32,12.0,25.0,-21.42,-15.66,-43.14,-0.24181437,0.61770403,9.773131,-0.014049901,-0.008552114,-0.005497787,-0.06310108304023743,0.024737725034356117,2.0931787490844727,1017.4702,
2021.02.11 16:43:32,12.0,25.0,-21.48,-15.78,-42.6,-0.37110126,0.60812724,9.696517,0.0,-0.002443461,-0.017104227,-0.06258831173181534,0.03825293481349945,2.0880355834960938,1017.4702,
2021.02.11 16:43:32,12.0,25.0,-21.3,-15.66,-42.3,-0.2801216,0.60094464,9.617508,0.014660766,-0.01282817,-0.004276057,-0.06237693130970001,0.02911798283457756,2.0953643321990967,1017.4702,
2021.02.11 16:43:33,12.0,25.0,-21.84,-15.42,-41.579998,-0.24420857,0.46447513,9.65821,-0.002443461,-0.03604105,-0.004276057,-0.048038870096206665,0.025279689580202103,2.1015937328338623,1017.4702,
2021.02.11 16:43:33,12.0,25.0,-21.779999,-15.36,-41.579998,-0.21068975,0.581791,9.701305,-0.005497787,-0.05497787,-0.019547688,-0.05988455191254616,0.021714257076382637,2.0870847702026367,1017.4651,
2021.02.11 16:43:33,12.0,25.0,-21.779999,-15.36,-41.64,-0.3184288,0.6607997,9.667787,0.015271631,-0.06780604,-0.048258353,-0.06820765882730484,0.03292519226670265,2.0673234462738037,1017.4651,
2021.02.11 16:43:33,12.0,25.0,-21.779999,-15.36,-41.7,-0.25857377,0.6440403,9.763555,0.032375857,-0.022602014,-0.012217305,-0.06584527343511581,0.026477379724383354,2.0749764442443848,1017.4651,
2021.02.11 16:43:33,12.0,25.0,-21.779999,-15.36,-42.239998,-0.32561144,0.6631939,9.715671,0.048258353,-0.05681047,-6.1086525E-4,-0.06811636686325073,0.033501505851745605,2.06532883644104,1017.4651,
2021.02.11 16:43:33,12.0,25.0,-21.779999,-15.599999,-42.0,-0.24181437,0.6368576,9.579201,0.0580322,-0.044593163,0.007330383,-0.0663646012544632,0.02523832954466343,2.082326650619507,1017.47,
2021.02.11 16:43:33,12.0,25.0,-22.02,-15.599999,-41.94,-0.093373865,0.5674258,9.603143,0.03359759,-0.021380283,0.040317107,-0.05901610106229782,0.009722954593598843,2.099855661392212,1017.47,
2021.02.11 16:43:33,12.0,25.0,-22.08,-16.02,-41.7,-0.05267244,0.59615624,9.61272,0.021380283,-0.017104227,0.027488936,-0.06193718686699867,0.005479397252202034,2.112230062484741,1017.47,
2021.02.11 16:43:33,12.0,25.0,-22.08,-15.96,-41.579998,-0.093373865,0.6607997,9.67018,0.02321288,-0.005497787,0.014660766,-0.06822451204061508,0.00965555477887392,2.098517894744873,1017.47,
2021.02.11 16:43:33,12.0,25.0,-21.9,-16.02,-41.76,-0.007182605,0.6488287,9.744401,0.020158553,-0.02687807,0.009162978,-0.06648661196231842,7.371006067842245E-4,2.112983465194702,1017.4612,
2021.02.11 16:43:33,12.0,25.0,-21.539999,-16.02,-41.34,-0.1316811,0.7015011,9.713276,0.037873644,-0.032375857,-0.0012217305,-0.07208907604217529,0.013555985875427723,2.103295087814331,1017.4612,
2021.02.11 16:43:33,12.0,25.0,-21.84,-15.48,-41.399998,-0.18195933,0.7326257,9.526528,0.051923547,-0.021380283,-0.020158553,-0.07673873752355576,0.019097955897450447,2.068483829498291,1017.4612,
2021.02.11 16:43:33,12.0,25.0,-21.72,-15.599999,-41.04,-0.11492168,0.7278373,9.607931,0.03970624,-0.022602014,-0.007941248,-0.07560399919748306,0.011960555799305439,2.082594394683838,1017.4612,
2021.02.11 16:43:33,12.0,25.0,-21.9,-15.66,-41.16,-0.045489833,0.7254431,9.667787,0.025045475,-0.0061086523,0.004276057,-0.0748959630727768,0.004705265164375305,2.0871808528900146,1017.4614,
2021.02.11 16:43:33,12.0,25.0,-22.32,-16.02,-41.7,-0.059855044,0.78769237,9.715671,0.02321288,-0.032375857,0.004276057,-0.08089595288038254,0.006160592194646597,2.0801467895507812,1017.4614,
2021.02.11 16:43:33,12.0,25.0,-22.14,-16.74,-41.76,-0.10534488,0.7781156,9.593566,0.035430185,-0.013439035,-0.0012217305,-0.08092604577541351,0.010980342514812946,2.1037299633026123,1017.4614,
2021.02.11 16:43:33,12.0,25.0,-21.539999,-16.8,-41.399998,-0.059855044,0.7350199,9.593566,0.02565634,-0.021991149,0.009773844,-0.07646505534648895,0.006239000707864761,2.128570318222046,1017.4614,
2021.02.11 16:43:33,12.0,25.0,-21.779999,-16.74,-41.16,-0.074220255,0.7565677,9.861717,0.021991149,-0.025045475,0.007941248,-0.07656551152467728,0.007525956723839045,2.121199369430542,1017.4568,
2021.02.11 16:43:33,12.0,25.0,-21.779999,-16.619999,-40.68,0.45729253,0.9696517,8.860941,0.07086037,-0.03481932,-0.007941248,-0.10885248333215714,-0.051561929285526276,2.1184239387512207,1017.4568,
2021.02.11 16:43:33,12.0,25.0,-21.6,-16.32,-40.62,-0.2633622,0.7757214,9.794679,-0.058643065,0.15943582,-0.045814894,-0.07900484651327133,0.026881815865635872,2.0948452949523926,1017.4568,
2021.02.11 16:43:33,12.0,25.0,-22.199999,-16.14,-41.16,0.050278235,0.770933,10.357317,-0.03481932,-0.13133603,0.022602014,-0.0742957815527916,-0.004854330327361822,2.105593681335449,1017.4568,
