Time,Mag_x,Mag_y,Mag_z,Acc_x,Acc_y,Acc_z,Gyro_x,Gyro_y,Gyro_z,Orn_x,Orn_y,Orn_z,Pressure
2021.02.12 16:24:48,5.8199997,-33.96,-30.96,0.13886794,0.9385557,8.892337,0.05731443,0.18216856,-0.010604621,-0.105144516,-0.015615316,-2.938029289,1015.1699
2021.02.12 16:24:48,5.64,-33.96,-30.66,0.34477556,0.90503585,9.28021,-7.18E-04,0.05755206,0.032155946,-0.097149193,-0.037134621,-2.925420523,1015.1699
2021.02.12 16:24:48,6.6,-33.6,-30.84,0.15802214,0.79250497,9.943423,-0.021487184,-0.04568417,0.038875464,-0.079523303,-0.015890788,-2.917141676,1015.1758
2021.02.12 16:24:48,7.44,-33.84,-29.88,0.3974496,0.8356019,9.617802,0.071364336,-0.002923601,0.09385333,-0.08658962,-0.041300874,-2.870276451,1015.1758
2021.02.12 16:24:48,7.7999997,-34.02,-29.939999,0.31843856,0.8786988,9.536397,0.071364336,-0.010864849,0.07613824,-0.091831252,-0.03337951,-2.866471052,1015.1709
2021.02.12 16:24:49,8.28,-34.44,-30,0.14605077,1.1444633,9.227535,0.098853275,-0.12998356,0.068197,-0.123381533,-0.015826389,-2.862121344,1015.1709
2021.02.12 16:24:49,8.099999,-34.26,-29.519999,0.15562786,1.3000913,9.838076,0.02005165,-0.11043588,0.001001819,-0.131371409,-0.015817614,-2.864472866,1015.17114
2021.02.12 16:24:49,7.3799996,-34.32,-30.06,-0.038308397,1.2953026,9.316123,0.010888672,-0.07195137,-0.021600194,-0.138151944,0.00411203,-2.903119087,1015.16675
2021.02.12 16:24:49,8.04,-34.62,-29.34,0.052674048,1.5036045,9.428655,-0.07157813,0.067325905,-0.029541442,-0.158137783,-0.005586534,-2.871004343,1015.16675
2021.02.12 16:24:49,7.8599997,-34.5,-29.699999,-0.076616794,1.8531687,9.124581,-0.12961033,0.05205427,-0.05580865,-0.200364113,0.008396549,-2.875169277,1015.16016
2021.02.12 16:24:49,7.68,-34.32,-30.119999,-0.45012367,1.611347,10.077502,-0.18886426,0.034950044,-0.07718893,-0.158398047,0.044636525,-2.927386522,1015.16016
2021.02.12 16:24:49,8.28,-33.719997,-30.359999,-0.17238778,1.5850099,8.789383,-0.044700064,0.08992792,0.049260173,-0.178381234,0.019610668,-2.871678114,1015.1599
2021.02.12 16:24:49,7.74,-33.3,-31.14,-0.24182175,1.6041641,9.12937,-0.09784534,0.056941193,0.050481904,-0.173879236,0.026482137,-2.894260645,1015.17114
2021.02.12 16:24:49,7.98,-32.88,-30.539999,-0.00478855,1.759792,9.644139,-0.15343408,0.056941193,0.041318923,-0.180486977,4.97E-04,-2.853351593,1015.17114
2021.02.12 16:24:49,8.4,-33,-30.48,0.1699935,1.7023294,9.850046,-0.12533428,-0.001091005,0.030934216,-0.171109065,-0.017256431,-2.826210499,1015.1609
2021.02.12 16:24:49,8.28,-32.82,-30.66,0.3998439,2.083019,9.857229,-0.09173669,-0.079281755,0.008943068,-0.20808883,-0.040541291,-2.788899899,1015.1609
2021.02.12 16:24:49,8.099999,-32.64,-30.72,0.56265455,2.1189332,10.4294615,-0.07890852,-0.16297029,-0.07474547,-0.200156555,-0.053896327,-2.782751799,1015.1643
2021.02.12 16:24:49,7.68,-32.579998,-31.5,0.5602603,1.4676905,10.518049,-0.06180429,-0.08783387,-0.2586159,-0.138451159,-0.053216267,-2.819301128,1015.17065
2021.02.12 16:24:49,7.68,-32.219997,-31.74,0.33759275,0.90503585,10.793391,-0.081962846,-0.08111435,-0.3539109,-0.083614528,-0.031267535,-2.855587006,1015.17065
2021.02.12 16:24:49,8.04,-31.92,-31.679998,0.33519846,0.22506183,9.96976,0.006001751,-0.032856,-0.39850405,-0.022557873,-0.033608858,-2.857831717,1015.17456
2021.02.12 16:24:49,9.059999,-31.439999,-31.619999,-0.37350687,-0.7015225,10.745505,-1.07E-04,0.053276002,-0.49318817,0.065153465,0.034745369,-2.908089399,1015.17456
2021.02.12 16:24:50,9.96,-30.84,-31.38,0.18196489,-0.8475733,9.289786,0.2576782,0.08198667,-0.16454266,0.090967856,-0.019585123,-2.83626914,1015.1687
2021.02.12 16:24:50,10.2,-30.779999,-31.08,0.74701375,0.3998439,8.298556,0.20270036,0.044723887,-0.022821926,-0.047951527,-0.089775346,-2.725619316,1015.1643
2021.02.12 16:24:50,10.44,-30.9,-30.48,-0.17957062,0.44772938,9.184438,0.010888672,-0.058512338,-0.026487118,-0.048700843,0.019549128,-2.818242788,1015.1643
2021.02.12 16:24:50,10.2,-31.14,-30.42,0.20111908,0.57462597,8.839663,0.07380779,-0.03346686,0.101794586,-0.064897344,-0.022747971,-2.783715248,1015.1577
2021.02.12 16:24:50,10.08,-31.5,-30.48,0.4166038,0.34956414,9.349643,0.004169155,-0.0609558,0.17448755,-0.037333556,-0.044528805,-2.781596661,1015.1577
2021.02.12 16:24:50,9.84,-31.439999,-30.3,0.59378016,1.228263,8.959376,-0.025152376,0.053886868,0.24656965,-0.135948598,-0.066177942,-2.730784893,1015.1582
2021.02.12 16:24:50,9.3,-31.5,-30.779999,0.5770202,1.3814965,8.901914,-0.019654589,0.010515435,0.26184127,-0.153645396,-0.064729244,-2.739709139,1015.1653
2021.02.12 16:24:50,9.059999,-31.5,-30.66,0.6560313,1.6520497,9.478934,-0.058749966,0.030673988,0.27222598,-0.172149524,-0.06909921,-2.734927416,1015.1653
2021.02.12 16:24:50,8.82,-31.26,-30.84,0.88109314,1.8819,10.532414,-0.06546948,0.045334756,0.2526783,-0.176208377,-0.083461046,-2.722741842,1015.17065
2021.02.12 16:24:50,8.5199995,-31.56,-30.9,0.7948992,1.8579572,10.644946,0.012110403,0.08259753,0.23007628,-0.172327921,-0.074535534,-2.746853113,1015.17065
2021.02.12 16:24:50,8.639999,-31.619999,-30.72,1.3216397,1.8268317,11.339286,-0.002550362,0.10214522,0.14272255,-0.158677816,-0.116030514,-2.712908745,1015.1782
2021.02.12 16:24:50,8.34,-31.8,-30.72,0.4932206,-0.2777359,12.2155905,-0.050808717,0.070380226,-0.05947384,0.022713766,-0.040354401,-2.854996204,1015.177
2021.02.12 16:24:50,8.46,-31.98,-30.42,0.098165266,-0.45012367,9.495694,0.21369594,0.14429492,0.01871691,0.047364939,-0.010337504,-2.884556293,1015.177
2021.02.12 16:24:50,8.82,-31.859999,-30.48,-0.016759925,0.34716985,7.802942,0.20758729,0.113751665,-0.0936823,-0.044462748,0.002147895,-2.861838102,1015.1743
2021.02.12 16:24:50,9,-31.859999,-30.599998,-0.95531565,-0.38308397,8.099832,0.1263422,-0.007199658,-0.117506035,0.046935249,0.117400296,-2.982181549,1015.1743
2021.02.12 16:24:50,9.48,-31.679998,-30.42,-0.61293435,-0.2657645,11.090281,-0.12594515,0.02639793,-0.03259577,0.02392265,0.055211537,-2.905800343,1015.1787
2021.02.12 16:24:50,9.719999,-31.5,-30.179998,-0.36392978,0.8475733,8.439818,0.12878565,0.16934039,0.15005293,-0.099997655,0.043093875,-2.852615833,1015.18677
2021.02.12 16:24:51,9.719999,-31.5,-29.939999,-0.014365649,0.967287,8.43503,0.03471242,-0.04934936,0.03398854,-0.114176087,0.001703092,-2.807786942,1015.18677
2021.02.12 16:24:51,10.2,-31.5,-29.58,-0.37829542,0.80687064,9.222747,-0.049586985,-0.031634267,-0.013048082,-0.087191895,0.040994674,-2.839073658,1015.1902
2021.02.12 16:24:51,10.26,-31.32,-29.64,-0.24900457,0.9720756,9.172467,-0.13144293,0.033728313,-0.02221106,-0.10554485,0.027140291,-2.815982103,1015.1902
2021.02.12 16:24:51,10.26,-31.14,-29.939999,0.105348095,1.4413534,9.366403,-0.19375119,-0.002312736,-0.008161159,-0.152678236,-0.011246971,-2.757831097,1015.18604
2021.02.12 16:24:51,10.5,-30.72,-30.24,0.23224466,2.1069617,9.670476,-0.115560435,-0.1171554,-0.111397386,-0.214463219,-0.02401123,-2.698285103,1015.1802
2021.02.12 16:24:51,10.139999,-30.42,-30.779999,-0.5818088,1.4820561,10.424672,-0.085017174,-0.15441819,-0.15782315,-0.141005233,0.055752914,-2.825597048,1015.1802
2021.02.12 16:24:51,10.44,-30.179998,-30.779999,0.045491222,1.7119064,9.972155,0.028603766,-0.18007453,0.005277876,-0.170009762,-0.004561793,-2.734606743,1015.1836
2021.02.12 16:24:51,10.5,-29.82,-30.84,0.58420306,1.1348863,10.963385,-0.077686794,-0.17213327,-0.06619336,-0.103003554,-0.053236395,-2.713197708,1015.1836
2021.02.12 16:24:51,10.62,-29.58,-30.96,0.16759923,-0.06943397,11.688849,-0.13022119,0.038615234,-0.32336763,0.005939508,-0.014337404,-2.785715818,1015.18555
2021.02.12 16:24:51,11.16,-29.34,-30.9,-0.22506183,-0.70631105,9.759064,0.14283557,0.01356976,-0.23479216,0.072229765,0.02305774,-2.821533918,1015.18555
2021.02.12 16:24:51,11.219999,-29.46,-30.96,0.21548474,-0.9122187,9.419077,0.16238326,0.10275609,-0.16515353,0.096521795,-0.022873489,-2.787725687,1015.18555
2021.02.12 16:24:51,11.34,-29.82,-30.66,0.55307746,0.42139238,8.8324795,0.060979623,0.12780155,-0.06863682,-0.047580209,-0.06253694,-2.705047131,1015.1804
2021.02.12 16:24:51,11.7,-29.88,-30.72,-0.66321415,-0.009577099,9.105427,0.04265367,0.01356976,-0.031984903,0.001049022,0.072708838,-2.835980654,1015.1804
2021.02.12 16:24:51,11.639999,-29.88,-30.24,0.29210153,0.7709565,7.946598,0.089079425,0.028230526,0.10545978,-0.096649632,-0.036741521,-2.698697805,1015.1763
2021.02.12 16:24:51,11.639999,-29.46,-29.82,0.12929083,0.20111908,9.471751,-0.06302602,0.06976936,-0.021600194,-0.021228401,-0.013649303,-2.745737791,1015.16724
2021.02.12 16:24:51,12,-28.98,-29.58,0.5889916,0.9074302,8.897125,-0.02331978,0.06366071,0.0804143,-0.101419464,-0.066103764,-2.648574114,1015.16724
2021.02.12 16:24:51,12.059999,-28.8,-29.4,0.13647367,1.2138973,8.91628,-0.058749966,-0.008421388,0.08346863,-0.135296345,-0.015304928,-2.67113018,1015.1638
2021.02.12 16:24:52,12,-28.619999,-29.699999,-0.08619389,1.4174107,9.804555,-0.09906707,-0.038353786,0.10301631,-0.143566415,0.008790982,-2.687708139,1015.1638
2021.02.12 16:24:52,12,-28.619999,-30.06,0.12210801,1.3479767,11.504491,-0.050197855,-0.08172522,0.22335677,-0.116631277,-0.010613545,-2.682862043,1015.16626
2021.02.12 16:24:52,11.759999,-28.859999,-30.179998,1.2091088,1.9800652,11.765467,0.030436361,0.006239377,0.27161512,-0.165874705,-0.102408104,-2.583969355,1015.15454
2021.02.12 16:24:52,11.4,-28.74,-29.519999,0.44054657,0.6057515,10.879584,0.062201355,0.045334756,-0.11811691,-0.055574935,-0.04047085,-2.706592798,1015.15454
2021.02.12 16:24:52,11.7,-28.859999,-29.039999,-0.2657645,-0.51716334,10.08708,0.096409805,-0.004756197,-0.1376646,0.051207289,0.026340928,-2.795613527,1015.1538
2021.02.12 16:24:52,11.7,-29.099998,-28.32,0.44294083,0.6249057,8.176449,0.2753933,0.070380226,0.019327777,-0.076167978,-0.054119863,-2.685140133,1015.1538
2021.02.12 16:24:52,12,-28.68,-28.019999,-0.7350424,-0.48124924,8.008849,0.22957844,-0.018195232,-0.12117123,0.059766937,0.091522373,-2.841678381,1015.15967
2021.02.12 16:24:52,12.24,-28.92,-27.9,-0.43575802,-0.24421602,10.0200405,-0.085017174,-0.118988,-0.013658947,0.024344934,0.043461263,-2.785336733,1015.16235
2021.02.12 16:24:52,12.42,-28.8,-27.9,-0.63208854,0.45970076,9.57231,-0.07829765,0.031284854,-8.31E-04,-0.047883023,0.065937296,-2.773845196,1015.16235
2021.02.12 16:24:52,12.9,-28.38,-28.14,0.44772938,1.3431882,7.4964743,0.02005165,0.07648888,0.11584448,-0.17698583,-0.059654463,-2.579868555,1015.16943
2021.02.12 16:24:52,13.08,-27.96,-27.72,-0.38787252,0.91700727,9.076695,-0.22734877,0.001352456,-0.03626096,-0.100595929,0.042706806,-2.697540522,1015.16943
2021.02.12 16:24:52,13.2,-27.119999,-27.779999,-0.41420954,1.1612233,9.964972,-0.22185098,0.006850243,-0.025876252,-0.115908101,0.041542642,-2.67112112,1015.1758
2021.02.12 16:24:52,13.259999,-26.46,-27.9,0.22266756,1.8411974,9.182044,-0.13816245,-0.021249557,0.00344528,-0.197840303,-0.024245573,-2.545229435,1015.1831
2021.02.12 16:24:52,13.259999,-25.98,-27.72,0.15323359,1.8483802,9.9889145,-0.09112582,-0.08722301,-0.06741509,-0.182952449,-0.01533916,-2.553935766,1015.1831
2021.02.12 16:24:52,13.32,-25.74,-28.439999,-0.19633053,1.3982565,10.518049,0.006001751,-0.16785723,-0.16393179,-0.132141098,0.018663893,-2.609840155,1015.17676
2021.02.12 16:24:52,13.679999,-25.56,-28.26,0.31843856,1.7382435,10.000886,0.05120578,-0.20634171,-0.11811691,-0.172004297,-0.031830285,-2.521840334,1015.17676
2021.02.12 16:24:53,13.74,-24.84,-28.08,0.7589851,1.6400782,11.329708,-0.15343408,-0.13364875,-0.3288654,-0.143443361,-0.066890761,-2.496459723,1015.188
2021.02.12 16:24:53,14.04,-24.18,-28.32,-0.6368771,-0.5602603,11.018453,-0.12716687,-0.12326405,-0.47913828,0.050719194,0.057736713,-2.691436768,1015.1865
2021.02.12 16:24:53,14.099999,-23.519999,-27.9,-0.4644893,-1.934574,11.942643,0.21064161,-4.80E-04,-0.018545868,0.160474524,0.038873751,-2.703476906,1015.1865
2021.02.12 16:24:53,14.28,-23.1,-28.32,1.7526091,-0.052674048,7.4414062,0.38473818,0.18155771,0.10118371,0.006889882,-0.231305853,-2.421946526,1015.1843
2021.02.12 16:24:53,14.28,-23.22,-28.26,0.58420306,-0.016759925,9.067119,-0.003161228,0.05877379,-0.20730323,0.001844602,-0.064342014,-2.537289381,1015.1843
2021.02.12 16:24:53,14.28,-22.98,-27.779999,-0.105348095,0.2657645,9.335278,0.029825496,0.085040994,-0.1413298,-0.028459338,0.011284466,-2.579569101,1015.1826
2021.02.12 16:24:53,14.34,-22.98,-27.539999,0.30886146,0.41181526,8.425453,0.059757892,0.078932345,0.04315152,-0.048805922,-0.036641736,-2.524863243,1015.17773
2021.02.12 16:24:53,14.34,-22.5,-27.119999,0.12450229,0.18914771,8.739103,-0.001328632,0.08992792,0.08346863,-0.021638261,-0.014245611,-2.549915552,1015.17773
2021.02.12 16:24:53,14.34,-22.199999,-26.82,0.12689656,0.73743665,8.873182,-0.096623614,0.1375754,0.26061955,-0.08290948,-0.014300159,-2.50512743,1015.1804
2021.02.12 16:24:53,14.04,-22.26,-26.939999,0.3519584,1.4341706,9.4142885,-0.14060591,0.1638426,0.2752803,-0.151073501,-0.037368149,-2.446575642,1015.1804
2021.02.12 16:24:53,13.98,-21.84,-27.3,0.34716985,1.6831752,9.538791,-0.096623614,0.10703214,0.25390002,-0.174544647,-0.036379524,-2.415673256,1015.18164
2021.02.12 16:24:53,13.86,-21.42,-27.24,0.409421,1.8747171,10.513261,-0.06730208,0.051443405,0.24473704,-0.176333576,-0.038923625,-2.403994322,1015.1797
2021.02.12 16:24:53,13.74,-21.06,-27.3,0.74222517,1.9226027,10.996904,0.012110403,0.072823696,0.22213504,-0.172696814,-0.067391798,-2.377528667,1015.1797
2021.02.12 16:24:53,13.44,-20.82,-27.539999,0.51955765,0.8547561,11.2914,-0.015989399,0.09970176,0.09079901,-0.075476088,-0.045981139,-2.476515532,1015.1797
2021.02.12 16:24:53,13.32,-20.76,-27.24,-0.531529,-0.6943397,11.81814,-0.0300393,-0.03346686,-0.002052507,0.058625441,0.0449454,-2.646058559,1015.1797
2021.02.12 16:24:53,12.78,-21.06,-27.66,-0.098165266,0.19154198,8.719949,0.15871806,0.06976936,0.17632015,-0.02196103,0.011257076,-2.593968868,1015.17725
2021.02.12 16:24:53,12.24,-21.119999,-28.26,-0.4070267,0.16759923,7.884347,0.2002569,0.042891294,0.041318923,-0.021225756,0.051578868,-2.658040524,1015.1797
2021.02.12 16:24:54,11.88,-21.18,-28.08,-0.6177229,-0.58420306,9.167678,0.13061826,-0.08416868,-0.033206634,0.063494578,0.067278832,-2.732187986,1015.1797
2021.02.12 16:24:54,11.28,-21.539999,-28.199999,-0.88109314,-0.3040729,10.221159,-0.07157813,0.001352456,-0.05397605,0.029630762,0.08599028,-2.766498089,1015.1704
2021.02.12 16:24:54,10.38,-21.66,-27.96,-0.15323359,0.81165916,8.059129,0.060979623,0.06488244,0.09263161,-0.100356542,0.019011376,-2.657598019,1015.1704
2021.02.12 16:24:54,10.2,-21.9,-27.66,0.07422252,1.0462981,8.40151,-0.08135198,-0.086612135,0.023603832,-0.12389423,-0.008834196,-2.623583555,1015.1636
2021.02.12 16:24:54,9.9,-21.84,-28.26,-0.68715686,0.84039044,9.1628895,-0.17298177,-0.09149906,-0.058862977,-0.091206178,0.074853353,-2.756006718,1015.166
2021.02.12 16:24:54,9.66,-21.66,-28.439999,-0.61293435,0.96489275,9.598648,-0.18642081,-0.07867089,0.035821136,-0.099984959,0.063769735,-2.744333267,1015.166
2021.02.12 16:24:54,9.84,-21.3,-28.8,0.21069619,1.8411974,9.335278,-0.158321,-0.04568417,0.10423805,-0.194682404,-0.022566058,-2.542842627,1015.1655
2021.02.12 16:24:54,9.599999,-20.82,-29.039999,0.32083282,1.8866886,9.864412,-0.08013025,-0.11349021,-0.0197676,-0.188882306,-0.03251281,-2.530959845,1015.1655
2021.02.12 16:24:54,9.059999,-20.52,-29.039999,0.038308397,1.525153,10.360027,0.05487097,-0.21245039,-0.20730323,-0.146164283,-0.003697695,-2.623352289,1015.1643
2021.02.12 16:24:54,8.88,-20.22,-29.4,0.4166038,1.9441512,10.64734,0.1263422,-0.27048257,-0.17553824,-0.180470258,-0.03910755,-2.542570591,1015.1609
2021.02.12 16:24:54,8.34,-20.22,-29.76,0.8739103,1.594587,10.905922,-0.06485862,-0.068897046,-0.40522358,-0.144726753,-0.079960875,-2.547510147,1015.1609
2021.02.12 16:24:54,7.56,-20.64,-30.24,0.11013664,-0.6847626,12.452623,-0.19558379,-0.044462435,-0.62941116,0.054931957,-0.008844222,-2.803548336,1015.15796
2021.02.12 16:24:54,7.8599997,-20.699999,-30.24,-0.5961744,-1.3000913,9.395134,0.40000984,0.025787065,0.04742758,0.137233406,0.063370697,-2.906021833,1015.15796
2021.02.12 16:24:54,7.74,-21.42,-30.119999,1.3192455,-0.14605077,8.396722,0.2686738,-0.003534466,-0.024043655,0.017181305,-0.155840382,-2.629264832,1015.16797
2021.02.12 16:24:54,7.98,-21.3,-30.179998,0.4166038,-0.090982445,9.138947,0.024327708,0.08809532,-0.06863682,0.009944808,-0.045554001,-2.733146191,1015.16675
2021.02.12 16:24:54,8.28,-21.6,-30.539999,-0.3423813,-0.083799616,9.220352,0.049984045,0.06976936,-0.0900171,0.009082039,0.037116159,-2.826107264,1015.16675
2021.02.12 16:24:54,8.04,-22.199999,-30.84,0.21787901,0.5027977,8.458973,0.050594915,0.086262725,0.11462276,-0.059350077,-0.025751453,-2.732044935,1015.17065
2021.02.12 16:24:55,7.8599997,-22.26,-31.08,0.56744313,0.69912827,8.660092,0.010277809,0.10764301,0.12317487,-0.080383554,-0.06543038,-2.677711725,1015.17065
2021.02.12 16:24:55,7.9199996,-23.34,-30.779999,0.4932206,1.0175668,9.155706,-0.026984973,0.0691585,0.12012055,-0.110526972,-0.053818274,-2.692675591,1015.16675
2021.02.12 16:24:55,7.9199996,-23.22,-30.24,0.3423813,1.5730386,9.316123,-0.030650163,0.06854763,0.12806179,-0.167162657,-0.036734946,-2.674959898,1015.16187
2021.02.12 16:24:55,8.4,-23.16,-29.699999,0.3040729,1.6783867,9.8237095,-0.054473907,0.05816292,0.081636034,-0.169137284,-0.030943081,-2.661227465,1015.16187
2021.02.12 16:24:55,8.4,-23.1,-29.519999,0.23224466,1.4557191,10.59706,0.01516473,0.017845817,0.11889881,-0.136483282,-0.021912443,-2.695134401,1015.1621
2021.02.12 16:24:55,8.04,-22.56,-29.22,0.68715686,1.786129,11.085492,-0.010491611,0.053276002,0.2777238,-0.159449279,-0.061907832,-2.635069132,1015.1621
2021.02.12 16:24:55,7.7999997,-22.8,-29.22,0.36871833,0.61293435,12.019259,-0.06485862,-0.024914749,0.13111612,-0.050927959,-0.030667672,-2.754063845,1015.15967
2021.02.12 16:24:55,7.02,-23.279999,-29.58,-1.0391153,-0.89067024,10.40073,0.21491766,0.10336695,0.22885455,0.085005797,0.099577479,-2.985819101,1015.1687
2021.02.12 16:24:55,6.18,-23.34,-29.64,0.76616794,0.7972935,8.061523,0.30288225,0.07832148,0.37179703,-0.098141126,-0.094755478,-2.727769136,1015.1687
2021.02.12 16:24:55,5.94,-23.88,-29.76,-0.28013015,-0.009577099,7.850827,0.06525568,-0.007810523,0.027269024,0.001219108,0.035666477,-2.940512657,1015.16895
2021.02.12 16:24:55,6.12,-23.76,-29.519999,-0.68715686,-0.2657645,10.156514,-0.109451786,-0.11654454,-0.024654523,0.026101287,0.067553811,-2.975460052,1015.16895
2021.02.12 16:24:55,5.64,-23.699999,-29.519999,-0.5123748,0.845179,9.926663,-0.042256605,0.08809532,0.1262292,-0.084825084,0.051570252,-2.949110031,1015.16724
2021.02.12 16:24:55,6.12,-23.82,-29.279999,0.22506183,1.1731946,7.980118,0.049373183,0.077710606,0.14822033,-0.145911887,-0.028195346,-2.796867132,1015.1655
2021.02.12 16:24:55,6,-23.4,-28.98,-0.30646718,0.7948992,8.8324795,-0.12961033,-0.025525616,-0.04664567,-0.089701794,0.034683835,-2.904896975,1015.1655
2021.02.12 16:24:55,5.46,-23.519999,-29.16,-0.68715686,0.9217958,9.452597,-0.2041359,0.009293704,-0.0619173,-0.096956119,0.072567388,-2.980922699,1015.1731
2021.02.12 16:24:55,5.8199997,-23.16,-28.74,-0.37350687,1.4006507,9.550762,-0.17298177,0.015402356,0.01871691,-0.145505622,0.039087627,-2.895967007,1015.1731
2021.02.12 16:24:56,5.58,-23.039999,-28.92,0.4836435,2.1883671,9.732727,-0.11617129,-0.035910323,0.048649307,-0.220904306,-0.049651653,-2.733551979,1015.17773
2021.02.12 16:24:56,5.8799996,-22.98,-29.64,-0.035914123,1.6855695,9.859624,-0.011713341,-0.12326405,-0.19814025,-0.16931881,0.003642529,-2.825582504,1015.1787
2021.02.12 16:24:56,6.12,-22.98,-29.88,-0.102953814,1.4868447,10.288198,-0.013545937,-0.14830953,-0.22746177,-0.143518642,0.010006648,-2.836170435,1015.1787
2021.02.12 16:24:56,6.06,-22.98,-30.179998,0.66800267,1.6664152,10.64734,-0.05691737,-0.18129624,-0.19142073,-0.154950753,-0.062656797,-2.728594303,1015.17285
2021.02.12 16:24:56,5.94,-22.68,-30.42,0.50040346,0.6895511,10.891556,-0.11739303,-0.12326405,-0.32275677,-0.063159786,-0.045911882,-2.801784754,1015.17285
2021.02.12 16:24:56,5.7,-22.68,-30,-0.9816527,-0.6608198,10.240314,0.006001751,0.002574186,-0.4009475,0.064148597,0.095569551,-3.027727365,1015.17554
2021.02.12 16:24:56,5.7,-22.56,-29.699999,0.25858167,-0.8356019,9.797373,0.16238326,-0.02369302,-0.019156735,0.085052982,-0.026386835,-2.88779521,1015.1665
2021.02.12 16:24:56,5.52,-22.8,-29.64,0.33759275,-0.42139238,9.462174,0.1141249,0.13574281,-0.04542394,0.044476744,-0.035663009,-2.87516737,1015.1665
2021.02.12 16:24:56,5.3399997,-22.74,-29.34,1.0486923,0.82602483,9.490906,0.13061826,0.0795432,-0.03259577,-0.086291984,-0.110048026,-2.741898775,1015.16895
2021.02.12 16:24:56,5.58,-22.92,-29.16,0.29689008,0.5554718,8.633755,0.1758223,0.13574281,-0.09734749,-0.064210825,-0.034373589,-2.838203669,1015.16895
2021.02.12 16:24:56,5.4,-23.039999,-28.98,0.7015225,0.5458947,8.032792,0.1141249,0.08748446,-0.09673662,-0.067597441,-0.087111324,-2.782825232,1015.1704
2021.02.12 16:24:56,5.58,-22.859999,-28.68,-0.031125572,0.6177229,8.5331955,-0.028206702,0.07160196,-0.11261912,-0.072264045,0.003647571,-2.883340836,1015.1741
2021.02.12 16:24:56,5.8199997,-23.34,-28.619999,-0.15562786,1.1205206,8.945011,-0.09295842,0.025787065,0.09996199,-0.124599874,0.017396532,-2.876363516,1015.1741
2021.02.12 16:24:56,5.64,-23.34,-28.92,0.117319465,1.8842943,9.217958,-0.098456204,0.028841393,0.15616159,-0.201621786,-0.012726585,-2.803569078,1015.17285
2021.02.12 16:24:56,5.58,-23.4,-28.98,0.17238778,1.9561225,10.721562,-0.08684977,0.047778215,0.1628811,-0.180439815,-0.01607722,-2.814813375,1015.17285
2021.02.12 16:24:56,5.52,-23.4,-28.98,0.37350687,1.6592325,10.486923,0.041431934,0.0813758,0.20930687,-0.156820625,-0.035601392,-2.803440809,1015.1804
2021.02.12 16:24:56,5.3399997,-23.34,-28.92,1.036721,1.9824595,10.956202,5.04E-04,0.027619662,0.17387667,-0.178227946,-0.094343223,-2.720556021,1015.1743
2021.02.12 16:24:57,5.2799997,-23.22,-28.8,0.12450229,-0.34716985,12.167705,-0.050197855,-0.12754011,-0.06680422,0.028522842,-0.010231834,-2.913650751,1015.1743
2021.02.12 16:24:57,4.98,-23.4,-29.16,-0.17238778,-0.47885495,10.324113,0.2851672,-0.12020972,0.10973583,0.046342518,0.016696034,-2.96188736,1015.1802
2021.02.12 16:24:57,4.44,-24.119999,-29.279999,-0.29928434,0.28731298,7.4701376,0.3425885,-0.080503486,0.07980344,-0.0384118,0.040042683,-3.000437498,1015.1802
2021.02.12 16:24:57,4.08,-24.18,-29.16,-0.6656084,-0.31604427,8.549955,-0.043478332,-0.04934936,0.033377677,0.036836259,0.077692643,-3.070239067,1015.1826
2021.02.12 16:24:57,3.54,-24.539999,-28.68,-0.15802214,0.4285752,9.905115,-0.13449726,0.059995517,0.033377677,-0.043235604,0.015952235,-3.009940386,1015.18335
2021.02.12 16:24:57,3.3,-24.539999,-28.56,-0.031125572,0.9720756,8.889942,0.032268956,0.072823696,0.01627345,-0.108912185,0.003501198,-2.992397785,1015.18335
2021.02.12 16:24:57,3.6599998,-24.3,-28.26,-0.44294083,0.70631105,8.624178,-1.07E-04,0.032506585,-0.028319713,-0.081609473,0.051315263,-3.041230917,1015.18164
2021.02.12 16:24:57,3.72,-24.3,-28.26,-0.54350036,0.70631105,8.81572,-0.14732543,0.022121875,-0.028930578,-0.079797864,0.061573345,-3.051927328,1015.18164
2021.02.12 16:24:57,3.84,-24.18,-28.92,-0.38547826,1.0702409,9.452597,-0.2004707,0.041669562,-0.019156735,-0.112648942,0.040757563,-3.014236212,1015.17993
2021.02.12 16:24:57,4.44,-23.939999,-28.74,-0.08140534,1.4413534,9.364009,-0.15709928,-0.021860424,-0.005106833,-0.152720511,0.008693209,-2.927634716,1015.17847
2021.02.12 16:24:57,4.5,-23.58,-29.039999,-0.052674048,1.733455,9.495694,-0.13755158,-0.0609558,-0.043591343,-0.180560723,0.005547094,-2.904769421,1015.17847
2021.02.12 16:24:57,4.68,-23.58,-29.519999,-0.21787901,1.4485363,10.611426,-0.10334312,-0.16174856,-0.1413298,-0.135640427,0.020529605,-2.934227467,1015.1736
2021.02.12 16:24:57,5.04,-23.4,-29.58,-0.38547826,1.8819,10.494106,-0.02331978,-0.11776627,-0.10101268,-0.177326053,0.036716327,-2.923013926,1015.1736
2021.02.12 16:24:57,4.44,-23.519999,-29.939999,0.7877164,1.8914771,11.080704,0.049984045,-0.17335501,-0.016102407,-0.168652937,-0.070969634,-2.796501875,1015.1738
2021.02.12 16:24:57,4.3199997,-23.58,-30.359999,0.24421602,-0.057462595,11.502096,-0.045921795,-0.05179282,-0.298933,0.00499467,-0.021229116,-2.935407162,1015.17334
2021.02.12 16:24:57,4.56,-23.939999,-30.779999,-0.85954463,-0.89545876,10.489318,0.23324361,0.01356976,-0.10162354,0.084879026,0.081762075,-3.065063238,1015.17334
2021.02.12 16:24:57,4.5,-24.539999,-30.66,1.0941836,0.16759923,8.530801,0.44826818,-0.05301455,0.13966823,-0.019484263,-0.127566203,-2.805657625,1015.1738
2021.02.12 16:24:58,4.8599997,-24.96,-30.66,-0.009577099,-0.22506183,8.849239,0.13672692,0.105199546,-0.114451714,0.025427405,0.001082251,-2.956164122,1015.1738
2021.02.12 16:24:58,4.62,-25.38,-30.48,0.06943397,0.5123748,9.3831625,0.103740185,0.03983697,0.002834415,-0.0545501,-0.007399713,-2.939777136,1015.1731
2021.02.12 16:24:58,4.7999997,-25.74,-29.82,-0.12210801,0.62251145,7.814913,0.10312933,0.14368404,0.07064046,-0.079479367,0.015623729,-2.957593203,1015.1721
2021.02.12 16:24:58,5.1,-25.92,-30,0.33519846,0.63208854,8.791777,-0.069134675,0.063049845,0.16715716,-0.071720004,-0.038107906,-2.884371758,1015.1721
2021.02.12 16:24:58,5.16,-25.98,-29.939999,0.45012367,1.211503,8.892337,-0.08746063,0.032506585,0.22457848,-0.135236502,-0.050576109,-2.844111204,1015.17065
2021.02.12 16:24:58,5.4,-25.859999,-30.179998,0.44772938,1.4652961,9.253872,-0.14182764,0.021511009,0.1665463,-0.1568598,-0.048345223,-2.824413538,1015.17065
2021.02.12 16:24:58,5.22,-25.8,-31.019999,0.35674694,1.6712039,9.3280945,-0.1479363,0.10092349,0.1243966,-0.177150548,-0.038225725,-2.831361771,1015.1736
2021.02.12 16:24:58,4.8599997,-25.56,-31.14,0.39266106,1.9178141,10.556357,-0.13877332,0.008071974,0.12500747,-0.179592237,-0.037179504,-2.844190836,1015.167
2021.02.12 16:24:58,4.92,-25.619999,-31.32,0.3232271,2.2530127,10.819728,-0.03248276,0.04594562,0.15310727,-0.205209211,-0.029864985,-2.838758945,1015.167
2021.02.12 16:24:58,5.04,-25.98,-32.219997,0.16759923,1.664021,11.183658,0.007223482,0.1375754,0.023603832,-0.147690415,-0.014984963,-2.884069681,1015.1821
2021.02.12 16:24:58,5.4,-25.5,-32.1,-0.58420306,-0.36871833,11.435057,-0.009880745,0.0709911,-0.03259577,0.032191429,0.051044397,-3.000969887,1015.1821
2021.02.12 16:24:58,5.7599998,-25.68,-32.399998,0.30167863,-0.102953814,10.465375,0.19109392,0.11924945,0.154329,0.009833165,-0.028818376,-2.889663935,1015.1804
2021.02.12 16:24:58,6,-25.859999,-32.7,0.045491222,0.31843856,7.597034,0.26317602,0.11497339,0.052925367,-0.041890897,-0.005987953,-2.893602848,1015.17773
2021.02.12 16:24:58,6.24,-25.619999,-32.399998,-0.66321415,-0.5147691,8.387145,0.01760819,-0.1012729,-0.054586917,0.061108787,0.07891088,-3.009401321,1015.17773
2021.02.12 16:24:58,6.18,-26.22,-32.94,-0.4668836,0.026337024,10.015251,-0.13816245,-0.048738495,-0.05580865,-0.002626833,0.046583537,-2.965891361,1015.1677
2021.02.12 16:24:58,6.42,-26.34,-32.94,-0.5123748,0.50758624,8.475733,0.10923798,0.14796011,0.14455515,-0.059706826,0.060378499,-2.961698771,1015.1677
2021.02.12 16:24:59,6.72,-26.34,-33.6,0.17717634,0.9912298,7.7143536,-1.07E-04,0.070380226,0.11462276,-0.127758086,-0.022963064,-2.81157732,1015.1687
2021.02.12 16:24:59,6.7799997,-26.34,-33.54,-0.3998439,0.7996878,9.371192,-0.22246185,-0.032856,-0.05031086,-0.085051447,0.042641483,-2.916819334,1015.1765
2021.02.12 16:24:59,6.66,-26.099998,-33.54,-0.34716985,1.228263,9.58907,-0.19802724,0.02639793,-0.038093556,-0.127313673,0.036188938,-2.894805193,1015.1765
2021.02.12 16:24:59,7.02,-25.199999,-34.2,0.14365649,1.7813405,9.632168,-0.10334312,-0.003534466,-0.08146499,-0.182850599,-0.014913138,-2.756600618,1015.1658
2021.02.12 16:24:59,7.2,-24.84,-34.44,-0.3519584,1.4006507,9.794978,-0.05569564,-0.06339926,-0.15476881,-0.141943559,0.035917081,-2.847655773,1015.1658
2021.02.12 16:24:59,7.5,-24.779999,-35.16,-0.45012367,1.4365649,10.659311,0.006001751,-0.1574725,-0.10956479,-0.133845851,0.04220314,-2.84729743,1015.1682
2021.02.12 16:24:59,7.9199996,-24.359999,-35.46,-0.35435268,1.4269878,11.140561,0.01760819,-0.1806854,-0.05825211,-0.127332002,0.031796716,-2.808637619,1015.16406
2021.02.12 16:24:59,7.62,-24.6,-35.82,1.472479,1.6137413,10.24989,-0.025152376,-0.08111435,-0.18653381,-0.154596463,-0.142681822,-2.555041552,1015.16406
2021.02.12 16:24:59,7.62,-24,-36.059998,-1.4341706,-1.1923488,11.418297,-0.12961033,-0.03346686,-0.525564,0.103241935,0.124948524,-3.031163216,1015.1665
2021.02.12 16:24:59,7.56,-23.46,-36.3,0.6703969,-0.4860378,9.775824,0.33037117,0.06366071,0.001612684,0.049561232,-0.06846983,-2.762937546,1015.1665
2021.02.12 16:24:59,7.98,-23.4,-36.84,0.3423813,-0.57223165,7.9130783,0.31021264,0.1412406,-0.13644286,0.072121762,-0.043240804,-2.788655281,1015.1763
2021.02.12 16:24:59,8.34,-23.58,-36.66,0.14605077,0.06943397,9.629773,-0.069134675,0.042891294,-0.18225776,-0.007209389,-0.015165421,-2.77713871,1015.1748
2021.02.12 16:24:59,8.7,-24,-36.48,-0.50758624,0.58420306,9.024022,0.011499538,0.06488244,-0.13827544,-0.064546689,0.056189131,-2.843055964,1015.1748
2021.02.12 16:24:59,9.3,-24.3,-36.42,-0.052674048,0.5770202,8.566715,0.05731443,0.07221282,-0.008772025,-0.067253217,0.006148609,-2.746990681,1015.17676
2021.02.12 16:24:59,9.54,-24.119999,-35.94,0.014365649,0.6703969,8.593052,0.02005165,0.053886868,0.033377677,-0.077858351,-0.001671773,-2.717318296,1015.17676
2021.02.12 16:24:59,9.719999,-23.88,-36.18,-0.07901107,1.0846065,8.834874,-0.06546948,0.016624086,0.13539216,-0.122148193,0.008942851,-2.68818593,1015.1738
2021.02.12 16:24:59,9.78,-23.76,-36.719997,-0.22745611,1.637684,9.754275,-0.11189524,0.048999947,0.15310727,-0.166298196,0.023314381,-2.665895462,1015.1709
2021.02.12 16:25:00,9.719999,-23.46,-36.84,-0.28252444,1.7310607,10.084685,-0.035537086,0.04716735,0.19037004,-0.169930339,0.028007871,-2.665660381,1015.1709
2021.02.12 16:25:00,9.42,-23.64,-37.14,-0.08619389,1.5131817,11.123801,-0.003772093,-0.012697445,0.23618494,-0.135197103,0.007748445,-2.6810956,1015.1719
2021.02.12 16:25:00,9.179999,-23.519999,-37.5,0.6751855,1.8723229,11.430268,-0.020265454,0.12963416,0.2893302,-0.16208443,-0.059001401,-2.558825254,1015.1719
2021.02.12 16:25:00,9.24,-23.34,-37.559998,-0.71828246,-0.52913475,11.708004,0.07319693,-0.11959886,0.048649307,0.045078903,0.061272897,-2.871774435,1015.16846
2021.02.12 16:25:00,9.12,-23.64,-38.399998,0.44533512,-0.20111908,9.5794935,0.22896756,-0.062177528,0.2545109,0.020969028,-0.046454933,-2.722154856,1015.1731
2021.02.12 16:25:00,9,-23.88,-38.76,0.37350687,0.5554718,7.283384,0.10129673,-0.032856,-0.037482694,-0.076018766,-0.05123717,-2.658239841,1015.1731
2021.02.12 16:25:00,9,-23.939999,-39.12,-0.74222517,-0.23224466,9.47654,-0.028206702,-0.12204232,-0.123003826,0.024427643,0.078162819,-2.908278704,1015.16943
2021.02.12 16:25:00,8.4,-24.359999,-39.239998,-0.62251145,0.5865973,9.529214,-0.004993823,0.018456683,-0.06252817,-0.061349772,0.065233946,-2.881436586,1015.16943
2021.02.12 16:25:00,8.5199995,-24.539999,-38.879997,-0.21787901,1.0606637,8.339259,0.043875396,0.03189572,-0.011826351,-0.126467243,0.026120959,-2.772856951,1015.16675
2021.02.12 16:25:00,8.58,-24.3,-39.12,-0.4285752,0.83081335,8.61939,-0.07707592,-0.10432723,-0.05397605,-0.095974199,0.04968131,-2.827554226,1015.16675
2021.02.12 16:25:00,8.76,-24.6,-39.059998,-0.7733508,0.9960183,8.937828,-0.09173669,-0.0609558,-0.020378463,-0.11057087,0.086310618,-2.880634546,1015.16675
2021.02.12 16:25:00,9,-24.42,-39.42,-0.409421,1.4245936,9.201198,-0.11922562,-0.018195232,0.01627345,-0.15345785,0.044467155,-2.76023221,1015.1587
2021.02.12 16:25:00,8.639999,-24.42,-39.96,-0.15802214,1.7645805,9.26345,-0.12533428,0.023343606,-0.02221106,-0.188206643,0.017057016,-2.691907883,1015.1587
2021.02.12 16:25:00,8.22,-24.3,-40.32,-0.22985038,1.3671309,9.61062,-0.09784534,-0.12692924,-0.0936823,-0.14126423,0.023911735,-2.765244961,1015.1582
2021.02.12 16:25:00,7.7999997,-23.64,-40.62,0.06943397,1.5299416,10.853248,-0.10334312,-0.16846807,-0.08757364,-0.140040651,-0.006397442,-2.715271473,1015.1599
2021.02.12 16:25:00,7.3799996,-23.4,-41.28,0.4956149,1.3886794,11.521251,-0.11067351,-0.11959886,-0.19814025,-0.119843572,-0.042990949,-2.678921223,1015.1599
2021.02.12 16:25:00,7.2,-23.279999,-41.34,0.37829542,0.31843856,10.862824,-0.1479363,0.006239377,-0.31115034,-0.029288389,-0.034810707,-2.768631458,1015.16064
2021.02.12 16:25:01,7.3799996,-23.22,-41.52,-0.94095,-0.8284191,10.022434,-0.016600264,0.019678414,-0.4626449,0.082109556,0.093609989,-3.011942863,1015.16064
2021.02.12 16:25:01,7.5,-23.4,-42.059998,-0.090982445,-0.9385557,9.402317,0.12817481,0.0832084,-0.2659463,0.099487536,0.009676296,-2.888904095,1015.16284
2021.02.12 16:25:01,7.8599997,-23.64,-41.76,1.2067145,0.18675344,8.5882635,0.12145528,0.048999947,-0.027097983,-0.021530341,-0.139593542,-2.603327036,1015.166
2021.02.12 16:25:01,8.4,-23.64,-42.12,-0.27294734,0.44533512,9.972155,0.007834347,0.033728313,-0.22074227,-0.044611529,0.027364118,-2.819776535,1015.166
2021.02.12 16:25:01,8.639999,-24.18,-42.3,-0.62251145,0.46209505,8.382356,0.17643315,0.13146675,-0.11811691,-0.054920431,0.074128427,-2.895089865,1015.16943
2021.02.12 16:25:01,8.94,-24.6,-42.18,-0.16520496,0.23224466,7.7957587,0.14344643,0.11497339,-0.036871824,-0.029775664,0.021188473,-2.809525728,1015.16943
2021.02.12 16:25:01,9.179999,-25.019999,-42.059998,-0.04070267,0.5506832,8.365596,-0.08379544,0.046556484,0.13050525,-0.065731533,0.004865445,-2.757399082,1015.17065
2021.02.12 16:25:01,9,-25.56,-41.94,0.08140534,1.4964218,9.629773,-0.18580994,0.02639793,0.18792659,-0.154156923,-0.008453305,-2.680510998,1015.177
2021.02.12 16:25:01,8.88,-25.5,-41.94,-0.14844504,1.8507744,9.8787775,-0.11311697,0.033117447,0.20625255,-0.185181201,0.01502553,-2.697073936,1015.177
2021.02.12 16:25:01,8.76,-25.92,-41.879997,-0.043096945,1.8340145,10.656918,-0.07341073,-0.003534466,0.22457848,-0.17042537,0.004044013,-2.705532551,1015.16846
2021.02.12 16:25:01,8.46,-26.34,-42.48,-0.13886794,1.3623424,11.133378,0.024327708,-0.039575517,0.2581761,-0.121750914,0.012472471,-2.780128479,1015.16846
2021.02.12 16:25:01,8.099999,-26.699999,-42.719997,0.7134939,1.3671309,11.466182,-0.016600264,0.019678414,0.3052127,-0.118444398,-0.062145807,-2.67904067,1015.1709
2021.02.12 16:25:01,7.8599997,-27.42,-42.78,-0.6344828,-0.6344828,11.545193,0.037766743,-0.034688596,0.05475796,0.054818671,0.05490122,-2.958718538,1015.17163
2021.02.12 16:25:01,7.3199997,-28.32,-42.84,0.32801566,0.69194543,9.364009,0.20575468,-0.006588792,0.1928135,-0.073715046,-0.035015088,-2.803954124,1015.17163
2021.02.12 16:25:01,7.08,-29.099998,-42.36,-1.2546,-0.48124924,7.3312693,0.2124742,0.023343606,-0.031374037,0.064612716,0.169488207,3.136354446,1015.1748
2021.02.12 16:25:01,6.96,-29.88,-42.42,-0.600963,-0.46927786,9.677659,-0.011713341,-0.032245133,0.06514267,0.048359886,0.062018339,-3.007118225,1015.1748
2021.02.12 16:25:02,6.7799997,-30.84,-42.12,-0.37590113,0.9122187,8.8085375,0.004169155,0.08381927,0.1243966,-0.103099719,0.042648759,-2.95463562,1015.1753
2021.02.12 16:25:02,6.72,-31.56,-41.7,-0.37111259,0.88588166,8.265037,-0.061193425,-0.05423628,0.07980344,-0.106669918,0.044871364,-2.963559628,1015.17944
2021.02.12 16:25:02,6.54,-32.1,-41.579998,-0.65363705,0.7589851,8.880365,-0.11189524,-0.073783964,0.081636034,-0.085031673,0.073472254,-3.020098448,1015.17944
2021.02.12 16:25:02,6.66,-32.76,-41.52,-0.63208854,1.0917894,9.4142885,-0.15099062,-0.030412536,0.1524964,-0.115198702,0.067040786,-3.003154039,1015.1797
2021.02.12 16:25:02,6.3599997,-33.3,-41.7,0.15323359,1.8938714,9.232324,-0.10089967,-0.04140811,0.18853745,-0.202300906,-0.016595986,-2.858789206,1015.1797
2021.02.12 16:25:02,6.18,-33.18,-42.54,-0.36392978,1.472479,9.981731,-0.044089198,-0.21489385,0.12561834,-0.146365225,0.036443442,-2.969358683,1015.1721
2021.02.12 16:25:02,6.12,-33.54,-42.899998,0.2466103,1.4652961,10.723957,0.03471242,-0.2857542,0.186094,-0.135761246,-0.022992151,-2.888290405,1015.1714
2021.02.12 16:25:02,5.16,-33.78,-42.96,0.89067024,1.9656997,10.084685,-0.047754392,-0.30041498,0.154329,-0.191777304,-0.088090524,-2.800035477,1015.1714
2021.02.12 16:25:02,4.44,-34.44,-43.079998,1.7478206,1.211503,11.897152,-0.21085541,-0.25398922,-0.11689517,-0.100411095,-0.145867407,-2.800951004,1015.1692
2021.02.12 16:25:02,4.14,-35.34,-43.26,-3.2562137,-2.0447106,13.1206255,0.33709073,0.07648888,-0.23112696,0.150113344,0.243260458,2.988066912,1015.1692
2021.02.12 16:25:02,3.1799998,-36.18,-43.32,0.5243462,0.10774237,7.273807,0.7170489,-0.004756197,0.6002606,-0.014772965,-0.071962424,-2.966524124,1015.17554
2021.02.12 16:25:02,3.06,-37.2,-43.02,-0.35674694,-0.25379312,7.2953553,0.14650077,0.25974843,0.20136562,0.034732822,0.048861638,-3.116900682,1015.17773
2021.02.12 16:25:02,3.24,-38.04,-42.54,-0.73743665,0.21548474,9.905115,-0.049586985,0.13635367,0.3864578,-0.021691447,0.074312985,-3.139633656,1015.17773
2021.02.12 16:25:02,2.82,-39.18,-41.82,-0.6751855,0.4189981,8.480521,0.059757892,0.22492914,0.8281133,-0.049211498,0.079448454,3.127891779,1015.17505
2021.02.12 16:25:02,2.1599998,-40.32,-41.28,-0.19633053,0.57462597,9.57231,-0.030650163,0.14551665,0.920354,-0.05994549,0.02050738,-3.106844187,1015.17505
2021.02.12 16:25:02,1.0799999,-41.219997,-40.98,0.15802214,0.5650489,9.268238,0.019440787,0.22859433,1.1133875,-0.060881965,-0.017048206,-3.095613003,1015.17456
2021.02.12 16:25:02,-0.78,-41.64,-41.16,0.4070267,1.2498114,9.064724,-0.03248276,0.19010982,1.1445415,-0.136876345,-0.044872135,-3.111656427,1015.16675
2021.02.12 16:25:03,-2.52,-41.879997,-40.98,-0.21309046,1.1420691,9.536397,-0.09906707,0.2096575,1.0034317,-0.119161852,0.022341248,3.04832077,1015.16675
2021.02.12 16:25:03,-4.3199997,-41.64,-40.98,-0.24900457,0.87630457,9.797373,-0.10761919,0.22309655,1.0303098,-0.089176789,0.025409972,3.000869989,1015.166
2021.02.12 16:25:03,-6.24,-41.16,-41.399998,-0.24421602,1.0247496,10.060742,-0.11739303,0.15590137,1.2544973,-0.101476513,0.024269389,2.947110891,1015.166
2021.02.12 16:25:03,-8.099999,-40.62,-41.64,0.071828246,0.9481328,11.480548,-0.14182764,0.072823696,1.3332989,-0.082397431,-0.006256436,2.933085442,1015.1599
2021.02.12 16:25:03,-10.38,-39.899998,-42.48,-1.3934679,-0.32562137,11.98574,0.045707993,0.121082045,1.2673254,0.026979089,0.11574088,2.786152363,1015.1609
2021.02.12 16:25:03,-12.719999,-39.18,-42.66,-0.08619389,0.71828246,9.486116,0.21125247,0.20904665,1.4408112,-0.075572014,0.00908607,2.791136265,1015.1609
2021.02.12 16:25:03,-15.179999,-38.7,-42.66,-1.350371,0.18435916,8.260248,0.24729352,0.21820962,1.2789319,-0.022022892,0.162044853,2.617402077,1015.15576
2021.02.12 16:25:03,-17.58,-38.16,-42.66,-1.3264283,-0.05506832,8.4781275,0.15505287,0.16017741,1.2954253,0.006417187,0.155194879,2.583833694,1015.15576
2021.02.12 16:25:03,-19.619999,-37.2,-42.18,-1.3479767,-0.117319465,9.648928,-0.095401876,0.19499673,1.1824151,0.012041285,0.138803884,2.550737143,1015.1577
2021.02.12 16:25:03,-21.48,-36.059998,-42.36,-1.2067145,0.117319465,8.971348,-0.109451786,0.3043416,1.1720306,-0.012959687,0.133705124,2.493201017,1015.1658
2021.02.12 16:25:03,-23.279999,-34.2,-42.42,-0.21548474,0.71828246,8.791777,-0.17481436,0.15467963,1.2764884,-0.081493936,0.0245049,2.471484661,1015.1658
2021.02.12 16:25:03,-24.779999,-32.1,-42.84,-0.37590113,1.2067145,9.648928,-0.25728115,0.09848002,1.1598133,-0.124322735,0.038938124,2.360615253,1015.1655
2021.02.12 16:25:03,-26.519999,-29.939999,-43.62,-0.32562137,1.2186859,9.883567,-0.20474677,0.037393507,0.94967556,-0.12261913,0.03293382,2.290445805,1015.1655
2021.02.12 16:25:03,-27.84,-27.66,-44.219997,-0.19393626,1.3791022,9.203592,-0.14121677,-0.003534466,0.7780224,-0.148704767,0.021068681,2.198939323,1015.166
2021.02.12 16:25:03,-29.039999,-25.439999,-44.82,-0.2466103,1.4533248,9.313729,-0.16259706,-0.08783387,0.6491298,-0.154739484,0.026471963,2.116538763,1015.1665
2021.02.12 16:25:03,-30.119999,-23.279999,-44.82,-0.21309046,1.1253091,10.202005,-0.111284375,-0.13731395,0.4915266,-0.109834865,0.02088408,2.103297234,1015.1665
2021.02.12 16:25:03,-31.14,-21.66,-44.7,0.15562786,1.0343267,10.779025,-0.115560435,-0.18129624,0.45426384,-0.095654532,-0.014437024,2.085619211,1015.1692
2021.02.12 16:25:04,-31.98,-19.98,-44.34,0.8930645,0.9696813,10.934653,-0.14060591,0.007461108,0.21358293,-0.088156283,-0.081491992,2.080051899,1015.1692
2021.02.12 16:25:04,-32.52,-19.02,-44.28,-0.409421,0.08619389,9.361614,-0.061193425,-0.031634267,0.07186219,-0.009198109,0.043706167,2.066752434,1015.17065
2021.02.12 16:25:04,-32.94,-18.18,-44.04,0.56265455,-0.5219519,12.4358635,0.016386459,-0.06584272,-0.011826351,0.041904066,-0.045213673,2.146584034,1015.16943
2021.02.12 16:25:04,-33.54,-17.94,-44.219997,-0.10055954,-1.0606637,9.306546,0.30104965,0.257305,0.013219124,0.113473423,0.010804828,2.161097527,1015.16943
2021.02.12 16:25:04,-33.719997,-18.18,-44.34,2.0064023,0.61293435,8.454185,0.2124742,0.003795916,0.16532457,-0.070424683,-0.233015582,2.143449545,1015.1753
2021.02.12 16:25:04,-34.32,-19.02,-44.579998,-0.26097596,0.37829542,9.234718,0.10984885,0.019067546,-0.015491542,-0.040925264,0.028252786,2.021716118,1015.1753
2021.02.12 16:25:04,-34.739998,-19.92,-44.579998,-0.105348095,0.65842557,8.885154,0.2039221,-0.005367062,0.15188552,-0.073963635,0.011856087,2.010780573,1015.1843
2021.02.12 16:25:04,-34.8,-20.34,-44.34,0.21309046,0.49082634,8.051947,0.17948748,0.02639793,0.1628811,-0.060860883,-0.026458289,2.051969528,1015.1821
2021.02.12 16:25:04,-35.219997,-20.88,-44.04,0.7015225,0.93616146,9.059936,0.018829921,0.006239377,0.13600303,-0.102659263,-0.077277102,2.037823915,1015.1821
2021.02.12 16:25:04,-35.52,-20.58,-43.44,0.16759923,1.228263,9.330489,-0.036758814,0.03556091,0.16898976,-0.130866259,-0.017960604,1.970008016,1015.1741
2021.02.12 16:25:04,-36.059998,-20.58,-43.32,0.7302538,2.030345,9.165284,-0.056306504,0.050221674,0.2563435,-0.217337817,-0.079508103,1.873925447,1015.1741
2021.02.12 16:25:04,-36.36,-20.46,-43.379997,0.26097596,1.4868447,10.05356,-0.08135198,0.030063123,0.20808515,-0.146779299,-0.025952732,1.943221331,1015.17163
2021.02.12 16:25:04,-36.6,-19.8,-43.5,0.22506183,1.56825,10.534809,-0.07096727,0.09114964,0.3791274,-0.147745192,-0.021360386,1.922014952,1015.17456
2021.02.12 16:25:04,-36.66,-18.9,-43.559998,0.4764607,1.838803,10.348056,-0.061193425,0.12596896,0.36507753,-0.175677568,-0.046011005,1.870815873,1015.17456
2021.02.12 16:25:04,-36.48,-18.24,-43.68,0.24421602,-0.3328042,12.349669,-0.15709928,-0.11226848,0.05964488,0.026936647,-0.01977253,2.070268631,1015.1731
2021.02.12 16:25:04,-36.48,-17.699999,-43.68,0.43815228,-0.24421602,9.718362,0.062201355,0.06671503,0.14333342,0.02509857,-0.04505448,2.070720196,1015.1731
2021.02.12 16:25:05,-36.48,-17.34,-43.98,-0.06464542,0.45491222,7.637737,0.10312933,0.07160196,0.059034016,-0.059488721,0.008463748,1.950662374,1015.1719
2021.02.12 16:25:05,-36.3,-17.52,-44.46,-0.5219519,-0.41420954,10.252285,-0.010491611,-0.12631838,0.008943068,0.040327553,0.050866872,2.03371048,1015.1775
2021.02.12 16:25:05,-36.3,-17.64,-44.579998,-0.39266106,0.46209505,9.93624,0.065866545,0.14490579,0.073083915,-0.046436351,0.039497521,1.960492611,1015.1775
2021.02.12 16:25:05,-35.76,-17.699999,-44.579998,0.035914123,0.8643332,8.45179,0.16604845,0.0795432,0.1066815,-0.10191109,-0.004249266,1.922612429,1015.17847
2021.02.12 16:25:05,-35.28,-17.94,-44.579998,0.002394275,0.87630457,8.5331955,0.056703568,-0.08722301,0.04437325,-0.102334872,-2.81E-04,1.931199193,1015.17847
2021.02.12 16:25:05,-35.04,-18.42,-44.1,-0.007182824,1.1061549,8.892337,-0.011713341,-0.089055605,-0.013658947,-0.123758405,8.08E-04,1.921681285,1015.1797
2021.02.12 16:25:05,-34.62,-18.3,-44.16,0.34477556,1.7071179,9.4142885,-0.07096727,-0.054847144,-0.07046942,-0.179265842,-0.036606222,1.862749696,1015.17505
2021.02.12 16:25:05,-34.68,-18.539999,-44.399998,0.21787901,1.8651401,9.239507,-0.022708915,-0.0609558,-0.13155594,-0.19913502,-0.023576869,1.838735104,1015.17505
2021.02.12 16:25:05,-34.68,-18.9,-44.16,-0.3902668,1.1348863,10.412702,-0.001328632,-0.18373972,-0.18714468,-0.108486481,0.037462343,1.94243145,1015.166
2021.02.12 16:25:05,-34.5,-19.26,-44.399998,0.15802214,1.2881198,10.206794,0.059757892,-0.1611377,-0.06436076,-0.125523642,-0.015480817,1.950288177,1015.166
2021.02.12 16:25:05,-34.559998,-19.859999,-44.219997,0.50758624,0.66800267,11.808563,-0.22857049,-0.073173106,-0.14010805,-0.056457099,-0.042958148,2.057156324,1015.1665
2021.02.12 16:25:05,-34.38,-20.16,-43.98,0.6249057,0.7637737,10.745505,0.001725694,0.008071974,-0.32275677,-0.070839807,-0.058089651,2.058722019,1015.1758
2021.02.12 16:25:05,-34.32,-20.46,-44.219997,0.21069619,-0.17238778,9.593859,0.16727017,-0.029801672,-0.19997284,0.017962292,-0.02195804,2.13853693,1015.1758
2021.02.12 16:25:05,-33.78,-20.64,-44.28,1.0343267,-0.35435268,8.650515,0.11107057,0.11802772,-0.104067,0.040651072,-0.119003251,2.244361162,1015.1787
2021.02.12 16:25:05,-33.6,-20.88,-43.98,0.65842557,1.0319325,9.186832,0.025549438,0.055719465,-0.18653381,-0.11157465,-0.071548238,2.045273304,1015.1787
2021.02.12 16:25:05,-33.12,-21.6,-43.92,-0.5458947,0.43575802,8.966559,0.14100298,0.073434554,-0.08268672,-0.048470322,0.060806122,2.071441412,1015.1719
2021.02.12 16:25:05,-32.579998,-22.199999,-43.62,0.80687064,0.7685622,8.667274,0.12695307,0.11619512,0.022382103,-0.088063911,-0.092826381,2.136472702,1015.178
2021.02.12 16:25:06,-31.859999,-22.56,-43.32,0.5698374,0.6344828,9.170073,-0.00804815,0.2133227,0.021771237,-0.068947926,-0.062061191,2.158409119,1015.178
2021.02.12 16:25:06,-30.72,-23.22,-43.92,0.5889916,1.6065584,8.786988,-0.031261027,0.17422733,0.08407949,-0.180440292,-0.066929862,2.055943966,1015.1697
2021.02.12 16:25:06,-30.06,-22.8,-44.34,0.32083282,1.7957062,9.086273,-0.07096727,0.13329935,0.09568593,-0.194995731,-0.035294954,2.015673637,1015.1697
2021.02.12 16:25:06,-29.22,-22.619999,-44.82,-0.105348095,1.9752767,10.666494,-0.15587753,0.12780155,0.060255747,-0.183102101,0.009876222,2.015478611,1015.17285
2021.02.12 16:25:06,-28.92,-22.08,-45.719997,-0.21548474,1.6257126,11.236332,0.01760819,0.037393507,0.31071052,-0.143660456,0.019175148,2.04756546,1015.16943
2021.02.12 16:25:06,-28.56,-21.3,-45.96,0.3304099,1.9178141,10.757477,0.007223482,0.11191907,0.39195555,-0.176342368,-0.030704791,2.010253429,1015.16943
2021.02.12 16:25:06,-28.619999,-20.82,-46.32,-0.36392978,0.011971374,11.255486,-0.07951938,-0.027358212,0.07919257,-0.001063048,0.032322288,2.174810886,1015.1709
2021.02.12 16:25:06,-28.439999,-19.859999,-46.2,-0.36871833,-0.15083931,8.978531,0.09152289,0.11741685,0.20441996,0.016784275,0.041043606,2.167981625,1015.1709
2021.02.12 16:25:06,-28.14,-19.32,-46.379997,-0.045491222,0.6392714,7.2977495,0.09213375,0.09053878,0.15371813,-0.087373696,0.006233515,2.062191725,1015.17847
2021.02.12 16:25:06,-27.84,-18.9,-46.379997,-0.7829279,-0.019154198,9.09585,-0.035537086,-0.05301455,0.051703636,0.002098056,0.08586365,2.110356569,1015.176
2021.02.12 16:25:06,-27.599998,-18.66,-46.14,-0.7685622,0.25139886,9.941029,-0.11067351,0.005628512,-0.04053702,-0.025208438,0.077158652,2.084865808,1015.176
2021.02.12 16:25:06,-27.18,-18.779999,-46.32,-0.9122187,0.91461295,8.456578,-0.095401876,0.13452107,0.00222355,-0.107118614,0.107455395,1.984891653,1015.1719
2021.02.12 16:25:06,-27.06,-18.359999,-46.379997,-1.0199611,0.888276,8.889942,-0.21390975,-0.009643119,0.08407949,-0.098943837,0.114232548,1.981868625,1015.1719
2021.02.12 16:25:06,-26.82,-18,-46.62,-0.87630457,0.7829279,9.675264,-0.2462856,-0.05057109,0.15005293,-0.080416895,0.090325192,2.006865978,1015.17505
2021.02.12 16:25:06,-26.16,-16.98,-47.039997,0.14126222,1.5921928,9.387952,-0.1516015,-0.055458013,0.24046099,-0.16798231,-0.015046046,1.904108286,1015.16846
2021.02.12 16:25:06,-26.22,-16.08,-47.16,0.36871833,2.0183737,9.6896305,-0.12533428,-0.058512338,0.11095756,-0.2052214,-0.038034528,1.809362173,1015.16846
2021.02.12 16:25:06,-26.279999,-15.48,-46.739998,-0.19393626,1.5083932,10.041589,-0.002550362,-0.21122865,-0.1480493,-0.149072438,0.019310903,1.872007608,1015.178
2021.02.12 16:25:07,-27,-14.7,-46.8,-0.062251143,1.1229149,10.273833,0.018829921,-0.26803914,-0.16148834,-0.108864412,0.006059119,1.907372355,1015.178
2021.02.12 16:25:07,-27.72,-15,-46.14,0.7350424,0.91700727,11.81814,-0.2090228,-0.26193044,-0.30320907,-0.077289283,-0.062116101,1.997184992,1015.1758
2021.02.12 16:25:07,-28.019999,-14.94,-45.84,0.53871185,0.531529,12.507691,-0.21757494,-0.12387492,-0.43637767,-0.042431332,-0.043043844,2.032042265,1015.1704
2021.02.12 16:25:07,-28.199999,-15.12,-45.539997,-0.9313729,-0.7134939,10.0439825,0.21186334,0.041058697,-0.49868596,0.07061588,0.092465021,2.081727505,1015.1704
2021.02.12 16:25:07,-27.9,-16.08,-45.18,0.14126222,-0.6368771,8.554744,0.34503195,0.02395447,-0.30504167,0.074300066,-0.016511235,2.19178009,1015.1814
2021.02.12 16:25:07,-27.18,-16.5,-45.059998,0.531529,-0.11971374,8.293768,0.17337883,0.19438589,-0.20974669,0.014403633,-0.064000234,2.187072754,1015.1814
2021.02.12 16:25:07,-26.519999,-17.64,-45,-0.21548474,0.42618093,8.904308,0.07991644,0.113751665,-0.20913582,-0.047811851,0.024195332,2.082494736,1015.1863
2021.02.12 16:25:07,-25.859999,-18.66,-45,-0.50758624,0.44533512,8.214757,0.07441866,0.14429492,-0.09307142,-0.054055698,0.061711103,2.08881712,1015.18164
2021.02.12 16:25:07,-25.56,-19.56,-44.76,0.08858817,0.42139238,8.992896,-0.024541512,0.097869165,0.109124966,-0.046821844,-0.009850587,2.177487135,1015.18164
2021.02.12 16:25:07,-24.84,-19.92,-44.879997,0.30646718,1.2138973,8.894731,-0.045921795,0.06366071,0.14822033,-0.13555637,-0.034441289,2.098235846,1015.18164
2021.02.12 16:25:07,-24.66,-19.74,-44.76,0.09337672,1.690358,9.644139,-0.051419582,0.027619662,0.1439443,-0.173502654,-0.009681922,2.019907475,1015.18164
2021.02.12 16:25:07,-24.359999,-19.08,-44.76,-0.27055305,1.9896424,9.364009,-0.017821994,0.04411302,0.16593544,-0.20927918,0.02888483,1.926098228,1015.1765
2021.02.12 16:25:07,-24,-18.119999,-44.94,0.10055954,1.8627458,10.376787,0.00233656,-0.032856,0.33453423,-0.177610919,-0.009690514,1.966896296,1015.17285
2021.02.12 16:25:07,-24.3,-17.52,-45.239998,0.3519584,1.9297855,10.544386,0.123898745,-0.006588792,0.412725,-0.180913642,-0.033366356,1.945303798,1015.17285
2021.02.12 16:25:07,-24.06,-17.039999,-45.539997,0.6296943,1.7166951,10.1541195,-0.037980545,0.14979272,0.22457848,-0.167165041,-0.061934363,1.972026229,1015.1775
2021.02.12 16:25:07,-24.24,-16.56,-45.42,-0.31843856,-0.6703969,12.998518,-0.19741638,0.048999947,-0.035650097,0.051513787,0.024493167,2.210160017,1015.1775
2021.02.12 16:25:08,-24.119999,-15.96,-45.42,-0.10055954,-0.339987,10.187639,0.34503195,0.23409212,0.20625255,0.033358499,0.009870419,2.188616276,1015.18506
2021.02.12 16:25:08,-23.58,-15.719999,-45.42,-0.37829542,-0.102953814,7.613794,0.31876478,0.0972583,0.1243966,0.013504531,0.049644709,2.134598494,1015.18384
2021.02.12 16:25:08,-23.279999,-15.9,-44.94,-0.6560313,-0.28252444,8.164477,0.10435106,-0.07195137,0.107903235,0.03447926,0.080179639,2.145792961,1015.18384
2021.02.12 16:25:08,-22.92,-16.02,-44.52,-1.0223553,0.14126222,10.024829,-0.024541512,-0.07011878,0.04742758,-0.014017607,0.101630956,2.08494997,1015.18726
2021.02.12 16:25:08,-22.859999,-16.38,-44.34,-0.68715686,0.53392327,8.308133,0.096409805,0.038004372,0.17937447,-0.063959084,0.082521111,2.047193527,1015.18726
2021.02.12 16:25:08,-23.22,-16.74,-43.86,-0.6249057,0.6751855,8.861211,-0.026374107,0.011737164,0.11828795,-0.075861,0.070404924,2.045834303,1015.18066
2021.02.12 16:25:08,-23.22,-16.38,-43.98,-0.09337672,1.0798179,9.057542,-0.10639745,-0.013919176,0.14516601,-0.118651263,0.010308913,2.00882411,1015.18164
2021.02.12 16:25:08,-23.279999,-16.02,-44.04,0.14365649,1.498816,9.4142885,-0.14915802,0.0111263,0.051703636,-0.157863393,-0.015258227,1.94365859,1015.18164
2021.02.12 16:25:08,-23.16,-15.599999,-43.739998,0.46927786,2.063865,9.380769,-0.09418015,-0.089055605,-0.083908446,-0.216297939,-0.049983855,1.832605839,1015.1819
2021.02.12 16:25:08,-22.8,-14.94,-43.92,-0.30167863,1.6927522,9.7135725,-0.10578659,-0.12692924,-0.24578774,-0.172452554,0.031047454,1.864573479,1015.1819
2021.02.12 16:25:08,-22.68,-14.759999,-43.739998,-0.14126222,1.4772675,10.45101,-0.05264131,-0.28147814,-0.24517688,-0.14040871,0.013515787,1.922426224,1015.1721
2021.02.12 16:25:08,-22.619999,-15.12,-43.44,0.00478855,1.960911,10.611426,-0.02331978,-0.3034693,-0.22807264,-0.182731017,-4.51E-04,1.870051503,1015.17163
2021.02.12 16:25:08,-22.56,-14.94,-43.14,1.4748733,1.594587,11.176475,-0.110062644,-0.20634171,-0.32458934,-0.140515089,-0.131204203,2.03579855,1015.17163
2021.02.12 16:25:08,-23.22,-15.42,-42.3,-0.4166038,-0.33759275,12.13179,-0.13205379,-0.1593051,-0.65628916,0.027803561,0.034326356,2.162396431,1015.16895
2021.02.12 16:25:08,-23.4,-15.96,-42.18,-0.37350687,-0.28252444,8.854029,0.39267945,0.07709975,-0.32825455,0.031869993,0.042159967,2.172216654,1015.16895
2021.02.12 16:25:08,-23.039999,-16.44,-42.059998,-0.22266756,-0.37111259,8.253065,0.3230408,0.059384655,-0.27877447,0.044920046,0.026973439,2.218496084,1015.1665
2021.02.12 16:25:08,-22.98,-17.58,-41.82,-0.13886794,0.50998056,8.990502,0.023716843,0.08748446,-0.121782094,-0.056656905,0.015444843,2.142665148,1015.1682
2021.02.12 16:25:09,-22.56,-18,-41.879997,-0.4932206,0.69912827,8.470944,0.02677117,0.0990909,-0.06252817,-0.08220727,0.058159318,2.100542307,1015.1682
2021.02.12 16:25:09,-22.26,-18.359999,-41.579998,-0.2944958,0.7877164,8.985713,-0.069134675,0.121082045,0.11767708,-0.087392993,0.032762054,2.128483057,1015.166
2021.02.12 16:25:09,-22.26,-18.359999,-41.76,0.12689656,1.1947432,9.047964,-0.0862389,0.13879713,0.20014389,-0.13127324,-0.014023956,2.100705624,1015.166
2021.02.12 16:25:09,-21.72,-18.42,-41.94,0.18914771,1.2450229,8.583475,-0.093569286,0.11619512,0.263063,-0.144009739,-0.022032697,2.099418163,1015.1616
2021.02.12 16:25:09,-21.539999,-18,-41.94,0.08858817,1.5778271,9.615408,-0.15282321,0.06854763,0.26672822,-0.162637338,-0.009212887,2.048089027,1015.17017
2021.02.12 16:25:09,-21.48,-17.52,-42.059998,0.21548474,2.17879,9.897932,-0.15893187,0.20904665,0.23923926,-0.21662055,-0.021767246,1.940710783,1015.17017
2021.02.12 16:25:09,-21.359999,-17.039999,-42.18,0.16041641,2.1309047,10.192428,-0.028206702,0.060606383,0.22457848,-0.206074029,-0.015737483,1.938890576,1015.1824
2021.02.12 16:25:09,-21.6,-16.02,-42.12,0.409421,2.020768,11.231544,-0.040424008,0.056330327,0.23496321,-0.177898794,-0.036436647,1.958107948,1015.1824
2021.02.12 16:25:09,-21.42,-15.66,-42.239998,0.019154198,0.9624985,11.78462,-0.04531093,0.105199546,-0.02098933,-0.081493132,-0.001625354,2.088740587,1015.18384
2021.02.12 16:25:09,-20.88,-15.24,-42.3,-0.845179,-0.600963,10.673677,0.006612616,0.017845817,0.038875464,0.056068767,0.079018615,2.197431564,1015.1802
2021.02.12 16:25:09,-20.88,-14.82,-42.18,-0.8140534,-0.26097596,9.838076,0.16849191,0.10214522,0.23740666,0.026430629,0.082557112,2.149874926,1015.1802
2021.02.12 16:25:09,-20.82,-14.759999,-42.239998,-0.57223165,0.105348095,8.140534,0.21736112,0.059384655,0.18914832,-0.012908606,0.07017868,2.111070633,1015.1753
2021.02.12 16:25:09,-20.76,-14.94,-42.48,-0.58420306,0.083799616,8.937828,0.060979623,-0.07744916,0.078581706,-0.0093556,0.065270133,2.12560153,1015.1753
2021.02.12 16:25:09,-21.3,-14.82,-42.48,-1.0750294,0.43096948,10.082292,0.03165809,-0.029801672,0.019327777,-0.042478688,0.106224157,2.042720079,1015.1797
2021.02.12 16:25:09,-21.42,-15.36,-42.3,-0.339987,1.1181264,7.8891354,0.12817481,0.005628512,0.10423805,-0.140663341,0.043068949,1.955900431,1015.1738
2021.02.12 16:25:09,-21.48,-15.599999,-42.3,-0.9481328,0.95531565,8.140534,-0.011713341,-0.005977927,3.91E-04,-0.116041295,0.11594817,1.965237498,1015.1738
2021.02.12 16:25:09,-21.48,-15.66,-41.94,-0.9864412,1.1253091,9.433443,-0.20352502,-0.025525616,-0.03626096,-0.118090428,0.104189873,1.97156179,1015.1721
2021.02.12 16:25:10,-21.42,-15.66,-41.76,-0.8140534,1.6161355,9.811738,-0.16992745,0.009293704,0.021160372,-0.162699506,0.082777709,1.918884635,1015.1721
2021.02.12 16:25:10,-21.48,-15.36,-41.82,0.19154198,2.423006,9.435837,-0.015378532,-0.026747344,-0.017324138,-0.25130713,-0.020296628,1.779655695,1015.16895
2021.02.12 16:25:10,-21.3,-15.179999,-41.64,-0.53392327,1.7957062,9.73991,-0.004993823,-0.09333166,-0.15721229,-0.182051167,0.05476328,1.883485317,1015.16797
2021.02.12 16:25:10,-21.3,-15.12,-41.34,-0.91461295,0.89545876,10.565935,0.049984045,-0.22833288,-0.092460565,-0.084234059,0.086347185,2.013669014,1015.16797
2021.02.12 16:25:10,-21.72,-15.299999,-40.92,0.67757976,1.3910737,11.370411,-0.01843286,-0.24421538,0.04254066,-0.121523149,-0.059521105,2.053182125,1015.1699
2021.02.12 16:25:10,-22.32,-15.36,-40.44,0.50758624,0.67757976,11.959403,-0.25422683,-0.12387492,-0.2922135,-0.056545351,-0.042416982,2.13402319,1015.1699
2021.02.12 16:25:10,-22.619999,-15.719999,-39.96,-1.2761484,-0.6751855,9.507666,0.032268956,-4.80E-04,-0.39300627,0.070267797,0.133425653,2.152801752,1015.1821
2021.02.12 16:25:10,-23.279999,-16.08,-39.719997,0.00478855,-0.5123748,8.521224,0.23996313,0.10153435,-0.102845274,0.060056932,-5.62E-04,2.241055965,1015.1821
2021.02.12 16:25:10,-23.039999,-16.74,-39.54,0.85236186,0.749408,8.5882635,0.11901182,0.1412406,-0.022821926,-0.086615697,-0.09892334,2.17304039,1015.1821
2021.02.12 16:25:10,-22.439999,-17.22,-39.3,-0.2083019,0.65842557,9.562734,0.07258606,0.074656285,-0.24517688,-0.068728536,0.021779228,2.12809968,1015.18335
2021.02.12 16:25:10,-22.14,-17.52,-39.12,-0.45251793,0.7541966,8.645726,0.11107057,0.15284704,-0.21280101,-0.086894847,0.052292354,2.101147652,1015.18335
2021.02.12 16:25:10,-21.66,-18.06,-39.48,0.27294734,0.94573855,9.09585,0.10801625,0.06793677,-0.104067,-0.103556179,-0.029998895,2.164620876,1015.17554
2021.02.12 16:25:10,-21.119999,-18.18,-39.54,0.2466103,1.063058,8.408693,0.1245096,0.06610417,-0.12056036,-0.125703052,-0.02931961,2.148410082,1015.1787
2021.02.12 16:25:10,-21.24,-18.539999,-39.78,-0.50998056,1.1875603,9.07909,-0.06608035,0.003185052,-0.054586917,-0.129860893,0.056111921,2.090007305,1015.1787
2021.02.12 16:25:10,-21.06,-18.66,-39.899998,-0.2370332,1.8723229,9.708784,-0.081962846,0.012958895,0.08530122,-0.190454215,0.024409454,2.029167652,1015.17725
2021.02.12 16:25:10,-21.119999,-18.72,-39.719997,-0.03351985,2.343995,10.441432,0.05364924,-0.07072964,0.2545109,-0.220827684,0.003210262,1.994386435,1015.17725
2021.02.12 16:25:11,-21.66,-18.9,-39.48,0.23463893,1.6041641,10.276228,0.15871806,-0.095164254,0.294828,-0.154814869,-0.022829209,2.113328934,1015.1692
2021.02.12 16:25:11,-21.779999,-19.14,-39.36,0.7781393,2.3248408,10.776631,-0.010491611,0.09603657,0.263063,-0.211938307,-0.072081082,2.062799215,1015.17505
2021.02.12 16:25:11,-22.32,-19.02,-39.239998,-0.26097596,0.1699935,12.1605215,-0.10334312,0.020900143,0.03459941,-0.013975002,0.021457624,2.244250059,1015.17505
2021.02.12 16:25:11,-22.68,-18.66,-38.879997,-0.68715686,0.2561874,9.423865,0.15871806,0.080154076,0.13355957,-0.027106337,0.072787851,2.177121878,1015.1809
2021.02.12 16:25:11,-22.74,-18.48,-39.12,-0.6296943,0.40223816,7.7837873,0.20208949,0.004406782,0.15310727,-0.051462658,0.080722399,2.140632391,1015.1809
2021.02.12 16:25:11,-22.74,-18.3,-38.82,-0.6344828,-0.057462595,8.281796,0.078694716,-0.08844473,0.14944208,0.006918039,0.076462373,2.197262526,1015.18896
2021.02.12 16:25:11,-23.039999,-18.42,-39,-0.53871185,0.41420954,10.182851,-0.14671455,0.10092349,-0.025876252,-0.040598046,0.05285456,2.163243532,1015.18384
2021.02.12 16:25:11,-23.34,-18.24,-39.54,-0.18435916,1.4413534,8.679246,-0.028206702,0.10092349,0.10301631,-0.16453065,0.021238185,2.01819396,1015.18384
2021.02.12 16:25:11,-23.58,-17.76,-39.48,-0.4070267,1.3479767,8.514041,-0.10823005,-0.01208658,-0.026487118,-0.156844422,0.047770154,1.997266412,1015.18555
2021.02.12 16:25:11,-23.82,-17.16,-39.719997,-0.9194015,1.2306572,9.270632,-0.16320792,-0.020027827,-0.10040181,-0.131339461,0.098850325,1.984976768,1015.18555
2021.02.12 16:25:11,-23.519999,-16.74,-39.6,-0.99362403,0.8643332,9.498088,-0.16565138,0.0691585,-0.009993755,-0.090260938,0.104233928,2.022335291,1015.18823
2021.02.12 16:25:11,-23.1,-16.38,-39.18,-0.16281068,1.6233183,9.012051,-0.16931657,0.06854763,0.07125132,-0.178187981,0.018063921,1.941473365,1015.1836
2021.02.12 16:25:11,-23.16,-15.66,-39.78,-0.076616794,2.432583,9.684841,-0.18458821,-0.07867089,-0.0619173,-0.246076167,0.007910836,1.802673459,1015.1836
2021.02.12 16:25:11,-23.1,-15.179999,-40.02,-0.71828246,1.5036045,10.726351,-0.14549282,-0.12692924,-0.15171449,-0.138963863,0.066864461,1.931968689,1015.18384
2021.02.12 16:25:11,-23.4,-14.7,-39.96,-0.35674694,1.3575538,10.371999,-0.04653266,-0.17091155,-0.03626096,-0.130070537,0.034381643,1.937169433,1015.18384
2021.02.12 16:25:11,-23.76,-14.4,-39.84,0.31843856,1.4365649,11.894757,-0.15954272,-0.13181616,-0.10467787,-0.120148204,-0.026764944,1.965372562,1015.17334
2021.02.12 16:25:11,-24.18,-14.82,-39.12,-0.36632404,0.84278476,11.164503,0.11168143,-0.1910701,-0.31237203,-0.07530462,0.032799728,2.008052111,1015.1738
2021.02.12 16:25:12,-24.3,-15.24,-38.879997,-1.0079896,-1.0534809,9.4095,0.22102632,-4.80E-04,-0.34169358,0.110865876,0.106717698,2.165338278,1015.1738
2021.02.12 16:25:12,-24.24,-15.839999,-38.7,0.22745611,-0.7805336,8.827691,0.13428345,0.14734924,0.019327777,0.088160321,-0.025760505,2.262404919,1015.1763
2021.02.12 16:25:12,-24.18,-16.38,-38.7,1.23784,1.2306572,9.1628895,0.009666943,0.10214522,0.122564,-0.132322088,-0.134279817,2.090647221,1015.1763
2021.02.12 16:25:12,-23.64,-16.44,-38.82,-0.45491222,1.0439038,8.887548,0.016997326,0.06793677,-0.123003826,-0.116769701,0.051140714,2.007693052,1015.1782
2021.02.12 16:25:12,-23.699999,-16.5,-38.46,-0.29928434,0.6201172,8.554744,0.059757892,0.0954257,-0.091238834,-0.072317451,0.034970343,2.072808743,1015.1699
2021.02.12 16:25:12,-23.279999,-16.08,-38.52,-0.12689656,0.44054657,8.636149,-0.019043725,0.08381927,0.016884316,-0.050962251,0.014692593,2.105288982,1015.1699
2021.02.12 16:25:12,-23.039999,-15.96,-38.579998,-0.22027329,0.6943397,9.040782,-0.076465055,0.0111263,0.090188146,-0.076627724,0.024359588,2.067808867,1015.17236
2021.02.12 16:25:12,-23.34,-15.839999,-38.64,0.12689656,1.4772675,9.002473,-0.12350168,0.0691585,0.20991774,-0.16263032,-0.014094811,1.959022284,1015.17236
2021.02.12 16:25:12,-22.98,-15.599999,-39.18,0.090982445,1.9537282,9.603436,-0.14060591,0.061828114,0.17815274,-0.200692803,-0.009473664,1.88845861,1015.16626
2021.02.12 16:25:12,-23.279999,-15.179999,-39.36,0.36632404,2.063865,10.551569,-0.033093624,0.024565334,0.17265496,-0.193045795,-0.034703556,1.888280153,1015.17017
2021.02.12 16:25:12,-23.22,-14.5199995,-39.48,0.24182175,2.0016139,11.061549,0.010888672,0.056941193,0.14088996,-0.178973436,-0.02185799,1.881257772,1015.17017
2021.02.12 16:25:12,-22.98,-13.86,-39.6,0.75180227,1.4389591,11.573924,0.004780021,0.063049845,-0.024654523,-0.123435467,-0.064865433,1.97477448,1015.1704
2021.02.12 16:25:12,-22.92,-13.139999,-39.719997,-0.9194015,-0.96489275,11.839689,-0.002550362,-0.037132055,-0.23723562,0.081073746,0.077498667,2.128180265,1015.1704
2021.02.12 16:25:12,-22.38,-12.9,-40.02,0.2849187,0.6201172,8.791777,0.21430679,0.061828114,0.1066815,-0.07038033,-0.032396071,2.014053822,1015.1692
2021.02.12 16:25:12,-22.859999,-13.08,-40.02,-1.0462981,0.16759923,7.980118,0.23935229,-0.048738495,-0.027097983,-0.020820865,0.13036947,1.986827016,1015.1738
2021.02.12 16:25:12,-23.1,-13.62,-39.78,-1.2713599,-0.69912827,8.56911,0.07991644,-0.15808338,-0.0900171,0.080529109,0.14729099,2.091920853,1015.1738
2021.02.12 16:25:12,-23.279999,-13.98,-39.42,-1.1875603,0.090982445,9.993703,-0.095401876,-0.10921416,-0.013658947,-0.009040127,0.118276224,2.027677774,1015.17505
2021.02.12 16:25:13,-23.76,-14.28,-39.54,-0.50758624,1.1133378,8.078283,0.007223482,0.016624086,0.21969157,-0.136689633,0.062750928,1.900825977,1015.17505
2021.02.12 16:25:13,-23.58,-14.28,-39.719997,-0.6608198,1.0798179,8.93304,-0.107008316,-0.053625416,0.1439443,-0.119970806,0.073840305,1.920500636,1015.1748
2021.02.12 16:25:13,-23.46,-13.559999,-40.2,-0.82123625,1.0295382,9.349643,-0.09906707,0.001963321,0.109124966,-0.109256096,0.087611258,1.9050107,1015.17896
2021.02.12 16:25:13,-23.519999,-13.259999,-40.44,-0.505192,1.1133378,9.29218,-0.09906707,0.04716735,0.14699861,-0.119071856,0.054313961,1.891170502,1015.17896
2021.02.12 16:25:13,-23.519999,-12.42,-40.5,0.007182824,1.647261,9.28021,-0.0844063,0.030673988,0.12195314,-0.17567277,-7.74E-04,1.786532521,1015.17773
2021.02.12 16:25:13,-23.22,-11.639999,-40.8,-0.12210801,1.8292259,9.818921,-0.122890815,-0.073173106,-0.14194064,-0.184170708,0.012435351,1.738838434,1015.17773
2021.02.12 16:25:13,-22.98,-11.639999,-40.739998,-0.72785956,0.83081335,10.987327,-0.09479102,-0.007199658,-0.2164662,-0.075307548,0.066148721,1.896825075,1015.1821
2021.02.12 16:25:13,-22.98,-11.5199995,-40.86,0.31604427,1.3743137,11.119012,-0.103953995,-0.18618318,-0.029541442,-0.122927487,-0.028416123,1.853900075,1015.18335
2021.02.12 16:25:13,-22.92,-11.759999,-40.559998,1.1372806,1.2426286,11.526039,-0.110062644,-0.14220089,-0.2079141,-0.10688068,-0.098352194,1.933609724,1015.18335
2021.02.12 16:25:13,-23.279999,-11.88,-40.379997,-1.4772675,-1.1995317,10.929865,0.25279132,0.1094756,-0.41377568,0.108333372,0.134344697,2.077312231,1015.19824
2021.02.12 16:25:13,-23.34,-12.66,-40.26,0.5219519,-0.035914123,7.877164,0.41222715,0.09481484,-0.15721229,0.004549263,-0.06616468,2.127919912,1015.19824
2021.02.12 16:25:13,-22.98,-13.32,-40.079998,-0.22266756,-0.36392978,8.729526,-0.02087632,0.0972583,-0.21585535,0.041651867,0.025501877,2.128071308,1015.19775
2021.02.12 16:25:13,-22.859999,-14.04,-40.44,-0.49082634,0.723071,10.122993,0.00233656,-0.011475715,-0.15293622,-0.071224079,0.048448343,1.995408297,1015.19946
2021.02.12 16:25:13,-22.5,-14.82,-40.32,-0.749408,0.1699935,8.365596,0.186207,0.0990909,-0.002663373,-0.020236742,0.08934366,2.065951586,1015.19946
2021.02.12 16:25:13,-22.56,-15,-40.379997,0.22745611,0.24182175,8.142929,0.12695307,0.04961081,0.12317487,-0.029676853,-0.027925698,2.142286062,1015.1809
2021.02.12 16:25:13,-22.56,-15.059999,-40.62,0.7398309,1.4245936,8.583475,-0.05569564,-0.035910323,0.13050525,-0.163873374,-0.085979968,1.966844082,1015.1809
2021.02.12 16:25:14,-22.56,-15.36,-40.5,0.3519584,1.8507744,9.694419,-0.1002888,-0.08600128,0.026047295,-0.188520104,-0.036289319,1.906330824,1015.17773
2021.02.12 16:25:14,-22.439999,-15.66,-40.92,0.062251143,2.0806248,9.699207,-0.019043725,0.006850243,0.024214698,-0.211308241,-0.00641808,1.864157081,1015.18555
2021.02.12 16:25:14,-22.08,-15.78,-40.98,-0.600963,1.6616267,10.26665,-1.07E-04,-0.015140906,0.045594983,-0.160186142,0.058468733,1.932960153,1015.18555
2021.02.12 16:25:14,-21.96,-15.78,-41.16,-0.1699935,1.8435916,10.565935,0.006001751,0.05755206,0.37485135,-0.172723502,0.016087439,1.931526542,1015.1853
2021.02.12 16:25:14,-22.02,-15.42,-41.28,0.9624985,2.5020173,11.121407,-0.026374107,0.07404542,0.36141232,-0.22049123,-0.086329564,1.868388414,1015.1853
2021.02.12 16:25:14,-22.08,-15.12,-40.86,-0.5865973,-0.65842557,12.253899,0.009056077,-0.22772202,-0.12666902,0.053619023,0.047833744,2.193251371,1015.18823
2021.02.12 16:25:14,-22.439999,-14.759999,-40.559998,0.047885496,0.1340794,8.79896,0.22469151,-0.05057109,0.113401026,-0.015236692,-0.005442123,2.137497902,1015.1919
2021.02.12 16:25:14,-22.68,-14.82,-40.559998,-0.4932206,0.29689008,7.063111,0.21736112,0.10336695,0.02910162,-0.041907232,0.069717325,2.048577785,1015.1919
2021.02.12 16:25:14,-22.68,-15.299999,-40.26,-0.6440599,-0.37590113,8.837268,0.03165809,-0.037132055,-0.011215486,0.042397957,0.072751351,2.155740261,1015.18555
2021.02.12 16:25:14,-22.619999,-15.36,-40.379997,-1.1253091,0.11253092,10.652128,-0.24933992,0.012958895,-0.03626096,-0.010505325,0.105251335,2.0809865,1015.18555
2021.02.12 16:25:14,-22.619999,-15.599999,-40.92,-0.18914771,1.2498114,8.923462,-0.06485862,0.0691585,0.14272255,-0.139122993,0.021193499,1.967699289,1015.18555
2021.02.12 16:25:14,-22.8,-15.179999,-40.68,0.17238778,1.1971374,8.291373,-0.027595837,-0.02613648,0.10484891,-0.143361986,-0.020788226,1.965595007,1015.1831
2021.02.12 16:25:14,-22.56,-14.639999,-40.98,-0.6153286,1.1109436,8.921068,-0.12533428,-0.05057109,-0.033206634,-0.123601846,0.068865694,1.935850739,1015.1831
2021.02.12 16:25:14,-22.38,-14.5199995,-41.04,-0.6344828,1.2929084,9.584282,-0.1882534,0.011737164,-0.104067,-0.133800015,0.066103898,1.920216441,1015.1853
2021.02.12 16:25:14,-22.08,-14.58,-41.04,-0.37829542,1.6999351,9.481328,-0.15343408,0.031284854,-0.08513018,-0.177269876,0.039877839,1.868659377,1015.1853
2021.02.12 16:25:14,-21.84,-14.5199995,-40.739998,-0.43096948,2.056682,9.352037,-0.10517572,-0.04934936,-0.09307142,-0.216249764,0.046050373,1.805508971,1015.1824
2021.02.12 16:25:14,-21.96,-14.5199995,-40.5,-0.8140534,1.5586729,10.544386,-0.045921795,-0.07989262,-0.056419514,-0.146328196,0.07704971,1.906378984,1015.17847
2021.02.12 16:25:15,-22.14,-14.46,-40.559998,-0.19633053,1.7382435,10.513261,-0.001328632,-0.09699685,0.00344528,-0.163827762,0.018672392,1.896027446,1015.17847
2021.02.12 16:25:15,-22.26,-13.92,-40.44,0.9768641,1.4102279,11.22436,-0.13938417,0.03433918,-0.22746177,-0.124519229,-0.086811975,2.001082659,1015.19116
2021.02.12 16:25:15,-22.439999,-13.86,-40.379997,-1.5754328,-0.5602603,10.867614,-0.052030448,-0.01453004,-0.39300627,0.050975695,0.143962964,2.082197905,1015.19116
2021.02.12 16:25:15,-22.619999,-14.16,-40.559998,0.0670397,-0.52913475,10.460587,0.2918867,0.05083254,-0.031374037,0.050539549,-0.006408702,2.197738171,1015.1902
2021.02.12 16:25:15,-22.68,-14.4,-40.14,0.21548474,-0.531529,8.042369,0.2882215,0.17728165,-0.09673662,0.065971509,-0.026787281,2.239196539,1015.19434
2021.02.12 16:25:15,-22.32,-14.88,-40.02,0.97446984,0.86912173,9.761458,0.07564039,-0.011475715,-0.17859256,-0.088364974,-0.099498652,2.118100405,1015.19434
2021.02.12 16:25:15,-22.14,-15.719999,-40.14,-0.45012367,0.600963,8.470944,0.16116153,0.022121875,-0.19508593,-0.070725925,0.053087436,2.060876131,1015.1975
2021.02.12 16:25:15,-22.08,-16.32,-39.84,-0.026337024,0.32083282,8.557138,0.115346625,0.046556484,-0.060695574,-0.037475269,0.003077774,2.15932107,1015.1975
2021.02.12 16:25:15,-22.08,-16.8,-40.2,-0.043096945,0.6273,8.430242,0.011499538,0.1430732,-0.026487118,-0.074272834,0.00511214,2.124567032,1015.1997
2021.02.12 16:25:15,-22.26,-17.279999,-40.079998,0.031125572,1.2426286,9.107821,-0.063636884,0.018456683,0.033377677,-0.135597304,-0.003417442,2.057021141,1015.19116
2021.02.12 16:25:15,-22.26,-17.1,-40.44,-0.31604427,1.4437478,9.301758,-0.08318458,0.05449773,0.049260173,-0.153896257,0.033963766,2.00028944,1015.19116
2021.02.12 16:25:15,-22.02,-17.039999,-40.26,-0.021548472,2.423006,9.984126,-0.09784534,-0.001091005,0.12012055,-0.238082454,0.00215827,1.880559683,1015.18335
2021.02.12 16:25:15,-21.6,-16.68,-40.079998,-0.9433443,1.7837347,11.073521,-0.042256605,0.03983697,0.065753534,-0.159142494,0.084984004,1.967162728,1015.18335
2021.02.12 16:25:15,-21.72,-16.619999,-40.26,0.15083931,2.6025767,11.178869,0.024938574,0.11497339,0.26245216,-0.228717506,-0.013492434,1.889790058,1015.17725
2021.02.12 16:25:15,-21.24,-16.08,-39.719997,-0.63208854,0.505192,11.277035,0.068920866,0.04594562,0.1262292,-0.044698302,0.055992365,2.120182514,1015.1814
2021.02.12 16:25:15,-21.18,-15.599999,-40.2,-0.6153286,-0.62251145,10.10384,0.07930558,-0.11959886,0.21297206,0.061420083,0.060825348,2.221480846,1015.1814
2021.02.12 16:25:15,-21.18,-15.42,-40.379997,-0.17717634,0.18435916,8.56911,0.1336726,0.006850243,0.2679499,-0.021506475,0.020673221,2.155147791,1015.1814
2021.02.12 16:25:16,-21.06,-15.059999,-40.02,-0.7302538,0.14126222,7.7694216,0.078694716,-0.029801672,0.17754187,-0.018100061,0.093715437,2.097552776,1015.1814
2021.02.12 16:25:16,-21.359999,-15.36,-40.379997,-0.8930645,0.026337024,9.150918,-0.0844063,-0.07744916,0.14088996,-0.002864458,0.097284809,2.115353584,1015.18384
2021.02.12 16:25:16,-21.42,-15.059999,-39.899998,-0.91461295,0.56265455,10.218765,-0.12961033,0.025787065,0.20808515,-0.054786805,0.089265421,2.051013947,1015.1846
2021.02.12 16:25:16,-21.24,-14.5199995,-39.719997,0.21787901,1.4054393,8.097438,0.027382035,0.03189572,0.2954389,-0.17179291,-0.026900666,1.923443198,1015.1846
2021.02.12 16:25:16,-21.539999,-13.86,-40.02,-0.4932206,1.23784,8.978531,-0.107008316,-0.029801672,-0.012437217,-0.136799306,0.054878175,1.912957668,1015.1819
2021.02.12 16:25:16,-21.6,-13.559999,-39.84,-0.68715686,1.4006507,9.239507,-0.11922562,0.003185052,-0.08146499,-0.150040016,0.074234925,1.875671268,1015.1819
2021.02.12 16:25:16,-21.359999,-13.38,-40.079998,-0.7541966,1.3455825,9.04557,-0.13449726,0.06243898,-0.11322998,-0.147169769,0.083185047,1.871682763,1015.18384
2021.02.12 16:25:16,-21.48,-13.559999,-40.32,-0.22745611,2.0854135,9.974549,-0.15893187,0.010515435,-0.060695574,-0.206052542,0.022799697,1.795828819,1015.1814
2021.02.12 16:25:16,-21.3,-13.559999,-40.26,-0.69194543,1.802889,9.615408,-0.001328632,-0.11471195,-0.2396791,-0.184880719,0.071838312,1.823340893,1015.1814
2021.02.12 16:25:16,-21.119999,-13.259999,-40.02,-1.132492,1.175589,10.589877,-0.019654589,-0.16663548,-0.21952054,-0.109936193,0.106536098,1.91524291,1015.17554
2021.02.12 16:25:16,-21.3,-13.259999,-39.78,-0.2083019,1.690358,11.102252,-0.051419582,-0.13425963,0.07247306,-0.151067063,0.018759929,1.88583827,1015.17554
2021.02.12 16:25:16,-21.359999,-13.32,-39.42,0.8092649,1.2067145,10.702409,-0.13083206,0.014180626,-0.17614911,-0.111960545,-0.075471587,2.012446165,1015.17334
2021.02.12 16:25:16,-21.3,-13.32,-38.76,-1.6544439,-1.0151725,10.695226,-0.07829765,-0.121431455,-0.394228,0.093528941,0.153473511,2.120703459,1015.1809
2021.02.12 16:25:16,-21.42,-13.559999,-38.7,0.11971374,-0.045491222,9.567522,0.25218046,0.18216856,-0.02098933,0.004754346,-0.01251186,2.15178895,1015.1809
2021.02.12 16:25:16,-21.6,-13.559999,-38.52,0.117319465,-0.4166038,8.109408,0.19292651,0.17361645,-0.08513018,0.051322415,-0.014466071,2.206761599,1015.187
2021.02.12 16:25:16,-21.66,-13.86,-38.16,0.40223816,0.91461295,10.168485,0.04082107,0.06610417,-0.15537968,-0.089634724,-0.039536718,2.044214964,1015.187
2021.02.12 16:25:17,-21.72,-14.5199995,-38.7,-0.5770202,0.7326481,8.942616,0.13978124,0.15773396,-0.119949505,-0.08157625,0.064435437,2.012875319,1015.1853
2021.02.12 16:25:17,-21.359999,-14.639999,-38.399998,0.18675344,0.6895511,8.518829,0.154442,0.061828114,-0.028930578,-0.080748945,-0.021918919,2.080188036,1015.1914
2021.02.12 16:25:17,-20.76,-14.94,-38.7,0.35435268,0.66321415,8.152506,0.045097128,0.016013222,-0.043591343,-0.081095979,-0.043438151,2.120801687,1015.1914
2021.02.12 16:25:17,-20.46,-15.059999,-39,0.3423813,1.5323359,8.590658,-0.17847955,-0.09272079,-0.12056036,-0.176378787,-0.039833989,1.964438677,1015.1931
2021.02.12 16:25:17,-20.22,-14.759999,-38.7,-0.40223816,1.6257126,9.708784,-0.18764253,-0.13548136,-0.14316238,-0.165768787,0.041406654,1.935127974,1015.1931
2021.02.12 16:25:17,-20.279999,-14.4,-38.94,-0.47885495,1.8340145,10.472558,-0.06669121,-0.032245133,0.050481904,-0.173190325,0.04569291,1.904546261,1015.178
2021.02.12 16:25:17,-20.76,-14.16,-38.7,-0.3615355,1.5467016,10.455798,0.027992899,-0.006588792,0.12928352,-0.146776125,0.034563739,1.936469316,1015.18286
2021.02.12 16:25:17,-21.3,-13.98,-38.64,0.2561874,1.9561225,11.27464,-0.013545937,0.072823696,0.3369777,-0.171744034,-0.022718538,1.905019879,1015.18286
2021.02.12 16:25:17,-21.48,-13.98,-38.579998,-0.08858817,0.7996878,10.635368,0.01516473,0.08931705,0.21236119,-0.075047538,0.008329389,2.040343523,1015.17896
2021.02.12 16:25:17,-21.539999,-14.04,-38.579998,-0.7326481,-0.69673395,10.884374,0.023716843,-0.047516767,0.15860505,0.063781157,0.067210533,2.167878628,1015.17896
2021.02.12 16:25:17,-21.42,-13.74,-38.52,-0.105348095,0.29210153,8.92825,0.14344643,0.044723887,0.24779138,-0.03270261,0.011798863,2.089344978,1015.1738
2021.02.12 16:25:17,-20.88,-13.32,-38.76,-0.89545876,-0.031125572,8.482916,0.12023355,0.006239377,0.12867266,0.003648916,0.105170764,2.067252159,1015.1758
2021.02.12 16:25:17,-21.06,-13.0199995,-39,-0.40223816,0.12450229,9.352037,0.02921463,-0.002312736,0.112179294,-0.013299771,0.042984258,2.07427001,1015.1758
2021.02.12 16:25:17,-21.24,-13.139999,-38.76,-1.0582695,0.4932206,9.407105,0.023716843,0.14185145,0.08346863,-0.052054923,0.112025827,1.986885905,1015.17725
2021.02.12 16:25:17,-21.42,-13.0199995,-38.76,-0.12929083,1.1803775,8.348836,0.065866545,0.042280424,0.18181793,-0.140434772,0.015484854,1.899655461,1015.17725
2021.02.12 16:25:17,-21.9,-13.0199995,-38.399998,-0.6081458,0.9864412,9.098245,-0.14121677,-0.007810523,-0.04908913,-0.107760586,0.066742815,1.923309326,1015.17993
2021.02.12 16:25:17,-21.84,-12.84,-38.34,-0.9217958,0.8236305,9.4095,-0.1424385,0.012958895,-0.086962774,-0.086895406,0.097652771,1.933418512,1015.18066
2021.02.12 16:25:18,-21.72,-12.48,-38.64,-0.41181526,1.4102279,9.059936,-0.10334312,-0.03652119,0.026047295,-0.154259503,0.04542328,1.843247056,1015.18066
2021.02.12 16:25:18,-21.539999,-12.3,-38.82,-0.098165266,2.0423164,9.545974,-0.12594515,-0.07439484,-0.002052507,-0.210757062,0.010283059,1.74909234,1015.17676
2021.02.12 16:25:18,-21.24,-12.179999,-39.12,-0.6296943,1.5562786,10.00328,-0.07279987,-0.12387492,-0.19691852,-0.154039472,0.062865838,1.829106569,1015.17676
2021.02.12 16:25:18,-21.48,-12.3,-39.059998,-0.55786604,1.4820561,10.285805,-0.025152376,-0.15136386,-0.16637526,-0.14289546,0.054183412,1.851190448,1015.17993
2021.02.12 16:25:18,-21.9,-12,-38.76,0.05506832,1.3623424,12.040808,-0.103953995,-0.1910701,-0.12972334,-0.11266347,-0.004573443,1.905510545,1015.18384
2021.02.12 16:25:18,-22.439999,-12.12,-38.82,0.20111908,1.2905141,11.760678,-0.07096727,-0.09333166,-0.1987511,-0.10927815,-0.01709931,1.913685203,1015.18384
2021.02.12 16:25:18,-22.98,-12.3,-38.399998,-1.3048798,-0.409421,9.222747,0.23813054,-0.040186383,-0.2995439,0.043926489,0.140552044,2.027308464,1015.1802
2021.02.12 16:25:18,-23.22,-12.54,-38.34,-0.66321415,-1.0391153,9.399923,0.23141102,-0.057901476,-0.1816469,0.109827235,0.070438541,2.138085365,1015.1802
2021.02.12 16:25:18,-23.22,-13.44,-38.34,0.4956149,-0.7134939,8.540379,0.1562746,0.13146675,0.11462276,0.083210684,-0.057966948,2.243168831,1015.1809
2021.02.12 16:25:18,-23.279999,-14.099999,-38.04,1.4245936,1.6831752,9.39274,0.024938574,0.036782637,-0.11017566,-0.175353646,-0.150522441,1.940725803,1015.17236
2021.02.12 16:25:18,-23.16,-14.4,-38.219997,-0.36632404,1.0534809,8.691217,0.060979623,0.011737164,-0.18409035,-0.120517686,0.042123828,1.948591828,1015.17236
2021.02.12 16:25:18,-23.16,-14.759999,-37.86,-0.13647367,0.679974,8.76544,0.03165809,0.016013222,-0.11689517,-0.077410027,0.01556826,2.032519341,1015.1714
2021.02.12 16:25:18,-23.16,-14.82,-37.86,-0.009577099,0.50758624,8.605023,-0.013545937,0.037393507,-0.034428366,-0.05891889,0.001112966,2.067172527,1015.1714
2021.02.12 16:25:18,-22.859999,-14.759999,-37.8,0.53392327,1.5562786,8.705584,-0.14366023,-0.026747344,-0.027708847,-0.17657429,-0.061254404,1.928222418,1015.1655
2021.02.12 16:25:18,-23.1,-14.82,-37.92,0.076616794,1.7981004,9.62259,-0.1479363,7.42E-04,-0.033206634,-0.184726223,-0.007962012,1.891367435,1015.16724
2021.02.12 16:25:18,-23.039999,-14.46,-38.219997,-0.29210153,2.004008,10.034406,-0.055084772,0.030063123,-0.016102407,-0.197038919,0.02910178,1.846590161,1015.16724
2021.02.12 16:25:18,-22.92,-14.04,-38.219997,-0.5985687,1.5897985,10.276228,0.010277809,0.06854763,0.07797084,-0.15323393,0.058182161,1.888496876,1015.1658
2021.02.12 16:25:19,-23.1,-13.98,-38.46,0.3040729,2.2123098,11.126195,0.012721268,0.08565186,0.23557407,-0.19620657,-0.027322657,1.840535879,1015.1658
2021.02.12 16:25:19,-22.98,-13.32,-38.34,0.052674048,0.45730647,11.018453,0.059757892,0.061217252,0.14150083,-0.041479412,-0.004780494,2.045468807,1015.1692
2021.02.12 16:25:19,-22.859999,-13.44,-37.98,-0.07901107,-0.22745611,11.497308,0.13917038,-0.08966646,0.10973583,0.019780375,0.006872029,2.1211164,1015.17993
2021.02.12 16:25:19,-23.16,-13.38,-38.16,0.9241901,1.0702409,8.693612,0.25584564,0.059384655,0.17632015,-0.121810727,-0.105909035,1.985927939,1015.17993
2021.02.12 16:25:19,-23.1,-13.38,-37.739998,-1.2067145,-0.15562786,8.229122,0.11290317,0.001352456,-0.2744984,0.018709548,0.145601794,2.030141115,1015.18555
2021.02.12 16:25:19,-23.519999,-14.4,-37.68,-1.228263,-0.28252444,8.358414,0.054260105,-0.111046754,-0.11689517,0.033429597,0.145905048,2.065918446,1015.18555
2021.02.12 16:25:19,-24.18,-14.7,-37.739998,-1.1971374,0.65842557,10.295382,-0.16076447,0.086262725,0.038875464,-0.063440226,0.115759216,1.984857678,1015.17773
2021.02.12 16:25:19,-24.42,-14.94,-37.5,0.18675344,1.5658557,8.059129,0.024327708,0.033117447,0.19098091,-0.191854656,-0.023168759,1.875681162,1015.177
2021.02.12 16:25:19,-24.42,-14.759999,-37.8,-0.7350424,0.7805336,8.81572,-0.121669084,-0.06584272,-8.31E-04,-0.088004775,0.083186187,1.969362617,1015.177
2021.02.12 16:25:19,-24.48,-14.219999,-37.92,-0.61293435,1.0223553,9.438231,-0.17114916,-0.031023404,0.021160372,-0.107674882,0.064850584,1.934752107,1015.18335
2021.02.12 16:25:19,-24.18,-13.559999,-38.04,-0.4764607,1.4198049,9.043176,-0.16748399,1.31E-04,0.068197,-0.155519381,0.052638646,1.857511163,1015.18335
2021.02.12 16:25:19,-23.939999,-13.139999,-38.219997,0.016759925,2.0878077,9.598648,-0.16992745,-0.037132055,0.049260173,-0.214174256,-0.00174607,1.765490294,1015.18066
2021.02.12 16:25:19,-24.06,-13.08,-38.219997,-0.41420954,1.3743137,10.726351,-0.08562804,-0.1574725,-0.10101268,-0.127336845,0.038596895,1.883217931,1015.17725
2021.02.12 16:25:19,-23.939999,-12.599999,-38.16,-0.16281068,1.4245936,9.998491,0.010888672,-0.12020972,-0.046034805,-0.141509756,0.016282085,1.854025364,1015.17725
2021.02.12 16:25:19,-24.6,-12.96,-38.04,0.9577099,1.7262721,11.849266,-0.12961033,-0.13792482,-0.10895392,-0.144204497,-0.080649093,1.890031338,1015.1753
2021.02.12 16:25:19,-24.779999,-13.0199995,-37.739998,0.18435916,0.2753416,12.246716,-0.12411255,-0.054847144,-0.42843646,-0.02247656,-0.015052627,2.036281824,1015.1753
2021.02.12 16:25:20,-25.019999,-13.2,-37.62,-1.462902,-1.4964218,9.567522,0.2674521,0.025176201,-0.31420466,0.153394952,0.151727751,2.108747959,1015.17993
2021.02.12 16:25:20,-25.08,-13.92,-37.26,0.44054657,-0.41420954,8.140534,0.29249755,0.078932345,-0.054586917,0.050764348,-0.054064911,2.173841,1015.1897
2021.02.12 16:25:20,-24.779999,-14.4,-36.719997,0.6703969,0.6488485,9.067119,-0.012935072,0.13024503,-0.1339994,-0.071245007,-0.073802859,2.056876183,1015.1897
2021.02.12 16:25:20,-24.6,-15.179999,-36.78,-0.6368771,0.5650489,8.9976845,0.032268956,0.08931705,-0.19080988,-0.062560886,0.07066448,2.016520977,1015.18726
2021.02.12 16:25:20,-24.42,-15.54,-36.78,-0.35435268,0.6943397,9.000079,0.07319693,0.11436252,0.03276681,-0.07693629,0.039351847,2.028829098,1015.18726
2021.02.12 16:25:20,-24.3,-15.9,-37.32,0.098165266,0.6081458,8.55235,0.07258606,0.11924945,0.08530122,-0.070984468,-0.011477659,2.075724602,1015.1775
2021.02.12 16:25:20,-23.82,-15.96,-37.98,0.29210153,0.9624985,8.573898,-0.060582563,0.056330327,0.13478132,-0.111726828,-0.034055524,2.044395208,1015.17847
2021.02.12 16:25:20,-23.64,-15.839999,-38.219997,0.014365649,1.5778271,9.364009,-0.14060591,0.06976936,0.14088996,-0.166930869,-0.001534133,1.945100188,1015.17847
2021.02.12 16:25:20,-23.46,-15.599999,-38.52,-0.28013015,1.9273912,9.991309,-0.11983649,0.029452257,0.15066381,-0.190492883,0.028030038,1.891625524,1015.18115
2021.02.12 16:25:20,-23.1,-15.12,-38.16,-0.026337024,1.8699286,10.683254,0.04754059,0.06610417,0.18487225,-0.173277751,0.002465257,1.915371895,1015.18115
2021.02.12 16:25:20,-23.039999,-14.759999,-38.16,0.011971374,2.056682,10.230737,0.06769914,0.08870619,0.24962398,-0.198385328,-0.001170137,1.864077926,1015.178
2021.02.12 16:25:20,-23.16,-14.4,-37.98,0.37111259,2.0087965,10.953807,0.03471242,0.063049845,0.20625255,-0.181270897,-0.03386683,1.888122201,1015.1758
2021.02.12 16:25:20,-23.279999,-13.92,-37.68,-0.8332076,-0.45012367,11.722369,0.027382035,-0.040186383,0.04437325,0.038283348,0.070959091,2.104069471,1015.1758
2021.02.12 16:25:20,-23.58,-13.74,-37.92,-0.7302538,-0.6201172,10.237919,0.22285892,0.072823696,0.17570928,0.06034378,0.071207747,2.115801811,1015.1653
2021.02.12 16:25:20,-23.88,-13.559999,-37.8,-0.62251145,0.30646718,7.362395,0.26073253,0.10153435,0.17937447,-0.041454252,0.084352218,1.991486073,1015.1653
2021.02.12 16:25:20,-24,-13.559999,-38.28,-0.7541966,-0.20351335,8.727132,-0.015989399,-0.08539041,0.09935112,0.023228839,0.086205572,2.057425499,1015.1548
2021.02.12 16:25:20,-24.06,-13.559999,-38.46,-0.6296943,0.42618093,10.393547,-0.09418015,-0.029190807,0.06147748,-0.040906496,0.060511153,1.999456525,1015.15796
2021.02.12 16:25:21,-23.58,-13.38,-38.46,-0.22985038,1.2498114,8.085466,0.058536164,0.061217252,0.11767708,-0.15330033,0.028419944,1.864331245,1015.15796
2021.02.12 16:25:21,-23.34,-13.139999,-38.879997,-0.43096948,1.0846065,8.633755,-0.039202277,-0.061566666,0.029712487,-0.124815531,0.049875412,1.890120268,1015.1548
2021.02.12 16:25:21,-23.1,-12.78,-38.879997,-0.7972935,1.0534809,9.122187,-0.16626225,-0.061566666,-0.10345614,-0.114543386,0.087180033,1.88228786,1015.1548
2021.02.12 16:25:21,-22.92,-12.599999,-39,-0.69194543,1.010384,9.277815,-0.15037975,-0.07011878,-0.07291287,-0.10817764,0.074442826,1.88994658,1015.1648
2021.02.12 16:25:21,-23.34,-12.24,-39.059998,-0.15083931,1.838803,9.577099,-0.13388638,-0.076227434,-0.035650097,-0.189668596,0.015748698,1.765627265,1015.16846
2021.02.12 16:25:21,-23.46,-12.179999,-39,-0.21548474,1.8196489,9.150918,-0.08318458,-0.10921416,-0.10773219,-0.196235359,0.023543531,1.751470566,1015.16846
2021.02.12 16:25:21,-23.76,-12,-38.52,-0.40223816,1.6089526,10.522838,-0.10761919,-0.19595702,-0.22074227,-0.151616886,0.038206656,1.81137383,1015.16016
2021.02.12 16:25:21,-24.24,-12.059999,-38.399998,-0.29928434,1.8675344,10.908316,-0.058749966,-0.17457673,-0.18409035,-0.169496387,0.027429465,1.785902381,1015.16016
2021.02.12 16:25:21,-24.96,-12.12,-37.98,0.7948992,1.7119064,11.889969,-0.05936083,-0.17396587,-0.28427225,-0.14268218,-0.066755272,1.848257542,1015.16016
2021.02.12 16:25:21,-25.26,-12.3,-37.68,-0.9217958,-0.845179,12.071934,0.026160305,-0.16297029,-0.54755515,0.069695614,0.076210693,2.054898262,1015.16797
2021.02.12 16:25:21,-25.38,-12.78,-37.8,-0.40223816,-0.72785956,8.394327,0.4165032,0.019678414,-0.06680422,0.086393543,0.047881231,2.100023508,1015.16797
2021.02.12 16:25:21,-25.56,-13.5,-37.32,0.047885496,-0.67757976,7.759845,0.2967736,0.05816292,-0.08146499,0.08709617,-0.006170857,2.153936148,1015.1741
2021.02.12 16:25:21,-24.779999,-14.16,-37.32,0.6703969,1.0822122,9.416683,-0.039813142,0.045334756,-0.017324138,-0.114136636,-0.071072556,1.982195735,1015.1741
2021.02.12 16:25:21,-24.72,-14.5199995,-37.26,-0.52674043,1.0151725,9.277815,0.02921463,0.0795432,-0.09062797,-0.108811945,0.056713309,1.945806503,1015.1709
2021.02.12 16:25:21,-24.48,-14.82,-37.44,0.08858817,0.6703969,8.696006,0.104961924,0.0972583,0.052925367,-0.076936349,-0.010186873,2.028811455,1015.16943
2021.02.12 16:25:21,-24.18,-14.639999,-38.1,0.3040729,0.74701375,8.549955,0.03715588,0.12291464,0.07064046,-0.087094404,-0.035549283,2.027138472,1015.16943
2021.02.12 16:25:21,-24.3,-14.639999,-38.34,-0.045491222,1.3575538,8.820508,-0.11922562,0.07648888,0.070029594,-0.152708516,0.005157392,1.910470366,1015.1594
2021.02.12 16:25:22,-24.119999,-14.58,-38.52,-0.18196489,1.8340145,9.098245,-0.13816245,0.09053878,0.094464205,-0.198874578,0.019997334,1.836758375,1015.1594
2021.02.12 16:25:22,-24.119999,-14.34,-38.579998,-0.28252444,1.9872481,10.587483,-0.13510813,0.04838908,0.14333342,-0.185474575,0.026678426,1.846062064,1015.1709
2021.02.12 16:25:22,-24,-13.799999,-38.579998,-0.14365649,2.2338583,9.926663,-0.003772093,0.0813758,0.21602638,-0.221326455,0.01447077,1.774453878,1015.17114
2021.02.12 16:25:22,-24.06,-13.259999,-38.94,-0.031125572,2.1979442,11.049579,0.009056077,0.0709911,0.32781473,-0.19635281,0.002816894,1.791455269,1015.17114
2021.02.12 16:25:22,-23.76,-12.3,-39.059998,-0.05506832,0.8643332,11.047184,0.004169155,0.03983697,0.16960064,-0.078080103,0.004984788,1.938401341,1015.16406
2021.02.12 16:25:22,-23.88,-11.46,-39.059998,-0.57223165,-0.5794145,11.451817,-0.020265454,0.016624086,0.15799418,0.050489862,0.049927112,2.048431396,1015.16406
2021.02.12 16:25:22,-24.24,-11.219999,-39.18,0.2849187,0.7589851,8.633755,0.24485007,0.038615234,0.27466944,-0.087636173,-0.032988586,1.893911481,1015.1592
2021.02.12 16:25:22,-24.06,-10.679999,-39.12,-0.7589851,0.13886794,7.738296,0.1245096,0.033728313,0.04742758,-0.017857946,0.09776897,1.917310119,1015.1658
2021.02.12 16:25:22,-24.42,-11.04,-39.6,-0.7805336,0.10774237,9.361614,-0.12716687,-0.08722301,-0.027708847,-0.011468654,0.083183572,1.937485814,1015.1658
2021.02.12 16:25:22,-24.48,-10.98,-39.54,-1.0462981,0.6057515,9.900327,-0.11739303,0.014791491,-0.020378463,-0.060771231,0.10529235,1.867969036,1015.16626
2021.02.12 16:25:22,-24.42,-10.62,-39.66,-0.2657645,0.9122187,8.487704,-0.026374107,-0.02369302,0.08774468,-0.107012302,0.03130148,1.815577865,1015.1621
2021.02.12 16:25:22,-24.6,-10.62,-39.42,-0.5219519,0.8786988,8.844451,-0.10456486,-0.06706446,-0.008772025,-0.098854467,0.058946252,1.819537044,1015.1621
2021.02.12 16:25:22,-24.18,-9.84,-39.54,-1.0989721,0.8547561,9.4932995,-0.17420349,0.05205427,-0.13094507,-0.089203171,0.115249924,1.796174407,1015.1621
2021.02.12 16:25:22,-24.24,-9.599999,-40.02,-0.60335726,1.228263,9.119793,-0.16504051,0.04716735,-0.04664567,-0.133586884,0.066062823,1.733676076,1015.1621
2021.02.12 16:25:22,-24,-9.42,-39.96,-0.24182175,1.7717633,9.428655,-0.12899947,-0.040797245,-0.023432791,-0.185686857,0.025641913,1.650439024,1015.15845
2021.02.12 16:25:22,-23.82,-9.059999,-40.079998,-0.22506183,1.8771114,9.744699,-0.10823005,-0.11471195,-0.12117123,-0.190248579,0.023091719,1.628265858,1015.15845
2021.02.12 16:25:23,-23.76,-9,-39.96,-0.71828246,1.2162915,10.470163,-0.062415157,-0.10005118,-0.19997284,-0.115380242,0.068495467,1.740771174,1015.1599
2021.02.12 16:25:23,-23.64,-8.94,-39.719997,-0.098165266,1.3527653,10.575512,-0.07707592,-0.07072964,-0.13277766,-0.127218574,0.009282052,1.730064034,1015.1719
2021.02.12 16:25:23,-23.88,-8.7,-39.6,0.32083282,0.24900457,11.942643,-0.29820913,-0.089055605,-0.33925012,-0.020839503,-0.026858013,1.902662039,1015.1719
2021.02.12 16:25:23,-23.939999,-9.179999,-39.6,-1.0343267,-0.6177229,9.744699,-0.011713341,-0.020638693,-0.4449298,0.062953271,0.105746567,1.960075855,1015.1704
2021.02.12 16:25:23,-24.359999,-9.54,-39.239998,-0.14844504,-0.7685622,9.205987,0.19353738,-0.02613648,-0.19447505,0.083281115,0.01612344,2.042201519,1015.1704
2021.02.12 16:25:23,-24.6,-10.0199995,-39.18,-0.19633053,-0.69673395,8.825297,0.1245096,0.13391022,-0.2378465,0.07876455,0.022242667,2.043676853,1015.17114
2021.02.12 16:25:23,-24.42,-10.679999,-39.36,0.17478207,0.6560313,10.376787,0.07258606,0.05083254,-0.18531209,-0.063128091,-0.01684197,1.901317716,1015.18115
2021.02.12 16:25:23,-24.539999,-11.219999,-39.66,-0.7134939,0.67757976,9.378374,0.19903517,0.056330327,-0.14194064,-0.071916744,0.075932354,1.87024188,1015.18115
2021.02.12 16:25:23,-24.359999,-11.82,-39.96,0.24900457,0.6177229,8.1549,0.2582891,-0.029190807,0.014440854,-0.07556922,-0.030524867,1.93113029,1015.1699
2021.02.12 16:25:23,-24.18,-12,-40.079998,-0.071828246,0.55307746,8.279403,0.1245096,-0.045073304,-0.025265386,-0.066700011,0.008675317,1.933795929,1015.1699
2021.02.12 16:25:23,-24.359999,-12.66,-39.899998,-0.3974496,0.7781393,9.002473,-0.06730208,-0.017584369,0.09874026,-0.086138375,0.044120289,1.912328243,1015.15967
2021.02.12 16:25:23,-24.119999,-13.0199995,-39.96,0.011971374,1.5562786,8.8085375,-0.08379544,0.004406782,0.19953302,-0.17487359,-0.001359064,1.809779525,1015.1575
2021.02.12 16:25:23,-24.18,-13.08,-40.14,0.17478207,2.2027328,10.606637,-0.16076447,-0.043240707,0.22824368,-0.204737291,-0.016477065,1.762583494,1015.1575
2021.02.12 16:25:23,-24.48,-13.32,-40.14,0.11492519,2.1668186,10.360027,-0.024541512,0.014791491,0.19770043,-0.20616737,-0.011092681,1.766556144,1015.15796
2021.02.12 16:25:23,-24.42,-12.78,-40.5,-0.17238778,1.1803775,11.674484,-0.070356406,0.004406782,0.13233784,-0.100754127,0.014765128,1.904722691,1015.15796
2021.02.12 16:25:23,-24.48,-12.059999,-40.32,-0.18196489,0.06943397,11.8061695,-0.05936083,0.009904569,0.1439443,-0.005880394,0.015411475,2.011092424,1015.1626
2021.02.12 16:25:23,-24.66,-11.639999,-39.899998,-0.59378016,0.009577099,9.682447,0.14466816,0.060606383,0.23740666,-9.87E-04,0.061248716,1.975897789,1015.16846
2021.02.12 16:25:24,-24.359999,-11.46,-40.32,0.04070267,0.65842557,7.8532214,0.2301893,0.047778215,0.2777238,-0.08364471,-0.00518288,1.892195582,1015.16846
2021.02.12 16:25:24,-24.3,-11.7,-40.2,-0.9960183,-0.50040346,8.494887,0.00355829,-0.015140906,0.021160372,0.058439039,0.116716243,2.018739462,1015.177
2021.02.12 16:25:24,-24.66,-11.7,-40.26,-1.0917894,-0.36871833,9.591465,-0.0844063,-0.054847144,0.1524964,0.038177118,0.113341413,1.994708419,1015.177
2021.02.12 16:25:24,-24.9,-11.759999,-40.62,-0.5411061,0.43575802,9.873989,-0.04653266,-0.038353786,0.21846984,-0.044037301,0.054746401,1.925223351,1015.1804
2021.02.12 16:25:24,-25.019999,-11.099999,-40.379997,-0.15802214,1.1995317,8.214757,-0.016600264,0.06549331,0.1702115,-0.144970372,0.019234002,1.770514965,1015.1704
2021.02.12 16:25:24,-25.019999,-10.8,-40.32,-0.3328042,0.749408,9.26345,-0.09723447,-0.043851573,0.07125132,-0.080671839,0.03591115,1.850236058,1015.1704
2021.02.12 16:25:24,-24.96,-10.559999,-39.96,-0.37350687,0.85954463,9.361614,-0.11617129,-4.80E-04,0.082857765,-0.091486767,0.03987655,1.827291965,1015.1775
2021.02.12 16:25:24,-24.72,-10.2,-39.66,0.062251143,1.637684,9.239507,-0.13632984,-0.080503486,0.09324247,-0.175422132,-0.006737395,1.696617126,1015.1775
2021.02.12 16:25:24,-24.96,-10.0199995,-39.12,-0.105348095,1.759792,9.634562,-0.03248276,-0.1348705,-0.08513018,-0.180651978,0.010933959,1.683669925,1015.18286
2021.02.12 16:25:24,-25.019999,-9.12,-38.879997,-0.3328042,1.525153,9.809344,0.027992899,-0.09272079,-0.19569679,-0.154157341,0.033914253,1.690852404,1015.1814
2021.02.12 16:25:24,-25.26,-8.639999,-38.64,-0.36871833,1.2569942,10.439038,0.054260105,-0.118988,-0.22501832,-0.119761921,0.035306424,1.722615957,1015.1814
2021.02.12 16:25:24,-25.14,-8.46,-38.399998,-0.49800915,0.9960183,11.293795,-0.043478332,-0.047516767,-0.10773219,-0.087879106,0.044067275,1.76086998,1015.17944
2021.02.12 16:25:24,-25.199999,-8.76,-38.76,1.3551595,1.4389591,10.7048025,-0.22062926,0.35015652,-0.36001953,-0.132575259,-0.125923768,1.727540493,1015.17944
2021.02.12 16:25:24,-25.199999,-9.24,-38.82,-1.759792,-1.6759924,10.33369,-0.19802724,0.3379392,-0.65323484,0.158543497,0.168678388,2.003848791,1015.18066
2021.02.12 16:25:24,-24.72,-10.32,-39.36,-0.05027977,-0.5363176,9.466963,0.22591324,0.10031262,-0.024654523,0.056590211,0.005311027,2.036299467,1015.1821
2021.02.12 16:25:24,-24.84,-11.16,-39.78,0.23224466,0.057462595,7.8556156,0.23263276,0.15284704,-0.003274238,-0.007311518,-0.029555548,2.001340151,1015.1821
2021.02.12 16:25:24,-24.18,-11.5199995,-39.719997,-0.6464542,0.6081458,9.862018,0.008445213,0.02639793,-0.14560583,-0.061455905,0.065456249,1.901020765,1015.17944
2021.02.12 16:25:25,-24,-12.179999,-39.78,-0.8284191,0.14126222,9.059936,0.10923798,0.09053878,-0.03259577,-0.015525945,0.091184072,1.96959579,1015.17944
2021.02.12 16:25:25,-23.939999,-11.88,-40.02,0.29689008,0.42378664,8.514041,0.06464481,0.016624086,0.14944208,-0.049703825,-0.034856521,1.982444286,1015.17114
2021.02.12 16:25:25,-23.279999,-11.82,-40.14,0.47167215,1.3407938,8.9498,-0.005604689,-0.034688596,0.12561834,-0.148503706,-0.052653268,1.828823686,1015.17114
2021.02.12 16:25:25,-23.279999,-11.88,-40.26,0.28252444,1.733455,9.457385,0.005390886,0.07526715,-0.033206634,-0.181199878,-0.029864538,1.763600588,1015.17114
2021.02.12 16:25:25,-23.1,-11.94,-40.14,-0.071828246,1.4102279,9.541185,-1.07E-04,0.10214522,-0.11322998,-0.146737739,0.007528089,1.820513487,1015.176
2021.02.12 16:25:25,-22.98,-12.24,-40.14,-0.7110996,1.3695252,10.015251,-0.02331978,-0.09333166,-0.05275432,-0.135563999,0.070882723,1.833777547,1015.176
2021.02.12 16:25:25,-22.98,-12.12,-39.96,-0.8739103,1.2498114,11.028029,-0.016600264,-0.13425963,0.09812939,-0.112499259,0.079079211,1.860694408,1015.1826
2021.02.12 16:25:25,-23.279999,-12.24,-39.96,0.31365,1.5802214,11.066339,-0.019043725,-0.001091005,0.24656965,-0.141780302,-0.028335122,1.851365328,1015.18945
2021.02.12 16:25:25,-23.4,-11.58,-40.32,-0.7110996,-0.86912173,11.63857,-0.033093624,-0.11287935,0.002834415,0.074399419,0.06102268,2.080598354,1015.18945
2021.02.12 16:25:25,-23.699999,-11.04,-40.079998,0.32801566,0.9768641,8.700794,0.26439774,0.059995517,0.24107185,-0.111726061,-0.037681662,1.852050066,1015.19116
2021.02.12 16:25:25,-24.119999,-10.86,-39.899998,-0.8236305,0.39266106,7.7239304,0.29127583,-0.02369302,0.074305646,-0.050507378,0.106232166,1.878682613,1015.19116
2021.02.12 16:25:25,-24.119999,-10.74,-39.719997,-1.132492,-0.37111259,8.389539,0.070142604,-0.064620994,-0.06924768,0.043809511,0.134177506,1.9696244,1015.1824
2021.02.12 16:25:25,-24,-11.099999,-39.54,-1.2641771,-0.3998439,9.814133,-0.11922562,-0.021249557,-0.06985855,0.040385816,0.128106475,1.981067061,1015.1748
2021.02.12 16:25:25,-24.06,-11.099999,-39.3,-0.5698374,0.9529214,8.1549,-0.07157813,0.1430732,0.24168272,-0.116044648,0.069763295,1.815600276,1015.1748
2021.02.12 16:25:25,-24.119999,-11.04,-39.48,-0.5698374,0.85236186,8.789383,-0.12655601,0.009904569,0.20625255,-0.096472718,0.064741865,1.839951158,1015.18384
2021.02.12 16:25:25,-24.18,-10.8,-39.66,-0.45012367,1.3886794,10.146936,-0.2756071,-0.004145331,0.06147748,-0.135880068,0.044331487,1.779138803,1015.18384
2021.02.12 16:25:26,-24.42,-10.08,-39.719997,-0.6057515,1.4964218,9.58907,-0.029428432,0.06366071,0.07064046,-0.154503226,0.06308721,1.7220577,1015.18286
2021.02.12 16:25:26,-24.06,-9.599999,-39.96,-0.12929083,1.7478206,9.601042,-0.004993823,-0.044462435,0.022382103,-0.180056974,0.01346552,1.665939093,1015.17847
2021.02.12 16:25:26,-23.88,-9.24,-40.14,-0.80208206,1.2953026,9.763853,0.06342308,-0.14830953,-0.07169115,-0.131455228,0.081964068,1.723650455,1015.17847
2021.02.12 16:25:26,-24.06,-8.76,-39.78,-0.36392978,1.4174107,10.867614,0.08052731,-0.15441819,-0.022821926,-0.129621267,0.033475041,1.713703394,1015.1814
2021.02.12 16:25:26,-24.24,-8.88,-39.899998,0.31365,1.0175668,11.205206,-0.13816245,-0.17030068,-0.19508593,-0.090528294,-0.027984146,1.791118741,1015.1814
2021.02.12 16:25:26,-24.72,-8.76,-39.6,0.65124273,0.44054657,12.593885,-0.23406829,-0.1770202,-0.29343525,-0.034920111,-0.051665008,1.883858681,1015.1885
2021.02.12 16:25:26,-24.72,-9.12,-39.36,-1.5107874,-0.7350424,8.28898,0.2656195,0.124136366,-0.2378465,0.087019518,0.180285573,1.937900782,1015.1931
2021.02.12 16:25:26,-24.359999,-9.599999,-39.66,0.15323359,-0.27294734,8.6433325,0.24973698,0.033117447,-0.18897729,0.031563498,-0.017726675,2.001229525,1015.1931
2021.02.12 16:25:26,-24,-10.2,-39.36,-0.1699935,-0.043096945,9.088667,0.065866545,0.0691585,-0.13094507,0.004740969,0.018701717,1.968319416,1015.19165
2021.02.12 16:25:26,-23.82,-10.8,-39.3,-0.14844504,0.8140534,9.883567,0.048151452,0.055108596,-0.07718893,-0.082169615,0.01501825,1.871451497,1015.19165
2021.02.12 16:25:26,-23.699999,-11.4,-39.54,-0.22506183,1.036721,8.849239,0.17460056,0.04716735,0.013829989,-0.116584718,0.02542742,1.839276195,1015.1826
2021.02.12 16:25:26,-23.4,-11.58,-39.719997,-0.12689656,0.7901107,8.241094,0.11840095,0.111308195,-0.012437217,-0.095571078,0.015396807,1.883853436,1015.1902
2021.02.12 16:25:26,-23.34,-11.759999,-39.78,-0.28970724,1.089395,8.470944,-0.019043725,0.0392261,-0.02098933,-0.127827793,0.034186788,1.835728407,1015.1902
2021.02.12 16:25:26,-22.8,-12,-40.079998,-0.4860378,1.324034,9.117398,-0.11494957,0.042280424,0.005277876,-0.144010797,0.053258412,1.81882596,1015.1782
2021.02.12 16:25:26,-22.38,-12.059999,-40.079998,-0.4764607,1.6185298,9.929058,-0.11922562,0.0392261,0.18853745,-0.161405638,0.047949713,1.799157023,1015.1782
2021.02.12 16:25:26,-22.26,-12.179999,-40.079998,-0.39266106,1.8699286,10.625792,-0.056306504,0.02395447,0.24107185,-0.174080119,0.036936775,1.786606789,1015.1738
2021.02.12 16:25:26,-22.08,-11.759999,-40.2,-0.32562137,1.6855695,10.688043,-0.011713341,0.059995517,0.2874976,-0.15634647,0.030456528,1.801223159,1015.1748
2021.02.12 16:25:27,-22.14,-11.28,-40.2,0.49082634,1.5730386,11.432662,-0.03370449,0.05449773,0.31743002,-0.136608824,-0.042905588,1.837671041,1015.1748
2021.02.12 16:25:27,-22.08,-10.62,-39.66,-0.68236834,-0.2466103,11.961797,0.078694716,0.019067546,0.01749518,0.020580124,0.056983881,2.009628773,1015.1787
2021.02.12 16:25:27,-21.84,-10.32,-39.66,-0.42378664,0.4956149,8.842057,0.2705064,0.07648888,0.20564167,-0.055929326,0.047891863,1.901752591,1015.1787
2021.02.12 16:25:27,-21.84,-10.2,-39.66,-0.8643332,0.37590113,7.455772,0.20819815,0.01356976,0.050481904,-0.050040249,0.115412883,1.878379703,1015.1692
2021.02.12 16:25:27,-21.9,-10.62,-40.02,-1.4317763,-0.52674043,9.222747,0.05487097,-0.11837713,-0.006939429,0.056377336,0.154014587,1.997866392,1015.1748
2021.02.12 16:25:27,-22.619999,-10.74,-40.32,-0.723071,0.7685622,9.73991,-0.075243324,0.067325905,0.16227025,-0.07853017,0.074102022,1.863006473,1015.1748
2021.02.12 16:25:27,-22.859999,-11.16,-40.079998,-0.20111908,1.3096683,8.162083,0.01516473,0.05205427,0.19403523,-0.159053952,0.024635671,1.767955542,1015.17456
2021.02.12 16:25:27,-22.859999,-11.4,-40.079998,-0.28731298,1.0846065,8.837268,-0.12961033,-0.1031055,0.04987104,-0.122056417,0.032500066,1.834806919,1015.17456
2021.02.12 16:25:27,-22.98,-10.92,-39.899998,-0.81644773,0.9696813,9.490906,-0.16748399,-0.068897046,-0.05397605,-0.101444155,0.085812964,1.832112551,1015.1765
2021.02.12 16:25:27,-22.68,-10.74,-39.96,-0.31365,1.7143008,8.91628,-0.12350168,-0.010253985,-0.006939429,-0.189833835,0.035162732,1.701406717,1015.17896
2021.02.12 16:25:27,-22.8,-10.559999,-39.899998,-0.18675344,1.934574,9.73991,-0.15771013,-0.040797245,-0.05703038,-0.196036443,0.019171692,1.683741927,1015.17896
2021.02.12 16:25:27,-22.92,-10.2,-40.079998,-0.29689008,1.647261,9.265843,-0.06180429,-0.15258558,-0.1620992,-0.175851226,0.032030385,1.700799823,1015.17456
2021.02.12 16:25:27,-22.859999,-10.2,-39.899998,-0.70631105,1.4198049,10.518049,-0.12472341,-0.16663548,-0.21157928,-0.133878514,0.067051612,1.764526486,1015.17456
2021.02.12 16:25:27,-22.68,-9.96,-39.6,-0.38068968,1.9178141,11.054367,-0.092347555,-0.1312053,-0.118727766,-0.17167969,0.034424338,1.702605367,1015.1775
2021.02.12 16:25:27,-22.74,-9.54,-39.3,0.43815228,1.6257126,10.632975,-0.07096727,0.060606383,-0.3484131,-0.151591882,-0.041183632,1.728668213,1015.1753
2021.02.12 16:25:27,-22.8,-9.96,-39,-1.2450229,-0.7685622,11.90194,-0.077686794,-0.11654454,-0.4626449,0.064136006,0.104227647,2.001193047,1015.1753
2021.02.12 16:25:27,-22.619999,-10.2,-39.059998,-0.00478855,-0.42139238,9.481328,0.358471,0.096647434,-0.023432791,0.044415213,5.05E-04,2.055553675,1015.1841
2021.02.12 16:25:28,-22.8,-10.86,-39.42,0.07422252,-0.5961744,8.047157,0.31082353,0.07526715,-0.158434,0.073946871,-0.009223185,2.120886087,1015.1841
2021.02.12 16:25:28,-22.56,-11.639999,-39.84,0.69194543,0.9194015,9.115005,-0.04653266,0.006239377,-0.1798143,-0.100240342,-0.075767465,1.935422063,1015.18555
2021.02.12 16:25:28,-22.32,-12.42,-39.84,-0.9888355,0.9529214,8.758257,0.048762318,0.08076494,-0.22440745,-0.107697405,0.112427138,1.874847531,1015.1831
2021.02.12 16:25:28,-22.439999,-13.08,-39.719997,-0.49800915,1.0223553,8.636149,0.03165809,-0.029801672,-0.044813074,-0.117638893,0.057601854,1.901896119,1015.1831
2021.02.12 16:25:28,-22.199999,-13.44,-39.48,-0.5458947,0.2753416,9.074302,0.02005165,0.05449773,3.91E-04,-0.030278992,0.060085896,2.034958124,1015.18286
2021.02.12 16:25:28,-22.02,-13.5,-39.48,0.2657645,1.2785428,8.645726,-0.0581391,0.050221674,0.18975918,-0.146749079,-0.030729732,1.916311145,1015.18286
2021.02.12 16:25:28,-21.96,-12.9,-39.66,-0.17957062,1.9106313,8.648121,-0.116782166,0.07160196,0.13905735,-0.217392027,0.020761136,1.750690818,1015.17554
2021.02.12 16:25:28,-22.02,-12.719999,-40.079998,-0.6368771,1.5897985,9.941029,-0.1882534,-0.017584369,0.13294871,-0.158261061,0.063978076,1.828956723,1015.17554
2021.02.12 16:25:28,-21.84,-12.059999,-40.739998,-0.28970724,1.7526091,11.130983,-0.11067351,-0.013308311,0.25695434,-0.156119049,0.026021227,1.813561559,1015.17554
2021.02.12 16:25:28,-21.779999,-11.58,-40.86,0.7877164,2.2841382,11.207601,-0.022708915,0.078932345,0.2807781,-0.200567648,-0.070168734,1.724560022,1015.16943
2021.02.12 16:25:28,-22.08,-11.46,-40.86,-0.12450229,0.6296943,11.377594,-0.041034874,0.047778215,0.00466701,-0.055285409,0.010942324,1.958471179,1015.16943
2021.02.12 16:25:28,-21.539999,-10.86,-41.16,-1.4269878,-0.5147691,11.119012,0.08969029,0.060606383,0.038875464,0.045887444,0.127639934,2.012971401,1015.16943
2021.02.12 16:25:28,-21.359999,-10.86,-40.86,-0.17717634,0.45251793,8.58587,0.25951084,0.048999947,0.20564167,-0.05264505,0.020632876,1.945040107,1015.1709
2021.02.12 16:25:28,-21.6,-10.92,-41.34,-0.59378016,0.19154198,7.439012,0.15260941,-0.024914749,-0.013048082,-0.025661044,0.079650894,1.950428247,1015.1709
2021.02.12 16:25:28,-21.3,-10.74,-41.64,-1.1947432,-0.07901107,9.107821,-0.015989399,-0.09333166,-0.08757364,0.008601178,0.130432963,1.966058373,1015.1741
2021.02.12 16:25:28,-21.539999,-10.98,-41.16,-1.5874043,0.32801566,10.388759,-0.14304936,0.033728313,-0.005717699,-0.031201703,0.151627392,1.913235068,1015.1741
2021.02.12 16:25:29,-21.779999,-10.92,-41.16,-1.0343267,0.91700727,7.7670274,-0.042256605,0.096647434,0.16837889,-0.116501033,0.132389992,1.804669857,1015.1758
2021.02.12 16:25:29,-21.48,-10.5,-40.92,-0.7326481,0.8739103,8.789383,-0.20596848,-0.10921416,0.27589118,-0.098761953,0.083163776,1.830995917,1015.1682
2021.02.12 16:25:29,-21.539999,-10.0199995,-41.04,-0.3615355,1.1253091,9.5794935,-0.23345743,-0.05667974,0.2386284,-0.116852283,0.037722662,1.795151949,1015.1682
2021.02.12 16:25:29,-21.48,-9.719999,-41.579998,0.19633053,1.89866,9.835681,-0.15954272,0.04350216,0.09874026,-0.190655351,-0.019958401,1.647402167,1015.16943
2021.02.12 16:25:29,-21.48,-9.12,-41.399998,0.06464542,2.020768,9.593859,-0.07157813,0.028841393,-0.020378463,-0.207592279,-0.006738106,1.587861776,1015.16943
2021.02.12 16:25:29,-21.9,-9.3,-41.399998,-0.32083282,1.2809371,10.968173,0.043875396,-0.1385357,-0.20730323,-0.116210818,0.029242916,1.76373601,1015.1699
2021.02.12 16:25:29,-21.9,-9.48,-40.98,-0.2466103,1.5443072,10.271439,0.12328788,-0.08783387,-0.2305161,-0.149189547,0.024004713,1.716771722,1015.1731
2021.02.12 16:25:29,-22.38,-9.54,-40.739998,0.21309046,0.9122187,12.7662735,-0.050808717,-0.068897046,-0.4785274,-0.071324214,-0.016690122,1.86551249,1015.1731
2021.02.12 16:25:29,-22.26,-10.26,-40.739998,-1.2522057,-0.56744313,10.486923,0.13672692,0.06793677,-0.5811528,0.053676315,0.118843712,1.998393536,1015.17725
2021.02.12 16:25:29,-21.42,-10.62,-40.379997,-0.7877164,-0.75659084,8.157294,0.39756638,0.04716735,-0.2182988,0.092059828,0.096267402,2.080303192,1015.17725
2021.02.12 16:25:29,-20.82,-11.58,-40.559998,-0.36871833,-0.9433443,8.169266,0.2772259,0.046556484,-0.16881873,0.114849702,0.045104206,2.18743372,1015.1802
2021.02.12 16:25:29,-20.64,-12.54,-40.5,-0.30167863,0.50040346,9.349643,-0.042256605,0.06549331,-0.0197676,-0.053442359,0.032255135,2.013355017,1015.1909
2021.02.12 16:25:29,-20.4,-13.139999,-41.1,-0.531529,0.97446984,8.6433325,0.010277809,0.10214522,0.09690766,-0.112058386,0.061418496,1.930666566,1015.1909
2021.02.12 16:25:29,-20.34,-13.259999,-41.76,-0.045491222,0.9792584,9.215564,-0.008659015,0.030063123,0.11767708,-0.105862819,0.004936307,1.974802494,1015.188
2021.02.12 16:25:29,-20.4,-13.2,-41.94,0.06464542,0.6249057,9.069513,-0.012935072,0.055719465,0.16898976,-0.068791315,-0.007127651,2.043388367,1015.188
2021.02.12 16:25:29,-19.92,-12.84,-42.239998,0.021548472,1.4365649,8.590658,-0.06730208,0.022732738,0.15677246,-0.165690452,-0.002508356,1.850402355,1015.1831
2021.02.12 16:25:29,-19.859999,-12.78,-41.879997,-0.47885495,1.6448668,9.160496,-0.16626225,0.038615234,0.090188146,-0.177430391,0.05222638,1.810458302,1015.1797
2021.02.12 16:25:30,-20.4,-12.719999,-41.579998,-0.7206767,1.6879637,10.307353,-0.16565138,0.014180626,0.16837889,-0.161933795,0.069805093,1.827193022,1015.1797
2021.02.12 16:25:30,-20.52,-12.179999,-41.879997,-0.22027329,1.9441512,10.259467,-0.031261027,0.050221674,0.28688675,-0.187235489,0.021466948,1.766951203,1015.17944
2021.02.12 16:25:30,-20.4,-11.94,-41.879997,-0.11253092,1.8435916,10.68086,-0.06485862,0.092371374,0.26917166,-0.170913577,0.010535365,1.791695118,1015.17944
2021.02.12 16:25:30,-20.279999,-11.28,-41.76,0.045491222,0.72785956,10.951413,-0.006826419,-0.012697445,0.1262292,-0.066364437,-0.00415389,1.969928026,1015.1802
2021.02.12 16:25:30,-20.039999,-10.98,-41.579998,-0.32562137,-0.61293435,11.360834,0.011499538,-0.030412536,0.058423154,0.05387719,0.028653905,2.126236916,1015.1819
2021.02.12 16:25:30,-19.98,-10.679999,-41.579998,0.67279124,0.86193895,8.624178,0.24973698,0.077710606,0.04070806,-0.09931393,-0.077854536,1.935125709,1015.1819
2021.02.12 16:25:30,-20.1,-10.62,-41.46,-1.2474172,-0.15083931,8.492493,0.14039211,7.42E-04,-0.2378465,0.017571123,0.145841822,1.981629729,1015.17847
2021.02.12 16:25:30,-20.039999,-11.04,-42.18,-1.8076775,-0.38068968,9.397529,0.00355829,-0.05179282,-0.12117123,0.039759316,0.190035537,1.996239543,1015.17847
2021.02.12 16:25:30,-19.8,-11.219999,-42.42,-1.6017698,0.33519846,9.862018,-0.00926988,0.0392261,-0.033206634,-0.033536624,0.161012083,1.930796385,1015.1802
2021.02.12 16:25:30,-19.8,-11.46,-42.54,-0.66800267,0.8044763,7.972935,0.0420428,0.031284854,0.100572854,-0.100211792,0.083588555,1.875677943,1015.1848
2021.02.12 16:25:30,-19.859999,-11.5199995,-42.78,-1.0247496,0.75180227,8.605023,-0.08990409,-0.010253985,0.026658159,-0.086538166,0.118529163,1.883384943,1015.1848
2021.02.12 16:25:30,-19.68,-11.099999,-42.48,-1.1085492,1.0247496,9.368797,-0.22857049,0.015402356,0.006499606,-0.108197078,0.117775939,1.838485956,1015.17896
2021.02.12 16:25:30,-19.68,-11.219999,-42.84,-0.6895511,1.2546,9.534002,-0.20596848,0.011737164,0.037653733,-0.130503371,0.072199747,1.818638802,1015.17896
2021.02.12 16:25:30,-19.38,-10.86,-43.079998,-0.15562786,1.838803,9.445415,-0.11189524,-0.06828618,0.030934216,-0.192246422,0.016475061,1.694176197,1015.1826
2021.02.12 16:25:30,-19.14,-10.0199995,-43.079998,-0.3615355,1.8747171,9.835681,-0.0862389,-0.15014212,-0.09673662,-0.188220397,0.036741007,1.663208604,1015.1802
2021.02.12 16:25:30,-18.96,-9.719999,-43.2,-0.9912298,1.5826156,10.230737,-0.040424008,-0.16907895,-0.2378465,-0.152771533,0.096585959,1.71484077,1015.1802
2021.02.12 16:25:30,-19.32,-9.36,-43.079998,-0.00478855,1.8052832,11.164503,-0.047754392,-0.23932844,-0.21402276,-0.160310894,4.29E-04,1.692469597,1015.1758
2021.02.12 16:25:31,-19.74,-9.599999,-42.78,-0.2561874,0.16281068,12.088694,-0.17725782,-0.11287935,-0.61719376,-0.013464177,0.021189142,1.983127356,1015.1758
2021.02.12 16:25:31,-19.8,-9.96,-42.36,-2.640885,-1.5490957,10.92747,0.016997326,-0.0750057,-0.5561073,0.136932358,0.237127185,2.041379452,1015.177
2021.02.12 16:25:31,-20.4,-10.62,-42.6,0.1987248,-0.2777359,8.047157,0.44338125,0.006239377,0.11462276,0.034489341,-0.024690013,2.129795074,1015.1853
2021.02.12 16:25:31,-20.4,-11.28,-42.84,0.45970076,-0.31365,7.7742105,0.2601217,0.11069734,-0.014880678,0.040252835,-0.059062731,2.202114582,1015.1853
2021.02.12 16:25:31,-20.279999,-11.88,-42.719997,-0.2083019,0.73743665,9.438231,0.004169155,-0.009643119,-0.12666902,-0.077955604,0.022066433,1.953966022,1015.1824
2021.02.12 16:25:31,-20.279999,-12.78,-42.719997,-0.9194015,0.8643332,8.655303,0.04631886,0.06243898,-0.08451932,-0.098978527,0.105827227,1.91084671,1015.1824
2021.02.12 16:25:31,-20.1,-12.9,-42.6,-0.7972935,0.25379312,9.364009,0.02677117,0.008682839,0.09263161,-0.026998768,0.084939599,2.033586264,1015.1792
2021.02.12 16:25:31,-20.16,-13.44,-42.239998,0.09337672,0.63208854,8.676852,0.026160305,0.07404542,0.20747428,-0.072715029,-0.010761173,2.053262949,1015.18677
2021.02.12 16:25:31,-20.039999,-13.44,-42.36,0.22266756,1.515576,8.885154,-0.09723447,0.05755206,0.20747428,-0.168895915,-0.025055386,1.879300952,1015.18677
2021.02.12 16:25:31,-20.16,-13.2,-42.48,-0.117319465,1.620924,9.311335,-0.13755158,0.036171775,0.13722476,-0.17234017,0.012598973,1.842440605,1015.1782
2021.02.12 16:25:31,-20.22,-12.54,-42.6,-0.083799616,1.9537282,10.33369,-0.109451786,-0.001091005,0.16227025,-0.186852351,0.008109182,1.783378601,1015.1782
2021.02.12 16:25:31,-19.98,-11.58,-42.84,-0.5602603,1.8076775,10.549175,-0.042256605,0.05755206,0.13905735,-0.169474691,0.053059544,1.765275002,1015.16797
2021.02.12 16:25:31,-20.039999,-11.16,-43.02,-0.2083019,1.7837347,12.024048,-0.063636884,0.053276002,0.107903235,-0.147251427,0.017322041,1.796833634,1015.1721
2021.02.12 16:25:31,-19.92,-10.74,-43.44,-0.91700727,0.007182824,11.174081,0.004169155,0.024565334,-0.06558249,-6.41E-04,0.081882074,2.000044584,1015.1721
2021.02.12 16:25:31,-19.74,-11.099999,-43.8,-0.94095,-0.64166564,11.126195,0.12206615,0.042280424,0.07613824,0.057403345,0.08436992,2.094486952,1015.16943
2021.02.12 16:25:31,-19.32,-11.28,-43.98,-0.24900457,0.4932206,7.091842,0.2967736,0.05816292,0.13172698,-0.069393165,0.035096992,1.947648168,1015.16943
2021.02.12 16:25:32,-19.199999,-11.46,-43.86,-1.0822122,-0.64166564,8.712766,0.060979623,-0.08477954,-0.017324138,0.072955273,0.123577029,2.103778362,1015.1658
2021.02.12 16:25:32,-19.14,-11.7,-44.28,-0.8978531,0.12450229,9.883567,-0.09173669,-0.037132055,0.022382103,-0.012544582,0.090594351,2.021665096,1015.1704
2021.02.12 16:25:32,-19.199999,-11.7,-44.28,-0.56265455,1.0247496,8.612206,0.025549438,0.05205427,0.113401026,-0.118181616,0.065239504,1.859854341,1015.1704
2021.02.12 16:25:32,-19.56,-11.88,-44.46,-0.57223165,1.1157321,8.523619,-0.053863045,-0.06706446,-0.025265386,-0.129869789,0.067034237,1.839942455,1015.16943
2021.02.12 16:25:32,-19.439999,-12,-44.34,-1.2354459,0.89067024,9.198804,-0.12044736,-0.06645358,-0.06863682,-0.09567,0.133506149,1.878347874,1015.16943
2021.02.12 16:25:32,-19.32,-12,-43.92,-1.2210802,0.88109314,9.294575,-0.14854714,0.016013222,0.024214698,-0.093713559,0.130627483,1.885871172,1015.1697
2021.02.12 16:25:32,-19.02,-12,-43.68,-0.37111259,1.6855695,9.378374,-0.15037975,-0.009643119,0.09263161,-0.177694649,0.039550468,1.772022009,1015.1633
2021.02.12 16:25:32,-18.9,-11.34,-43.86,-0.4189981,1.951334,9.818921,-0.122890815,-0.10921416,-0.05703038,-0.19600223,0.042646643,1.702344656,1015.1633
2021.02.12 16:25:32,-19.14,-11.219999,-44.34,-0.6703969,1.5514901,10.73114,-0.09784534,-0.14220089,-0.099790946,-0.143307835,0.062391028,1.793635368,1015.17236
2021.02.12 16:25:32,-19.26,-11.04,-44.34,-0.3998439,2.1740015,10.453403,0.006612616,-0.07744916,-0.07535634,-0.204902127,0.038231477,1.663341641,1015.17236
2021.02.12 16:25:32,-19.74,-10.8,-44.7,-0.06943397,1.403045,11.300977,-0.039202277,-0.092109926,-0.23540303,-0.123518191,0.006143991,1.826185465,1015.1687
2021.02.12 16:25:32,-19.68,-11.4,-44.399998,-1.2569942,-0.71588814,11.942643,0.048762318,-0.051181957,-0.38628674,0.059544086,0.104866497,2.091348648,1015.167
2021.02.12 16:25:32,-19.92,-11.639999,-44.28,-0.85954463,-0.9289786,9.780613,0.25401303,-0.008421388,-0.17004046,0.094336115,0.087657288,2.151927233,1015.167
2021.02.12 16:25:32,-19.98,-12.54,-44.16,-0.26097596,-1.0726352,7.5898514,0.27844766,0.1552905,-0.03870442,0.140313312,0.034371316,2.281476021,1015.1797
2021.02.12 16:25:32,-20.16,-13.679999,-43.92,1.2881198,1.0223553,8.858817,0.04326453,0.0691585,0.088966414,-0.113711759,-0.144393444,2.119408369,1015.1797
2021.02.12 16:25:32,-20.46,-14.219999,-43.68,-0.6464542,0.8739103,9.301758,0.014553865,0.053276002,-0.22318573,-0.093452014,0.069386497,1.982112646,1015.17944
2021.02.12 16:25:32,-20.4,-14.58,-43.8,-0.6296943,1.0534809,8.420665,0.07930558,0.05755206,-0.13644286,-0.12411698,0.074640714,1.94416678,1015.1714
2021.02.12 16:25:33,-20.52,-14.639999,-44.04,-0.7948992,-0.117319465,8.935433,0.022495113,0.041669562,-0.031374037,0.013077296,0.088726781,2.128658533,1015.1714
2021.02.12 16:25:33,-20.1,-15.179999,-43.68,0.16520496,1.3216397,8.0687065,-0.033093624,0.0832084,0.13783564,-0.162323028,-0.020471916,1.959161639,1015.1753
2021.02.12 16:25:33,-19.8,-15.48,-44.28,-0.28731298,1.6233183,9.1628895,-0.22124013,0.036782637,0.029712487,-0.175258532,0.031345885,1.916769266,1015.1753
2021.02.12 16:25:33,-19.439999,-15.599999,-44.34,-0.4740664,1.9968252,10.2091875,-0.2041359,0.034950044,0.04620585,-0.192949772,0.04640194,1.885471582,1015.17505
2021.02.12 16:25:33,-19.38,-15.299999,-44.64,-0.45251793,1.8675344,10.415095,-0.049586985,0.03556091,0.09690766,-0.177261099,0.043420963,1.902848125,1015.17236
2021.02.12 16:25:33,-19.32,-14.5199995,-45.059998,-0.29928434,1.89866,10.795785,-0.047754392,0.0954257,0.12928352,-0.174024642,0.027715234,1.881149888,1015.17236
2021.02.12 16:25:33,-19.199999,-14.04,-44.879997,0.08140534,0.8547561,11.803775,-0.048365258,0.053276002,0.054147094,-0.072285905,-0.006896442,2.088271856,1015.16675
2021.02.12 16:25:33,-19.02,-13.44,-44.76,-1.297697,-0.8786988,11.085492,0.086025104,0.04961081,0.028490756,0.078566007,0.116532266,2.177262545,1015.16675
2021.02.12 16:25:33,-18.72,-13.5,-44.76,-0.32562137,0.31843856,8.858817,0.2002569,0.10031262,0.16837889,-0.035906252,0.036740217,2.100282907,1015.1721
2021.02.12 16:25:33,-18.779999,-13.86,-44.7,-1.376708,-0.44054657,7.9609637,0.06647741,-0.037132055,0.007721337,0.054475043,0.171238735,2.122121811,1015.18164
2021.02.12 16:25:33,-18.6,-14.5199995,-44.82,-1.1540405,-0.5650489,9.5483675,-0.016600264,-0.12387492,0.11828795,0.058682535,0.120279185,2.189451694,1015.18164
2021.02.12 16:25:33,-18.539999,-14.759999,-44.82,-1.228263,0.3423813,9.026416,0.008445213,0.105199546,0.24473704,-0.03756699,0.135243624,2.065675974,1015.1763
2021.02.12 16:25:33,-18.9,-14.759999,-44.46,-0.24900457,0.9313729,8.265037,-0.026984973,-0.037132055,0.2893302,-0.112164438,0.030118352,2.020174503,1015.1763
2021.02.12 16:25:33,-19.02,-14.34,-44.46,-0.57462597,0.91461295,9.069513,-0.12472341,-0.01453004,0.09079901,-0.100305222,0.0632734,1.998912334,1015.1741
2021.02.12 16:25:33,-19.32,-13.86,-43.92,-0.80687064,0.8978531,9.143736,-0.11189524,-0.025525616,0.029712487,-0.097502999,0.088015012,1.968278527,1015.16846
2021.02.12 16:25:33,-19.32,-14.04,-43.8,-0.67279124,1.2498114,9.5483675,-0.060582563,-0.016973501,0.019938642,-0.129834473,0.070345126,1.931892395,1015.16846
2021.02.12 16:25:33,-19.02,-13.799999,-43.86,-0.49800915,1.6616267,9.550762,-0.006826419,-0.0750057,-0.016713275,-0.172025189,0.05209621,1.857276201,1015.1648
2021.02.12 16:25:34,-18.779999,-13.74,-43.559998,-0.7996878,1.2234744,10.628186,-0.031871896,-0.15197472,-0.0936823,-0.114291273,0.07510066,1.953621149,1015.1648
2021.02.12 16:25:34,-18.779999,-13.679999,-43.559998,-0.17957062,1.6233183,9.869201,0.026160305,-0.09760771,-0.04298048,-0.162997052,0.018193044,1.890863776,1015.16724
2021.02.12 16:25:34,-18.779999,-13.679999,-43.5,0.6656084,1.6807809,11.389565,-0.16198619,-0.06950791,-0.2641137,-0.146268532,-0.058373798,1.980773568,1015.1758
2021.02.12 16:25:34,-18.96,-13.679999,-42.84,-0.5818088,0.14605077,12.718388,-0.2023033,-0.016362637,-0.5780985,-0.011470934,0.045713615,2.134094954,1015.1758
2021.02.12 16:25:34,-19.199999,-14.099999,-43.079998,-2.116539,-1.7262721,9.574705,0.3407559,0.10214522,-0.20669237,0.174259529,0.217556641,2.201082468,1015.1846
2021.02.12 16:25:34,-19.02,-14.58,-42.84,-0.22027329,-0.7326481,7.848433,0.37801868,0.10336695,-0.030763173,0.093043432,0.028058529,2.310485601,1015.1846
2021.02.12 16:25:34,-19.02,-15,-42.6,-0.083799616,0.09337672,8.724737,0.006001751,0.07587802,-0.008772025,-0.010701623,0.009604534,2.21344161,1015.1853
2021.02.12 16:25:34,-18.539999,-15.299999,-42.84,-0.72546524,0.8332076,9.012051,0.022495113,0.027008796,-0.013048082,-0.091897152,0.080326259,2.052328348,1015.17505
2021.02.12 16:25:34,-18.119999,-15.599999,-42.54,-0.1699935,0.7972935,8.660092,0.055481836,0.010515435,0.0663644,-0.091788858,0.019627005,2.122683525,1015.17505
