Time,X-cord,Y-cord,Mag_x,Mag_y,Mag_z,Acc_x,Acc_y,Acc_z,Gyro_x,Gyro_y,Gyro_z,Orn_x,Orn_y,Orn_z,Pressure,
2021.05.19 17:23:23,85.0,86.0,31.08,-11.639999,-30.24,-0.51716334,0.5506832,10.146936,-0.08984728,-0.065986276,-0.03112908,-0.05414754897356033,0.05092337355017662,-1.8946605920791626,1003.29126,
2021.05.19 17:23:23,85.0,86.0,31.14,-11.58,-30.42,-0.7709565,0.600963,10.139753,-0.02204124,0.044580333,-0.11603935,-0.059028781950473785,0.0758870542049408,-1.8941034078598022,1003.28467,
2021.05.19 17:23:23,85.0,86.0,31.439999,-11.7,-31.019999,-0.888276,0.71828246,9.804555,0.12151209,0.06046283,-0.0818309,-0.07283220440149307,0.0903516337275505,-1.883372187614441,1003.28467,
2021.05.19 17:23:23,85.0,86.0,31.439999,-11.639999,-31.56,-0.6249057,0.35914123,10.024829,0.018886732,0.00915015,-0.004251011,-0.03574054315686226,0.062255244702100754,-1.9117552042007446,1003.30054,
2021.05.19 17:23:23,85.0,86.0,32.64,-11.88,-32.52,-0.6488485,0.38787252,9.787795,0.019497598,-0.010397538,-0.0066944724,-0.03952080011367798,0.06619473546743393,-1.9032841920852661,1003.30054,
2021.05.19 17:23:23,85.0,86.0,33.48,-12.599999,-33.42,-0.8930645,0.61293435,9.845258,0.04515394,5.980371E-4,-0.08671782,-0.06192298233509064,0.09046254307031631,-1.8990918397903442,1003.2871,
2021.05.19 17:23:23,85.0,86.0,33.899998,-12.36,-33.36,-0.79250497,0.6656084,9.962578,0.017665,-0.022614842,-0.07083532,-0.06650226563215256,0.07938102632761002,-1.8798240423202515,1003.27856,
2021.05.19 17:23:23,85.0,86.0,34.44,-12.179999,-34.079998,-0.7805336,0.723071,9.981731,0.026217116,-0.034221284,-0.04151379,-0.07209380716085434,0.07803741097450256,-1.8623716831207275,1003.27856,
2021.05.19 17:23:23,85.0,86.0,34.02,-11.82,-33.899998,-0.61293435,0.7446195,9.888355,0.013388945,-0.028723495,-0.015246586,-0.07501737773418427,0.06190626695752144,-1.8488353490829468,1003.2881,
2021.05.19 17:23:23,85.0,86.0,34.44,-11.5199995,-33.78,-0.73743665,0.6464542,10.132571,0.06286903,-0.009175807,-0.0103596635,-0.06354565173387527,0.0726507380604744,-1.8515595197677612,1003.2881,
2021.05.19 17:23:24,85.0,86.0,34.26,-11.82,-33.84,-0.69194543,0.65363705,10.101445,0.03599096,-0.0061214804,-0.033572543,-0.06446655094623566,0.0683928057551384,-1.8596452474594116,1003.29004,
2021.05.19 17:23:24,85.0,86.0,34.02,-12.179999,-33.36,-0.54350036,0.600963,10.046377,0.10868392,-0.02811263,0.009188024,-0.059660643339157104,0.054046452045440674,-1.8739640712738037,1003.2883,
2021.05.19 17:23:24,85.0,86.0,34.02,-12.48,-33.18,-0.7110996,0.84996754,9.840469,0.12029036,-0.027501764,-0.040902928,-0.08593786507844925,0.07213738560676575,-1.859952449798584,1003.2883,
2021.05.19 17:23:24,85.0,86.0,33.66,-12.96,-33.059998,-0.50758624,0.84278476,9.914692,0.072032005,-0.02933436,-0.015246586,-0.08468938618898392,0.05115070566534996,-1.873634934425354,1003.2849,
2021.05.19 17:23:24,85.0,86.0,34.079998,-12.78,-33.0,-0.49082634,0.9337672,9.780613,0.04881913,-0.046438586,-0.01585745,-0.09506382793188095,0.05014153569936752,-1.854209542274475,1003.2849,
2021.05.19 17:23:24,85.0,86.0,33.78,-12.54,-33.239998,-0.5818088,0.87151605,9.715967,0.09829922,-0.03177782,-0.037237737,-0.08930082619190216,0.059810299426317215,-1.8573609590530396,1003.281,
2021.05.19 17:23:24,85.0,86.0,33.96,-12.719999,-33.48,-0.5889916,0.7039168,9.900327,0.05370605,-0.01772792,-0.017690046,-0.07085604965686798,0.059422098100185394,-1.8795733451843262,1003.2815,
2021.05.19 17:23:24,85.0,86.0,33.96,-12.84,-33.84,-0.67757976,0.8236305,9.550762,0.012778079,-0.023836572,0.001246776,-0.08580970764160156,0.07082642614841461,-1.8695168495178223,1003.2815,
2021.05.19 17:23:24,85.0,86.0,34.14,-13.0199995,-33.899998,-0.8978531,1.0678465,9.8548355,0.025606249,-0.03177782,-0.02502043,-0.10749472677707672,0.09085702896118164,-1.8537302017211914,1003.2871,
2021.05.19 17:23:24,85.0,86.0,34.62,-13.139999,-33.84,-0.79250497,1.1037607,10.2091875,-0.03975633,0.0042632283,0.012853215,-0.1073755994439125,0.0774712786078453,-1.8504858016967773,1003.2793,
2021.05.19 17:23:24,85.0,86.0,34.38,-13.0199995,-33.54,-0.4166038,1.010384,10.089474,-0.05502796,0.0311413,0.0623333,-0.09972521662712097,0.04126749187707901,-1.85073721408844,1003.2793,
2021.05.19 17:23:24,85.0,86.0,34.26,-12.66,-32.94,-0.22266756,0.90503585,9.890749,-0.0110456655,0.025032647,0.07271801,-0.09122618287801743,0.022508908063173294,-1.8480687141418457,1003.2793,
2021.05.19 17:23:24,85.0,86.0,33.96,-12.84,-32.64,-0.44054657,0.84039044,10.091868,0.007280292,0.024421781,-0.007916203,-0.08300364017486572,0.04362592101097107,-1.8684000968933105,1003.2793,
2021.05.19 17:23:24,85.0,86.0,33.84,-12.48,-32.64,-0.72785956,0.9217958,9.80695,0.03965615,0.0067066895,-0.040902928,-0.0934632197022438,0.07408292591571808,-1.8550500869750977,1003.2732,
2021.05.19 17:23:24,85.0,86.0,33.719997,-12.54,-32.76,-0.8643332,1.0032011,9.720756,0.03599096,-6.236934E-4,-0.044568118,-0.1024366095662117,0.08868303894996643,-1.8510425090789795,1003.2732,
2021.05.19 17:23:24,85.0,86.0,33.36,-12.599999,-32.94,-0.70631105,0.9289786,10.067925,0.013388945,0.016480533,-0.026242161,-0.09178625047206879,0.07003982365131378,-1.863120436668396,1003.2739,
2021.05.19 17:23:24,85.0,86.0,32.94,-12.36,-33.42,-0.63208854,0.96489275,9.933846,0.014610675,0.013426208,2.5045474E-5,-0.09663387387990952,0.0635441243648529,-1.8519935607910156,1003.2871,
2021.05.19 17:23:25,85.0,86.0,33.12,-12.66,-33.48,-0.5506832,0.9912298,9.749487,0.032325767,-0.005510615,0.0024685066,-0.1011616438627243,0.05642334744334221,-1.8527264595031738,1003.2871,
2021.05.19 17:23:25,85.0,86.0,33.3,-13.08,-33.899998,-0.6057515,0.91700727,9.998491,0.014610675,-0.0048997505,0.012853215,-0.09129223972558975,0.06051032990217209,-1.8739886283874512,1003.28613,
2021.05.19 17:23:25,85.0,86.0,33.12,-13.259999,-34.14,-0.6488485,0.9505271,9.90272,0.012778079,-0.010397538,0.0024685066,-0.09548978507518768,0.0654287189245224,-1.8770687580108643,1003.28613,
2021.05.19 17:23:25,85.0,86.0,33.3,-13.38,-33.6,-0.72785956,1.0199611,9.735122,0.040267013,-0.007954076,-0.019522643,-0.10410195589065552,0.07462751120328903,-1.8728902339935303,1003.28906,
2021.05.19 17:23:25,85.0,86.0,32.94,-13.799999,-33.54,-0.6703969,1.0678465,9.847652,0.023773653,-1.282817E-5,2.5045474E-5,-0.10776711255311966,0.06797195225954056,-1.8832439184188843,1003.2864,
2021.05.19 17:23:25,85.0,86.0,32.64,-13.259999,-32.7,-0.6560313,1.1061549,9.804555,0.0017825048,5.980371E-4,0.028735712,-0.11209691315889359,0.06681128591299057,-1.8673198223114014,1003.2864,
2021.05.19 17:23:25,85.0,86.0,33.0,-13.0199995,-32.28,-0.5123748,1.0223553,9.964972,-0.002493552,-0.0042888853,0.045229074,-0.10210326313972473,0.05137234926223755,-1.8652980327606201,1003.2822,
2021.05.19 17:23:25,85.0,86.0,32.88,-13.08,-32.64,-0.52913475,1.0462981,9.91948,-0.015321722,0.012815342,0.043396477,-0.1049424409866333,0.05329248309135437,-1.8646705150604248,1003.2822,
2021.05.19 17:23:25,85.0,86.0,32.7,-12.9,-32.64,-0.5602603,1.0223553,10.027223,-0.019597778,0.012815342,0.02507052,-0.10144972056150436,0.055815890431404114,-1.8652255535125732,1003.28125,
2021.05.19 17:23:25,85.0,86.0,32.76,-12.84,-33.0,-0.7326481,1.1013664,9.826104,-0.0031044171,0.013426208,0.003690237,-0.11131345480680466,0.07442367821931839,-1.855244517326355,1003.2825,
2021.05.19 17:23:25,85.0,86.0,32.82,-12.96,-32.94,-0.65842557,1.1516461,9.893144,-0.008602205,-0.0012345586,-0.001196685,-0.11563340574502945,0.06645572185516357,-1.8520715236663818,1003.2825,
2021.05.19 17:23:25,85.0,86.0,32.94,-13.139999,-32.52,-0.6153286,1.0870007,10.134965,-0.0128782615,0.012204477,0.023848789,-0.10664921998977661,0.06063900887966156,-1.8659576177597046,1003.2705,
2021.05.19 17:23:25,85.0,86.0,33.3,-13.08,-32.16,-0.54350036,1.0558752,9.842864,0.015221541,-0.0048997505,0.044007342,-0.10670319944620132,0.05516168847680092,-1.8607177734375,1003.2705,
2021.05.19 17:23:25,85.0,86.0,32.88,-13.259999,-32.1,-0.47885495,0.9529214,9.708784,0.030493172,-0.011008403,0.03667696,-0.09771904349327087,0.04928188771009445,-1.8778247833251953,1003.27124,
2021.05.19 17:23:25,85.0,86.0,33.059998,-13.0199995,-32.34,-0.45730647,0.9217958,9.727939,0.014610675,0.0036523633,-0.0054727416,-0.09437187761068344,0.04697501286864281,-1.871551275253296,1003.2761,
2021.05.19 17:23:25,85.0,86.0,33.0,-13.0199995,-32.88,-0.51955765,0.9505271,10.00328,-0.028760757,0.013426208,-0.025631294,-0.09461033344268799,0.051892101764678955,-1.8717103004455566,1003.2761,
2021.05.19 17:23:25,85.0,86.0,32.82,-12.9,-32.88,-0.6608198,1.1037607,9.914692,-0.026928162,0.0042632283,-0.062894076,-0.11062582582235336,0.06655213236808777,-1.855938196182251,1003.272,
2021.05.19 17:23:26,85.0,86.0,33.12,-12.9,-32.82,-0.7039168,1.089395,9.976943,-0.022652104,-0.011008403,-0.047622446,-0.10849281400442123,0.07043763250112534,-1.8565231561660767,1003.2715,
2021.05.19 17:23:26,85.0,86.0,32.94,-13.2,-32.579998,-0.679974,1.0439038,9.917087,-0.0128782615,-0.0061214804,-0.03112908,-0.10463306307792664,0.06845875829458237,-1.8714351654052734,1003.2715,
2021.05.19 17:23:26,85.0,86.0,32.76,-12.96,-32.64,-0.7350424,0.9720756,9.933846,-0.014710857,0.010982746,-0.01341399,-0.09728008508682251,0.07385913282632828,-1.8750487565994263,1003.2678,
2021.05.19 17:23:26,85.0,86.0,32.579998,-12.66,-33.059998,-0.6177229,1.0223553,9.821315,0.01644327,-0.020171382,-0.0054727416,-0.10351891070604324,0.0628134161233902,-1.8574016094207764,1003.2678,
2021.05.19 17:23:26,85.0,86.0,32.219997,-12.12,-32.52,-0.6153286,0.9577099,10.051166,-0.024484701,-0.009175807,6.359107E-4,-0.09482021629810333,0.06114332005381584,-1.8547619581222534,1003.27344,
2021.05.19 17:23:26,85.0,86.0,31.859999,-11.7,-31.859999,-0.52674043,0.9217958,10.029617,0.011556349,-0.008564942,-0.011581394,-0.09152446687221527,0.052470289170742035,-1.8484057188034058,1003.2781,
2021.05.19 17:23:26,85.0,86.0,31.26,-12.0,-31.08,-0.6273,0.97446984,9.802161,0.0139998095,-0.002456289,-0.0024184156,-0.09888722747564316,0.06390894204378128,-1.8596996068954468,1003.2781,
2021.05.19 17:23:26,85.0,86.0,31.199999,-11.82,-29.939999,-0.6057515,1.0223553,9.694419,0.023162788,-0.015895324,-0.014024856,-0.10486675798892975,0.06240342929959297,-1.8509924411773682,1003.27026,
2021.05.19 17:23:26,85.0,86.0,31.26,-12.24,-30.48,-0.6105401,0.9577099,10.082292,-6.609562E-4,-0.012230133,-0.012803124,-0.09453301131725311,0.060481831431388855,-1.8724404573440552,1003.27026,
2021.05.19 17:23:26,85.0,86.0,30.96,-12.36,-31.08,-0.65842557,1.0510867,9.900327,-0.014099992,-1.282817E-5,-0.011581394,-0.1055392473936081,0.06640765070915222,-1.8673099279403687,1003.2742,
2021.05.19 17:23:26,85.0,86.0,31.38,-12.059999,-30.96,-0.5243462,0.9601042,9.838076,0.012167214,-0.012230133,-0.008527068,-0.09714557975530624,0.053247254341840744,-1.8602795600891113,1003.2693,
2021.05.19 17:23:26,85.0,86.0,31.32,-12.12,-31.439999,-0.44294083,0.96489275,9.785401,-0.007991339,0.0012089023,-5.8581977E-4,-0.09818770736455917,0.045234598219394684,-1.858685851097107,1003.2693,
2021.05.19 17:23:26,85.0,86.0,31.32,-11.759999,-31.14,-0.65363705,0.9433443,10.060742,-0.009213069,0.002430633,-0.01219226,-0.09329598397016525,0.06487789005041122,-1.8576714992523193,1003.26855,
2021.05.19 17:23:26,85.0,86.0,31.019999,-11.82,-31.08,-0.7637737,0.9816527,9.838076,-0.0128782615,0.011593612,-0.047011577,-0.09915538132190704,0.0774790495634079,-1.859046220779419,1003.26855,
2021.05.19 17:23:26,85.0,86.0,30.539999,-11.4,-31.199999,-0.66800267,0.98404694,9.73991,-0.026928162,0.015258803,-0.029296486,-0.10045637935400009,0.0684768334031105,-1.8463530540466309,1003.2715,
2021.05.19 17:23:26,85.0,86.0,30.72,-11.4,-31.26,-0.5506832,0.87151605,10.048771,-0.03975633,0.012204477,-0.007916203,-0.08638317883014679,0.05474628880620003,-1.8568750619888306,1003.2715,
2021.05.19 17:23:27,85.0,86.0,30.3,-11.16,-31.199999,-0.56265455,0.9505271,9.864412,-0.029982489,0.014647937,0.009798889,-0.09590769559144974,0.05697709694504738,-1.8434090614318848,1003.27905,
2021.05.19 17:23:27,85.0,86.0,30.72,-10.98,-31.08,-0.66800267,0.87151605,9.924269,-0.015932588,0.0042632283,-0.007916203,-0.08739519864320755,0.06720863282680511,-1.845544695854187,1003.27783,
2021.05.19 17:23:27,85.0,86.0,31.199999,-11.219999,-30.9,-0.69912827,0.94095,9.811738,0.0048368312,-0.007954076,-0.01341399,-0.09536773711442947,0.071134053170681,-1.8413645029067993,1003.27783,
2021.05.19 17:23:27,85.0,86.0,31.14,-11.34,-30.84,-0.61293435,0.845179,10.127783,-0.021430375,0.014037072,2.5045474E-5,-0.08310726284980774,0.0604463666677475,-1.8566951751708984,1003.2761,
2021.05.19 17:23:27,85.0,86.0,31.199999,-11.639999,-30.779999,-0.5650489,0.89067024,9.926663,-0.002493552,-0.0061214804,0.001246776,-0.08934155851602554,0.05686097592115402,-1.8582990169525146,1003.2761,
2021.05.19 17:23:27,85.0,86.0,31.199999,-12.0,-30.48,-0.61293435,0.92658436,9.8237095,0.00239337,0.005484959,-0.020133507,-0.09386155754327774,0.06231259927153587,-1.8666870594024658,1003.2749,
2021.05.19 17:23:27,85.0,86.0,31.019999,-11.82,-30.179998,-0.6344828,0.81165916,10.029617,-0.0018826867,0.0067066895,-0.01219226,-0.08058986812829971,0.063176728785038,-1.877448558807373,1003.2766,
2021.05.19 17:23:27,85.0,86.0,30.66,-11.639999,-30.179998,-0.69194543,0.8786988,9.759064,-0.009823934,0.0036523633,-0.011581394,-0.0895734503865242,0.07078439742326736,-1.867783784866333,1003.2766,
2021.05.19 17:23:27,85.0,86.0,31.199999,-11.34,-30.06,-0.7110996,0.8786988,9.72315,0.009723753,0.0036523633,-0.029907353,-0.08988822996616364,0.07300472259521484,-1.853393793106079,1003.2766,
2021.05.19 17:23:27,85.0,86.0,31.14,-10.98,-30.539999,-0.7733508,0.8547561,9.976943,-0.0031044171,0.0060958243,-0.01463572,-0.08521009236574173,0.07735911756753922,-1.8474115133285522,1003.2766,
2021.05.19 17:23:27,85.0,86.0,31.38,-11.46,-31.019999,-0.6273,0.82123625,9.948212,-0.028149894,0.012204477,0.014074947,-0.08220186829566956,0.06297318637371063,-1.8593599796295166,1003.282,
2021.05.19 17:23:27,85.0,86.0,31.859999,-11.7,-30.599998,-0.7302538,0.8571504,10.029617,-0.016543454,0.009761016,0.006133698,-0.08503076434135437,0.0726814866065979,-1.8623510599136353,1003.28906,
2021.05.19 17:23:27,85.0,86.0,31.98,-11.759999,-30.72,-0.71588814,0.94095,9.711179,-0.004937013,-0.0042888853,-0.001196685,-0.09633219242095947,0.07358483970165253,-1.8511366844177246,1003.28906,
2021.05.19 17:23:27,85.0,86.0,32.28,-11.94,-30.42,-0.66321415,0.80687064,10.072714,-0.0031044171,0.003041498,0.0024685066,-0.07976193726062775,0.06574774533510208,-1.8698580265045166,1003.28906,
2021.05.19 17:23:27,85.0,86.0,32.34,-11.82,-30.42,-0.6249057,0.8284191,9.917087,-0.0037152825,0.003041498,0.009798889,-0.08317682147026062,0.06292983144521713,-1.8616175651550293,1003.28906,
2021.05.19 17:23:27,85.0,86.0,31.8,-11.58,-30.599998,-0.6943397,0.81165916,9.90272,0.010945483,-0.006732346,0.009188024,-0.08158104866743088,0.07000149041414261,-1.862196683883667,1003.28687,
2021.05.19 17:23:27,85.0,86.0,31.56,-11.88,-31.14,-0.67279124,0.8356019,9.931452,5.607743E-4,-0.001845424,-5.8581977E-4,-0.08374818414449692,0.06764014810323715,-1.8699185848236084,1003.29224,
2021.05.19 17:23:28,85.0,86.0,31.74,-11.88,-31.199999,-0.68715686,0.7877164,10.065532,-0.0031044171,-0.001845424,0.008577159,-0.07791899144649506,0.06816255301237106,-1.8743305206298828,1003.29224,
2021.05.19 17:23:28,85.0,86.0,31.38,-11.5199995,-31.14,-0.72546524,0.8379962,9.797373,0.015221541,-0.011008403,-0.009748799,-0.08509323745965958,0.07391202449798584,-1.8604660034179688,1003.2932,
2021.05.19 17:23:28,85.0,86.0,31.859999,-11.88,-31.199999,-0.6296943,0.83081335,9.866806,-0.0043261475,-0.0012345586,-0.009748799,-0.0838349461555481,0.06373302638530731,-1.8659000396728516,1003.2932,
2021.05.19 17:23:28,85.0,86.0,31.679998,-11.639999,-31.019999,-0.6608198,0.8236305,10.082292,-0.0104348,0.002430633,-0.0030292806,-0.08133607357740402,0.06544901430606842,-1.8635952472686768,1003.2903,
2021.05.19 17:23:28,85.0,86.0,31.08,-11.639999,-30.779999,-0.66321415,0.8571504,9.895537,0.0054476964,-0.015284459,-0.003640146,-0.08621177822351456,0.06692146509885788,-1.8650327920913696,1003.2864,
2021.05.19 17:23:28,85.0,86.0,31.019999,-11.759999,-30.42,-0.6751855,0.81644773,9.859624,0.012167214,0.010982746,-0.0103596635,-0.0824265256524086,0.06837309896945953,-1.8744770288467407,1003.2864,
2021.05.19 17:23:28,85.0,86.0,31.26,-11.219999,-30.3,-0.6249057,0.81644773,9.943423,0.0011716395,0.0060958243,-0.0024184156,-0.08176495134830475,0.06276358664035797,-1.8548197746276855,1003.2783,
2021.05.19 17:23:28,85.0,86.0,31.439999,-11.04,-29.88,-0.68236834,0.8547561,9.957788,-0.0067696087,0.0018197676,0.0030793718,-0.08542869240045547,0.06841912865638733,-1.8457701206207275,1003.2783,
2021.05.19 17:23:28,85.0,86.0,31.619999,-10.98,-29.76,-0.6344828,0.8356019,9.838076,0.0030042352,-0.0036780196,-0.0048618764,-0.08455730974674225,0.06440337747335434,-1.8426071405410767,1003.28296,
2021.05.19 17:23:28,85.0,86.0,32.16,-11.099999,-30.24,-0.6464542,0.81644773,9.931452,0.0054476964,-0.0030671544,-0.01219226,-0.08185141533613205,0.06499991565942764,-1.8434677124023438,1003.29443,
2021.05.19 17:23:28,85.0,86.0,31.32,-11.759999,-30.359999,-0.64166564,0.84278476,9.888355,-0.0067696087,-0.001845424,-0.01341399,-0.08484695106744766,0.0648001879453659,-1.868252158164978,1003.29443,
2021.05.19 17:23:28,85.0,86.0,30.96,-11.759999,-30.84,-0.6608198,0.8547561,9.921875,-5.009095E-5,-0.007343211,-0.012803124,-0.08574742823839188,0.0665040910243988,-1.8702681064605713,1003.2898,
2021.05.19 17:23:28,85.0,86.0,31.14,-11.7,-30.96,-0.6895511,0.7948992,9.979338,0.0139998095,-0.007954076,-0.014024856,-0.07929839938879013,0.06898822635412216,-1.873849630355835,1003.2898,
2021.05.19 17:23:28,85.0,86.0,30.9,-11.4,-30.779999,-0.6703969,0.8571504,9.8787775,-6.609562E-4,-0.0042888853,-0.0073053376,-0.08635246753692627,0.06775844842195511,-1.8592191934585571,1003.29346,
2021.05.19 17:23:28,85.0,86.0,31.439999,-10.86,-31.14,-0.58420306,0.74701375,9.984126,5.607743E-4,-0.008564942,0.0024685066,-0.074553944170475,0.058446548879146576,-1.8468974828720093,1003.29297,
2021.05.19 17:23:28,85.0,86.0,31.8,-10.8,-30.66,-0.6943397,0.8140534,9.955395,-0.0018826867,5.980371E-4,-0.001196685,-0.08139170706272125,0.06963231414556503,-1.8379215002059937,1003.29297,
2021.05.19 17:23:29,85.0,86.0,31.92,-10.679999,-30.72,-0.70631105,0.91700727,9.75667,0.008502022,-0.007954076,-0.017690046,-0.09346926212310791,0.07226657122373581,-1.8206597566604614,1003.29297,
2021.05.19 17:23:29,85.0,86.0,31.74,-10.38,-30.539999,-0.679974,0.8284191,10.015251,0.009723753,-0.007343211,-0.009748799,-0.08233918994665146,0.06778982281684875,-1.8241006135940552,1003.29297,
2021.05.19 17:23:29,85.0,86.0,31.5,-10.2,-30.119999,-0.58420306,0.8332076,9.979338,0.0048368312,-0.0012345586,0.012242351,-0.08315835893154144,0.05847452953457832,-1.8187148571014404,1003.28687,
2021.05.19 17:23:29,85.0,86.0,31.08,-10.26,-30.179998,-0.66800267,0.8571504,9.799767,0.021941056,-0.007343211,0.006133698,-0.0870434120297432,0.06805987656116486,-1.8216472864151,1003.28394,
2021.05.19 17:23:29,85.0,86.0,30.72,-10.44,-30.72,-0.6057515,0.818842,9.847652,0.015221541,-0.007343211,-0.0054727416,-0.08280434459447861,0.06143486872315407,-1.8326504230499268,1003.28394,
2021.05.19 17:23:29,85.0,86.0,30.9,-10.8,-31.26,-0.69194543,0.8571504,9.914692,5.607743E-4,0.003041498,-0.0054727416,-0.08602990210056305,0.06967693567276001,-1.8397258520126343,1003.2822,
2021.05.19 17:23:29,85.0,86.0,30.96,-11.219999,-31.38,-0.66800267,0.89067024,9.783007,-6.609562E-4,0.005484959,-0.011581394,-0.09058251231908798,0.06817612051963806,-1.8470631837844849,1003.2822,
2021.05.19 17:23:29,85.0,86.0,31.32,-10.98,-31.32,-0.6105401,0.84996754,10.000886,-0.007380474,0.0012089023,0.0018576413,-0.08462867140769958,0.06097292900085449,-1.8412116765975952,1003.28735,
2021.05.19 17:23:29,85.0,86.0,31.8,-11.46,-30.779999,-0.61293435,0.86193895,9.859624,-0.002493552,0.003041498,0.004911967,-0.08703222870826721,0.06208619847893715,-1.8507146835327148,1003.2825,
2021.05.19 17:23:29,85.0,86.0,31.679998,-11.16,-30.24,-0.54350036,0.7709565,10.0439825,-0.015321722,0.003041498,0.0043011024,-0.07649635523557663,0.05405931547284126,-1.8527153730392456,1003.2825,
2021.05.19 17:23:29,85.0,86.0,31.679998,-11.04,-30.48,-0.7446195,0.88588166,9.885961,0.006669427,0.0042632283,-0.009137933,-0.0891202762722969,0.07517894357442856,-1.8398429155349731,1003.292,
2021.05.19 17:23:29,85.0,86.0,31.679998,-11.4,-30.599998,-0.7302538,0.9074302,9.80695,0.012167214,-0.0048997505,-0.0103596635,-0.09201327711343765,0.07432571798563004,-1.8476617336273193,1003.292,
2021.05.19 17:23:29,85.0,86.0,31.5,-11.099999,-30.599998,-0.7110996,0.8547561,9.964972,-0.002493552,0.004874094,0.0043011024,-0.0853506401181221,0.0712391659617424,-1.846300482749939,1003.2859,
2021.05.19 17:23:29,85.0,86.0,31.619999,-11.5199995,-30.599998,-0.6488485,0.85236186,9.8787775,0.00239337,-0.002456289,0.01896187,-0.08588481694459915,0.06558685004711151,-1.8565495014190674,1003.282,
2021.05.19 17:23:29,85.0,86.0,31.38,-11.28,-30.3,-0.6105401,0.84996754,9.885961,-0.008602205,-0.007343211,0.02751398,-0.08560401946306229,0.061679959297180176,-1.8513725996017456,1003.282,
2021.05.19 17:23:29,85.0,86.0,31.38,-11.34,-30.539999,-0.64166564,0.845179,10.0368,-0.0110456655,0.0036523633,0.015907543,-0.08383946120738983,0.06384440511465073,-1.8550523519515991,1003.2749,
2021.05.19 17:23:29,85.0,86.0,31.38,-11.16,-30.539999,-0.63208854,0.8475733,9.941029,-0.0037152825,-0.002456289,0.013464081,-0.08488383144140244,0.06349834054708481,-1.8482469320297241,1003.2749,
2021.05.19 17:23:30,85.0,86.0,31.26,-11.099999,-30.599998,-0.6105401,0.818842,9.821315,0.0030042352,-0.001845424,0.004911967,-0.08302205801010132,0.06208490580320358,-1.848985195159912,1003.2783,
2021.05.19 17:23:30,85.0,86.0,31.32,-11.46,-30.359999,-0.6105401,0.86193895,9.890749,0.0011716395,0.005484959,0.0030793718,-0.08676205575466156,0.061650171875953674,-1.8562142848968506,1003.2825,
2021.05.19 17:23:30,85.0,86.0,31.26,-11.5199995,-29.939999,-0.69912827,0.90982443,10.015251,0.0017825048,-6.236934E-4,-0.008527068,-0.09037649631500244,0.06969330459833145,-1.8575530052185059,1003.2825,
2021.05.19 17:23:30,85.0,86.0,31.14,-11.7,-30.179998,-0.6703969,0.89545876,9.96976,-0.012267396,0.003041498,6.359107E-4,-0.08937636017799377,0.06714195758104324,-1.8643238544464111,1003.28394,
2021.05.19 17:23:30,85.0,86.0,31.199999,-11.7,-30.24,-0.5458947,0.8356019,9.897932,0.014610675,-0.008564942,0.012853215,-0.08409496396780014,0.0550965815782547,-1.866353154182434,1003.28394,
2021.05.19 17:23:30,85.0,86.0,31.199999,-11.88,-30.48,-0.5363176,0.8332076,9.862018,0.018886732,-0.015284459,0.018351004,-0.08416258543729782,0.05432862043380737,-1.871167540550232,1003.28735,
2021.05.19 17:23:30,85.0,86.0,30.9,-11.7,-30.3,-0.69673395,0.8739103,10.015251,-0.009823934,0.005484959,-0.0048618764,-0.08682870119810104,0.06945539265871048,-1.8696430921554565,1003.28296,
2021.05.19 17:23:30,85.0,86.0,30.779999,-11.759999,-30.179998,-0.6895511,0.9194015,9.847652,0.0030042352,-0.0061214804,-0.011581394,-0.09286657720804214,0.0699077695608139,-1.8667091131210327,1003.28296,
2021.05.19 17:23:30,85.0,86.0,31.14,-11.5199995,-30.119999,-0.66800267,0.82602483,9.945818,0.01644327,-0.011619267,0.004911967,-0.08267688751220703,0.06706345826387405,-1.8657562732696533,1003.28564,
2021.05.19 17:23:30,85.0,86.0,31.679998,-11.5199995,-30.119999,-0.5818088,0.85236186,9.809344,0.009723753,-0.007954076,0.017129272,-0.08652383834123611,0.059242285788059235,-1.8549882173538208,1003.28564,
2021.05.19 17:23:30,85.0,86.0,31.56,-11.5199995,-30.359999,-0.48124924,0.76616794,9.941029,0.0054476964,-0.013451863,0.015907543,-0.07682961970567703,0.04837264120578766,-1.8630112409591675,1003.2793,
2021.05.19 17:23:30,85.0,86.0,31.5,-11.5199995,-30.359999,-0.6249057,0.87151605,9.953,-0.042810656,0.02075659,-0.017690046,-0.0871696025133133,0.06270335614681244,-1.8562097549438477,1003.27686,
2021.05.19 17:23:30,85.0,86.0,31.439999,-12.0,-30.3,-0.7733508,0.91461295,10.094262,-0.018376049,0.016480533,-0.047011577,-0.09009787440299988,0.07646353542804718,-1.8719213008880615,1003.27686,
2021.05.19 17:23:30,85.0,86.0,31.5,-11.82,-30.359999,-0.6895511,0.8284191,10.027223,5.607743E-4,-0.020782245,0.017129272,-0.08223646134138107,0.06865981221199036,-1.8719685077667236,1003.2803,
2021.05.19 17:23:30,85.0,86.0,31.98,-12.12,-30.539999,-0.55786604,0.85236186,9.759064,0.032325767,0.03602822,0.033011768,-0.08697818219661713,0.05710174888372421,-1.8686693906784058,1003.2803,
2021.05.19 17:23:30,85.0,86.0,32.46,-12.179999,-30.599998,-0.57462597,0.94095,9.90272,0.017054137,0.05801937,-0.008527068,-0.09457676112651825,0.0579620860517025,-1.8584529161453247,1003.2825,
2021.05.19 17:23:30,85.0,86.0,32.399998,-11.7,-30.72,-0.5889916,0.90982443,10.381576,-0.08373863,-0.008564942,-5.8581977E-4,-0.08727540075778961,0.0566735602915287,-1.8514199256896973,1003.2925,
2021.05.19 17:23:31,85.0,86.0,32.399998,-11.759999,-30.9,-0.6273,0.9529214,10.163696,0.017054137,-0.07148406,0.0146858115,-0.09330756962299347,0.06164148077368736,-1.847686767578125,1003.2925,
2021.05.19 17:23:31,85.0,86.0,32.1,-11.759999,-31.08,-0.5865973,0.9481328,9.914692,0.06409076,-0.069040604,0.020794464,-0.09517373144626617,0.05909556522965431,-1.8474817276000977,1003.2976,
2021.05.19 17:23:31,85.0,86.0,31.8,-11.58,-31.14,0.03351985,1.2713599,8.0687065,0.09096883,-0.095307805,0.07088541,-0.1562805324792862,-0.00415427889674902,-1.7750146389007568,1003.29395,
2021.05.19 17:23:31,85.0,86.0,30.9,-12.12,-31.14,-0.723071,0.87630457,10.458193,0.103796996,0.026254378,0.08676791,-0.0833977609872818,0.06902933865785599,-1.8847756385803223,1003.29395,
2021.05.19 17:23:31,85.0,86.0,30.359999,-11.82,-30.66,-0.23942748,0.89545876,10.039194,-0.06785613,-0.13990097,0.08249185,-0.08893570303916931,0.023844752460718155,-1.865362524986267,1003.29175,
