Time,X-cord,Y-cord,Mag_x,Mag_y,Mag_z,Acc_x,Acc_y,Acc_z,Gyro_x,Gyro_y,Gyro_z,Orn_x,Orn_y,Orn_z,Pressure,
2021.05.19 17:20:24,100.0,71.0,27.9,-13.62,-33.719997,-0.600963,0.6895511,9.742304,0.009723753,-0.08370137,0.01896187,-0.07052761316299438,0.061607860028743744,-1.9772827625274658,1003.2644,
2021.05.19 17:20:24,100.0,71.0,27.779999,-14.4,-33.78,-0.7637737,0.7446195,9.921875,-0.042810656,0.07390186,-0.040292062,-0.07468769699335098,0.07682725042104721,-2.0064988136291504,1003.25464,
2021.05.19 17:20:24,100.0,71.0,28.199999,-14.34,-34.739998,-0.60335726,0.5913859,9.967366,-0.02081951,0.030530434,0.0055228327,-0.059154707938432693,0.06045949459075928,-2.007666826248169,1003.25464,
2021.05.19 17:20:24,100.0,71.0,29.64,-14.34,-35.88,-0.53392327,0.56744313,9.890749,-0.017154317,-0.018338785,0.018351004,-0.057225145399570465,0.05392974242568016,-1.9854352474212646,1003.25464,
2021.05.19 17:20:24,100.0,71.0,29.939999,-14.88,-36.36,-0.6081458,0.6464542,9.917087,0.00239337,-0.023225708,-0.016468316,-0.06497209519147873,0.06124633178114891,-1.9914554357528687,1003.2544,
2021.05.19 17:20:24,100.0,71.0,30.539999,-15.059999,-37.02,-0.77574503,0.6895511,9.938635,0.04087788,-0.011008403,-0.03112908,-0.06906048208475113,0.07789554446935654,-1.9908802509307861,1003.2544,
2021.05.19 17:20:24,100.0,71.0,30.539999,-15.36,-36.96,-0.72546524,0.6296943,9.8548355,0.02927144,0.021367455,-0.02502043,-0.06363850086927414,0.07348261028528214,-2.0043087005615234,1003.2534,
2021.05.19 17:20:24,100.0,71.0,30.24,-16.199999,-36.899998,-0.6751855,0.6847626,9.763853,0.030493172,-0.0036780196,-0.014024856,-0.06985150277614594,0.06904163211584091,-2.0238003730773926,1003.2427,
2021.05.19 17:20:24,100.0,71.0,31.14,-16.199999,-36.42,-0.6847626,0.7110996,9.888355,0.02927144,0.0012089023,-0.007916203,-0.07161831855773926,0.0691390186548233,-2.009765625,1003.2427,
2021.05.19 17:20:24,100.0,71.0,31.32,-16.32,-36.42,-0.62251145,0.6895511,10.032011,-0.028760757,0.0012089023,0.017129272,-0.06849581003189087,0.06197304651141167,-2.0109782218933105,1003.25,
2021.05.19 17:20:24,100.0,71.0,31.679998,-16.26,-36.48,-0.59378016,0.7350424,9.90272,-0.024484701,-0.0030671544,0.017129272,-0.07395809143781662,0.05988961085677147,-1.997509479522705,1003.24976,
2021.05.19 17:20:24,100.0,71.0,31.56,-15.839999,-36.36,-0.57223165,0.69673395,9.976943,0.00239337,-0.017117055,0.016518408,-0.0696071982383728,0.057292640209198,-1.9910879135131836,1003.24976,
2021.05.19 17:20:24,100.0,71.0,31.019999,-15.719999,-37.14,-0.6081458,0.6656084,9.9889145,0.023162788,0.004874094,-0.017690046,-0.06641373038291931,0.060807012021541595,-1.9989230632781982,1003.25,
2021.05.19 17:20:25,100.0,71.0,31.08,-15.42,-37.32,-0.54350036,0.65124273,9.917087,0.0048368312,-0.014673594,0.0018576413,-0.06547662615776062,0.05474966764450073,-1.9876521825790405,1003.25,
2021.05.19 17:20:25,100.0,71.0,30.66,-15.78,-37.26,-0.67757976,0.6847626,9.979338,-6.609562E-4,0.0018197676,-0.019522643,-0.06835375726222992,0.06779421865940094,-2.0063998699188232,1003.2495,
2021.05.19 17:20:25,100.0,71.0,30.599998,-16.26,-37.32,-0.5889916,0.6847626,9.9889145,0.0139998095,-0.0012345586,-0.026853025,-0.06832686066627502,0.05889632925391197,-2.016808271408081,1003.2495,
2021.05.19 17:20:25,100.0,71.0,30.42,-16.32,-36.719997,-0.63208854,0.7039168,10.055954,0.012167214,-0.0048997505,-0.0048618764,-0.06974879652261734,0.06277456134557724,-2.0219638347625732,1003.2566,
2021.05.19 17:20:25,100.0,71.0,30.179998,-15.96,-37.079998,-0.58420306,0.6703969,9.924269,0.046986535,0.0012089023,-0.014024856,-0.06733258813619614,0.05879824981093407,-2.01536226272583,1003.24316,
2021.05.19 17:20:25,100.0,71.0,30.3,-16.14,-37.14,-0.5961744,0.68236834,9.852441,0.068977684,-0.012840998,6.359107E-4,-0.06902254372835159,0.060436636209487915,-2.017673969268799,1003.24316,
2021.05.19 17:20:25,100.0,71.0,30.119999,-15.66,-37.079998,-0.5961744,0.72785956,9.948212,0.028660577,0.004874094,-0.009748799,-0.07290440052747726,0.05985620990395546,-2.001373291015625,1003.24194,
2021.05.19 17:20:25,100.0,71.0,30.359999,-15.599999,-37.26,-0.61293435,0.72546524,10.027223,0.015832406,0.022589186,-0.01219226,-0.07208963483572006,0.06105107069015503,-1.9976123571395874,1003.25024,
2021.05.19 17:20:25,100.0,71.0,30.24,-16.199999,-36.48,-0.64166564,0.7972935,9.862018,0.007280292,0.017091399,0.003690237,-0.08049994707107544,0.06497275829315186,-2.009944438934326,1003.25024,
2021.05.19 17:20:25,100.0,71.0,30.24,-16.08,-35.88,-0.67757976,0.818842,9.802161,0.014610675,0.010371881,0.001246776,-0.0831458792090416,0.0690157562494278,-2.006082057952881,1003.24756,
2021.05.19 17:20:25,100.0,71.0,30.06,-16.08,-35.46,-0.5506832,0.75180227,9.845258,0.0054476964,0.0036523633,0.009798889,-0.07609547674655914,0.05587563291192055,-2.011293411254883,1003.24756,
2021.05.19 17:20:25,100.0,71.0,29.88,-15.96,-35.399998,-0.4285752,0.68715686,9.96976,-0.021430375,-0.0061214804,0.029346576,-0.0687519907951355,0.04296106472611427,-2.012709856033325,1003.24585,
2021.05.19 17:20:25,100.0,71.0,30.119999,-15.839999,-35.46,-0.65363705,0.7996878,10.063137,-0.024484701,0.0012089023,0.0030793718,-0.07913434505462646,0.06486248970031738,-2.0040149688720703,1003.24585,
2021.05.19 17:20:25,100.0,71.0,29.88,-16.26,-35.64,-0.68715686,0.86193895,9.771035,-0.002493552,0.002430633,-0.020133507,-0.0877702608704567,0.07021030783653259,-2.0120558738708496,1003.24756,
2021.05.19 17:20:25,100.0,71.0,30.0,-16.26,-36.18,-0.6751855,0.70870537,10.034406,0.012778079,-0.023836572,-0.0048618764,-0.07035189867019653,0.06718577444553375,-2.0282883644104004,1003.2434,
2021.05.19 17:20:25,100.0,71.0,29.699999,-16.44,-35.82,-0.6153286,0.7685622,9.72315,-0.013489126,-0.032388687,0.023848789,-0.0787237212061882,0.06320061534643173,-2.026848316192627,1003.2434,
2021.05.19 17:20:25,100.0,71.0,29.279999,-16.26,-35.76,-0.6440599,0.7901107,9.917087,0.0030042352,-0.02933436,0.015296676,-0.07933728396892548,0.06485338509082794,-2.0278751850128174,1003.2368,
2021.05.19 17:20:26,100.0,71.0,29.76,-15.599999,-35.94,-0.58420306,0.81165916,10.072714,-0.02204124,-0.014062729,0.022016194,-0.08027194440364838,0.05793367698788643,-1.9966998100280762,1003.2368,
2021.05.19 17:20:26,100.0,71.0,29.519999,-15.54,-35.82,-0.5818088,0.90024734,9.948212,0.004225966,-0.012840998,0.020794464,-0.09009445458650589,0.05841721594333649,-1.9870803356170654,1003.249,
2021.05.19 17:20:26,100.0,71.0,30.06,-15.179999,-36.18,-0.55307746,0.74222517,10.132571,0.010334618,-0.014673594,0.040953018,-0.07301251590251923,0.054530005902051926,-1.9866653680801392,1003.25635,
2021.05.19 17:20:26,100.0,71.0,30.24,-15.36,-36.36,-0.48124924,0.7350424,9.895537,0.034158364,-0.007954076,0.033011768,-0.07405681908130646,0.04859466850757599,-1.9855796098709106,1003.25635,
2021.05.19 17:20:26,100.0,71.0,29.88,-15.54,-36.36,-0.47885495,0.74701375,9.766247,0.03599096,-6.236934E-4,0.018351004,-0.07624944299459457,0.04899238795042038,-1.9933059215545654,1003.2471,
2021.05.19 17:20:26,100.0,71.0,30.3,-15.599999,-36.0,-0.5147691,0.7637737,9.909904,0.024995385,0.010371881,-0.006083607,-0.07681653648614883,0.05189826712012291,-1.9906630516052246,1003.2471,
2021.05.19 17:20:26,100.0,71.0,29.64,-15.9,-35.7,-0.5865973,0.818842,9.905115,0.0139998095,0.012204477,-0.012803124,-0.08233744651079178,0.05915256589651108,-2.0058722496032715,1003.2566,
2021.05.19 17:20:26,100.0,71.0,29.58,-15.839999,-35.7,-0.6344828,0.8571504,9.912297,0.018886732,-0.0061214804,-0.0066944724,-0.0860835537314415,0.0639224499464035,-2.002715826034546,1003.2529,
2021.05.19 17:20:26,100.0,71.0,29.22,-15.66,-35.579998,-0.57223165,0.8140534,9.953,0.015832406,-6.236934E-4,-0.01341399,-0.08147414773702621,0.05743015930056572,-2.0050058364868164,1003.2529,
2021.05.19 17:20:26,100.0,71.0,28.98,-15.78,-35.16,-0.54828894,0.86193895,9.953,0.015832406,-0.001845424,-0.0024184156,-0.0862552598118782,0.05503218248486519,-2.0061638355255127,1003.25684,
2021.05.19 17:20:26,100.0,71.0,29.16,-15.78,-35.46,-0.5889916,0.87630457,9.871595,0.014610675,0.0018197676,-0.0024184156,-0.08838187158107758,0.05959463492035866,-2.0026211738586426,1003.25684,
2021.05.19 17:20:26,100.0,71.0,28.98,-16.38,-35.7,-0.45491222,0.8356019,9.830893,0.0030042352,-0.012230133,0.001246776,-0.08470355719327927,0.046240758150815964,-2.020916223526001,1003.2566,
2021.05.19 17:20:26,100.0,71.0,29.279999,-16.5,-35.579998,-0.57223165,0.80687064,10.063137,-0.0043261475,-0.007343211,2.5045474E-5,-0.07988116145133972,0.05680296942591667,-2.0307259559631348,1003.2554,
2021.05.19 17:20:26,100.0,71.0,29.279999,-16.74,-36.18,-0.64166564,0.90503585,9.680053,0.00239337,-0.001845424,-0.019522643,-0.093020960688591,0.06619057804346085,-2.026148796081543,1003.2554,
2021.05.19 17:20:26,100.0,71.0,29.34,-16.56,-36.54,-0.5818088,0.7350424,10.00328,0.0036151006,-0.002456289,-0.029296486,-0.07322501391172409,0.05809635668992996,-2.0384938716888428,1003.2578,
2021.05.19 17:20:26,100.0,71.0,29.76,-16.32,-36.239998,-0.6464542,0.8284191,9.804555,-0.02326297,0.007317555,-0.009137933,-0.08411131799221039,0.0658387765288353,-2.0168395042419434,1003.2578,
2021.05.19 17:20:26,100.0,71.0,30.24,-16.14,-36.18,-0.58420306,0.7901107,9.842864,-0.013489126,-0.0012345586,-0.017079182,-0.07996057718992233,0.05928340554237366,-2.0066516399383545,1003.25854,
2021.05.19 17:20:27,100.0,71.0,30.24,-15.9,-36.12,-0.57223165,0.80687064,9.957788,-0.026928162,0.002430633,-0.001196685,-0.08071986585855484,0.057402607053518295,-1.9980076551437378,1003.25854,
2021.05.19 17:20:27,100.0,71.0,30.06,-15.719999,-35.04,-0.56744313,0.81165916,10.13736,-0.035480276,0.014037072,0.007966294,-0.07977135479450226,0.05591708421707153,-1.997309684753418,1003.25854,
2021.05.19 17:20:27,100.0,71.0,29.34,-15.179999,-34.2,-0.5865973,0.81644773,10.055954,-0.020208646,0.017091399,-0.006083607,-0.08087590336799622,0.05826730281114578,-1.9921177625656128,1003.2617,
2021.05.19 17:20:27,100.0,71.0,28.619999,-15.179999,-33.719997,-0.62251145,0.8236305,9.749487,0.010945483,0.003041498,-0.0066944724,-0.08410879224538803,0.06376412510871887,-2.0018107891082764,1003.2617,
2021.05.19 17:20:27,100.0,71.0,28.32,-14.94,-33.42,-0.5650489,0.7326481,9.912297,0.021941056,-6.236934E-4,0.0073554283,-0.0736597329378128,0.05694321170449257,-2.0079963207244873,1003.2561,
2021.05.19 17:20:27,100.0,71.0,28.019999,-15.059999,-33.3,-0.54350036,0.73743665,9.883567,0.0017825048,-1.282817E-5,0.010409755,-0.07436247915029526,0.05493497848510742,-2.0146470069885254,1003.25146,
2021.05.19 17:20:27,100.0,71.0,28.32,-14.88,-33.54,-0.5865973,0.7948992,9.833286,5.607743E-4,0.004874094,-0.006083607,-0.08051968365907669,0.0595836415886879,-1.9993520975112915,1003.25146,
2021.05.19 17:20:27,100.0,71.0,28.08,-14.82,-33.54,-0.6249057,0.75180227,10.022434,-0.0061587435,-1.282817E-5,-5.8581977E-4,-0.07472715526819229,0.06227008253335953,-2.008829355239868,1003.24854,
2021.05.19 17:20:27,100.0,71.0,27.9,-14.82,-33.48,-0.6344828,0.8284191,9.938635,-0.008602205,-0.0042888853,0.008577159,-0.08299300074577332,0.06375352293252945,-2.0027413368225098,1003.2527,
2021.05.19 17:20:27,100.0,71.0,27.72,-14.88,-33.84,-0.55307746,0.7589851,9.962578,-0.0043261475,-0.0012345586,0.017740138,-0.07592027634382248,0.05545857176184654,-2.0111441612243652,1003.2527,
2021.05.19 17:20:27,100.0,71.0,27.24,-15.42,-34.14,-0.45970076,0.72546524,9.926663,-0.0031044171,-0.0030671544,0.023848789,-0.07287495583295822,0.04627663642168045,-2.0340840816497803,1003.2612,
2021.05.19 17:20:27,100.0,71.0,27.48,-14.88,-34.44,-0.5698374,0.7350424,9.912297,-0.0055478783,0.010371881,-0.007916203,-0.07389755547046661,0.057424720376729965,-2.017183780670166,1003.2612,
2021.05.19 17:20:27,100.0,71.0,27.599998,-14.88,-34.62,-0.60335726,0.7709565,9.962578,0.013388945,0.0036523633,-0.02502043,-0.07709063589572906,0.06048848107457161,-2.012770175933838,1003.2595,
2021.05.19 17:20:27,100.0,71.0,27.96,-14.88,-34.559998,-0.62251145,0.75180227,9.957788,-0.007991339,-0.0042888853,0.009798889,-0.07520969212055206,0.06243378296494484,-2.0105702877044678,1003.2595,
2021.05.19 17:20:27,100.0,71.0,28.32,-14.7,-34.38,-0.6440599,0.76137936,9.96976,0.0017825048,-0.001845424,0.0024685066,-0.07606298476457596,0.06451170146465302,-1.9997495412826538,1003.25464,
2021.05.19 17:20:27,100.0,71.0,28.32,-15.24,-34.26,-0.53871185,0.74222517,9.771035,0.009723753,-0.006732346,0.0030793718,-0.07570164650678635,0.05507778748869896,-2.0128700733184814,1003.2529,
2021.05.19 17:20:28,100.0,71.0,28.439999,-15.24,-34.14,-0.505192,0.70631105,10.029617,-0.0055478783,-0.002456289,0.003690237,-0.07021773606538773,0.05032748356461525,-2.015275478363037,1003.2529,
2021.05.19 17:20:28,100.0,71.0,28.5,-14.94,-33.78,-0.6273,0.7996878,9.96976,-6.609562E-4,-0.005510615,-0.006083607,-0.0798826813697815,0.06283743679523468,-2.0003957748413086,1003.2605,
2021.05.19 17:20:28,100.0,71.0,28.38,-14.94,-33.42,-0.6656084,0.7877164,9.8237095,-0.0031044171,0.002430633,-0.0024184156,-0.07983177900314331,0.0676519051194191,-2.004929780960083,1003.2605,
2021.05.19 17:20:28,100.0,71.0,28.38,-15.059999,-33.18,-0.6057515,0.7350424,9.900327,0.008502022,0.0018197676,0.0024685066,-0.07397045940160751,0.061108823865652084,-2.0127038955688477,1003.2573,
2021.05.19 17:20:28,100.0,71.0,28.32,-14.7,-33.6,-0.4860378,0.7206767,9.830893,0.009112887,-1.282817E-5,0.01896187,-0.07308751344680786,0.049399618059396744,-1.9975861310958862,1003.2527,
2021.05.19 17:20:28,100.0,71.0,28.199999,-15.12,-33.78,-0.50758624,0.67757976,10.05356,-0.007380474,0.0012089023,0.024459656,-0.0672098770737648,0.050445374101400375,-2.019035577774048,1003.2527,
2021.05.19 17:20:28,100.0,71.0,28.32,-14.94,-34.26,-0.6296943,0.7853221,9.876384,5.607743E-4,0.010371881,0.001246776,-0.07918809354305267,0.06367139518260956,-2.003450870513916,1003.2534,
2021.05.19 17:20:28,100.0,71.0,28.14,-14.4,-34.44,-0.6296943,0.82123625,9.830893,5.607743E-4,0.009761016,-0.008527068,-0.08317311853170395,0.06396522372961044,-1.9839369058609009,1003.2588,
2021.05.19 17:20:28,100.0,71.0,27.96,-14.94,-34.14,-0.54828894,0.75180227,10.005674,5.607743E-4,-0.001845424,0.0030793718,-0.07488474249839783,0.054743047803640366,-2.0098354816436768,1003.2588,
2021.05.19 17:20:28,100.0,71.0,27.96,-14.7,-34.2,-0.54350036,0.75659084,9.91948,0.0017825048,0.00915015,0.0055228327,-0.0760122761130333,0.054736483842134476,-2.000873327255249,1003.25415,
2021.05.19 17:20:28,100.0,71.0,27.779999,-14.94,-34.26,-0.55786604,0.76137936,9.890749,0.008502022,0.009761016,0.004911967,-0.07670599222183228,0.056343115866184235,-2.0109779834747314,1003.25415,
2021.05.19 17:20:28,100.0,71.0,28.14,-15.24,-34.02,-0.5506832,0.7637737,9.917087,0.009723753,0.0036523633,-0.0048618764,-0.07674643397331238,0.0554717555642128,-2.0149037837982178,1003.251,
2021.05.19 17:20:28,100.0,71.0,27.84,-14.82,-34.26,-0.6057515,0.7853221,10.000886,-0.0043261475,0.0042632283,6.359107E-4,-0.07822167873382568,0.060495875775814056,-2.0064425468444824,1003.251,
2021.05.19 17:20:28,100.0,71.0,28.439999,-15.0,-33.96,-0.6488485,0.8092649,9.948212,-0.0043261475,0.003041498,-0.0054727416,-0.08099770545959473,0.06513037532567978,-2.002605676651001,1003.2483,
2021.05.19 17:20:28,100.0,71.0,28.619999,-14.88,-33.48,-0.5961744,0.76616794,9.857229,-6.609562E-4,0.004874094,0.0043011024,-0.07742961496114731,0.06040734797716141,-1.9989869594573975,1003.2495,
2021.05.19 17:20:28,100.0,71.0,28.439999,-15.059999,-33.899998,-0.5506832,0.74701375,9.93624,-0.002493552,0.005484959,0.0055228327,-0.0749250054359436,0.055365048348903656,-2.0071141719818115,1003.2495,
2021.05.19 17:20:28,100.0,71.0,28.619999,-15.42,-33.48,-0.57223165,0.82123625,10.010463,-0.004937013,0.0018197676,0.004911967,-0.08172167837619781,0.05710121616721153,-2.0093958377838135,1003.2488,
2021.05.19 17:20:29,100.0,71.0,27.96,-15.42,-33.239998,-0.6895511,0.8332076,10.005674,-0.0018826867,-0.0030671544,0.003690237,-0.08288612216711044,0.0688072144985199,-2.023709297180176,1003.2488,
2021.05.19 17:20:29,100.0,71.0,27.599998,-15.12,-33.66,-0.6703969,0.81165916,9.869201,0.023773653,-0.009175807,0.017129272,-0.08186914771795273,0.06782399863004684,-2.0198445320129395,1003.251,
2021.05.19 17:20:29,100.0,71.0,27.359999,-15.0,-33.48,-0.50040346,0.70631105,9.797373,0.023773653,-0.007343211,0.02507052,-0.07187401503324509,0.051030926406383514,-2.0235044956207275,1003.25146,
2021.05.19 17:20:29,100.0,71.0,27.48,-14.82,-33.36,-0.42378664,0.6608198,9.960183,0.011556349,-0.006732346,0.022016194,-0.06618934869766235,0.042522430419921875,-2.0185670852661133,1003.25146,
2021.05.19 17:20:29,100.0,71.0,27.48,-14.94,-33.719997,-0.49800915,0.7781393,9.931452,-0.013489126,-0.001845424,0.006133698,-0.07809354364871979,0.050102680921554565,-2.011875629425049,1003.2556,
2021.05.19 17:20:29,100.0,71.0,27.48,-15.24,-33.719997,-0.65363705,0.90024734,9.888355,-0.0012718214,-0.008564942,-0.0378486,-0.09059424698352814,0.06600567698478699,-2.014289140701294,1003.2556,
2021.05.19 17:20:29,100.0,71.0,27.24,-14.94,-34.079998,-0.5961744,0.88588166,10.048771,0.0011716395,-0.0061214804,-0.03540514,-0.08777733147144318,0.05925862863659859,-2.0077788829803467,1003.2544,
2021.05.19 17:20:29,100.0,71.0,26.939999,-15.059999,-34.14,-0.5147691,0.8667275,9.917087,0.010945483,-0.009175807,0.0030793718,-0.08705925941467285,0.0518607459962368,-2.0135433673858643,1003.2512,
2021.05.19 17:20:29,100.0,71.0,26.88,-14.82,-34.14,-0.45251793,0.7350424,9.948212,0.020719327,-0.0061214804,-0.0073053376,-0.07367696613073349,0.04545602947473526,-2.019439697265625,1003.2512,
2021.05.19 17:20:29,100.0,71.0,27.06,-14.759999,-34.26,-0.52674043,0.7829279,9.699207,0.022551924,-0.0048997505,-0.02502043,-0.08042816072702408,0.05425427854061127,-2.010796308517456,1003.2612,
2021.05.19 17:20:29,100.0,71.0,27.359999,-14.94,-33.84,-0.6057515,0.749408,9.962578,0.02682798,-0.013451863,-0.02746389,-0.07494301348924637,0.06072792783379555,-2.0222327709198,1003.2612,
2021.05.19 17:20:29,100.0,71.0,28.08,-14.7,-34.02,-0.6368771,0.8978531,9.871595,-0.0043261475,-0.002456289,-0.019522643,-0.09051647037267685,0.06442683935165405,-1.9866573810577393,1003.25977,
2021.05.19 17:20:29,100.0,71.0,28.68,-14.759999,-33.899998,-0.55786604,0.7853221,10.065532,-0.014099992,0.0060958243,0.004911967,-0.07774435728788376,0.05536676198244095,-1.9912010431289673,1003.2517,
2021.05.19 17:20:29,100.0,71.0,28.8,-14.94,-33.719997,-0.49800915,0.7901107,9.948212,0.0017825048,-0.0061214804,0.001246776,-0.07915730774402618,0.05001841112971306,-1.9915342330932617,1003.2517,
2021.05.19 17:20:29,100.0,71.0,28.98,-15.12,-33.84,-0.55786604,0.8643332,9.929058,-6.609562E-4,-0.0036780196,-0.009137933,-0.08669593930244446,0.0561261810362339,-1.9884312152862549,1003.2551,
2021.05.19 17:20:29,100.0,71.0,28.56,-15.54,-34.02,-0.6273,0.89067024,9.960183,0.006058561,0.012815342,-0.017079182,-0.08901043981313705,0.0628976970911026,-2.0073301792144775,1003.2551,
2021.05.19 17:20:29,100.0,71.0,28.199999,-15.36,-34.26,-0.55307746,0.80687064,9.914692,0.014610675,0.0060958243,-0.003640146,-0.08107686787843704,0.05572586879134178,-2.012507915496826,1003.2605,
2021.05.19 17:20:30,100.0,71.0,28.019999,-15.24,-34.32,-0.6153286,0.7829279,9.828498,0.012167214,-0.002456289,-5.8581977E-4,-0.07933641970157623,0.06252496689558029,-2.016573190689087,1003.2534,
2021.05.19 17:20:30,100.0,71.0,27.84,-15.059999,-34.02,-0.6081458,0.81644773,9.881172,0.008502022,0.003041498,-0.0018075503,-0.0822843462228775,0.06146838143467903,-2.0101490020751953,1003.2534,
2021.05.19 17:20:30,100.0,71.0,27.66,-14.88,-33.719997,-0.5770202,0.8140534,9.996098,-0.0067696087,0.0036523633,0.006744563,-0.08112335205078125,0.05766056105494499,-2.007239580154419,1003.2571,
2021.05.19 17:20:30,100.0,71.0,27.359999,-14.58,-33.6,-0.5985687,0.84996754,9.948212,-0.01165653,-0.0036780196,0.006133698,-0.08507911115884781,0.06009602174162865,-1.9987643957138062,1003.2571,
2021.05.19 17:20:30,100.0,71.0,27.48,-14.88,-33.6,-0.54350036,0.80208206,9.897932,0.00239337,0.002430633,-0.0048618764,-0.08073753863573074,0.054855406284332275,-2.0093226432800293,1003.24976,
2021.05.19 17:20:30,100.0,71.0,27.539999,-15.179999,-33.48,-0.5554718,0.8356019,9.763853,-0.02081951,0.0085392855,0.003690237,-0.08523598313331604,0.05682937800884247,-2.013892889022827,1003.2422,
2021.05.19 17:20:30,100.0,71.0,27.359999,-14.88,-33.36,-0.5506832,0.7805336,10.0200405,0.0011716395,-0.0030671544,-0.0030292806,-0.07762359082698822,0.054902948439121246,-2.0151686668395996,1003.2422,
2021.05.19 17:20:30,100.0,71.0,27.779999,-15.12,-33.239998,-0.6081458,0.8356019,9.948212,-0.013489126,0.0018197676,0.0043011024,-0.08364307880401611,0.06105518713593483,-2.012533187866211,1003.24536,
2021.05.19 17:20:30,100.0,71.0,27.66,-14.88,-33.3,-0.6057515,0.8092649,9.924269,-0.0018826867,0.002430633,2.5045474E-5,-0.08121352642774582,0.06096176430583,-2.009366035461426,1003.24536,
2021.05.19 17:20:30,100.0,71.0,27.84,-14.759999,-33.6,-0.5458947,0.82602483,9.953,-5.009095E-5,-6.236934E-4,0.0043011024,-0.08267909288406372,0.05479235202074051,-1.9978654384613037,1003.2495,
2021.05.19 17:20:30,100.0,71.0,28.26,-14.82,-33.6,-0.5219519,0.75659084,10.008069,-0.013489126,0.009761016,0.009798889,-0.07535253465175629,0.05210589990019798,-2.000816822052002,1003.25195,
2021.05.19 17:20:30,100.0,71.0,27.84,-14.759999,-33.84,-0.5650489,0.845179,9.840469,0.009723753,-0.007954076,2.5045474E-5,-0.08553760498762131,0.05735794082283974,-1.9952234029769897,1003.25195,
2021.05.19 17:20:30,100.0,71.0,27.84,-15.12,-33.719997,-0.5985687,0.76616794,9.907509,0.018886732,-0.011008403,-0.007916203,-0.07703852653503418,0.06034231185913086,-2.0180859565734863,1003.2468,
2021.05.19 17:20:30,100.0,71.0,27.84,-15.059999,-33.899998,-0.5865973,0.7589851,10.017646,0.0017825048,5.980371E-4,0.0043011024,-0.0754915177822113,0.058489616960287094,-2.0168309211730957,1003.24976,
2021.05.19 17:20:30,100.0,71.0,27.18,-15.299999,-34.14,-0.61293435,0.83081335,9.890749,0.0048368312,0.002430633,0.006133698,-0.08364259451627731,0.06189132109284401,-2.0264534950256348,1003.24976,
2021.05.19 17:20:30,100.0,71.0,27.48,-15.42,-34.2,-0.5411061,0.7901107,9.787795,0.010945483,0.0036523633,0.006133698,-0.0804271325469017,0.05522754043340683,-2.025944709777832,1003.24634,
2021.05.19 17:20:31,100.0,71.0,27.84,-15.24,-33.84,-0.54350036,0.7972935,9.895537,-0.012267396,0.0067066895,0.012242351,-0.08027687668800354,0.054868657141923904,-2.0153868198394775,1003.24634,
2021.05.19 17:20:31,100.0,71.0,27.599998,-15.42,-33.3,-0.6153286,0.8379962,10.005674,-0.0018826867,-0.012230133,0.007966294,-0.08340026438236237,0.061420612037181854,-2.025132894515991,1003.2461,
2021.05.19 17:20:31,100.0,71.0,27.779999,-15.24,-33.3,-0.4644893,0.8284191,9.933846,-0.007991339,-0.006732346,0.02751398,-0.08311067521572113,0.04672422260046005,-2.0103747844696045,1003.2461,
2021.05.19 17:20:31,100.0,71.0,27.779999,-15.24,-33.0,-0.5650489,0.8092649,9.979338,0.006669427,-0.017117055,0.019572733,-0.08078813552856445,0.056561484932899475,-2.0179104804992676,1003.249,
2021.05.19 17:20:31,100.0,71.0,27.06,-14.82,-33.48,-0.5602603,0.8571504,9.818921,0.006669427,-0.0030671544,0.0024685066,-0.08693435043096542,0.056997451931238174,-2.0077688694000244,1003.23926,
2021.05.19 17:20:31,100.0,71.0,26.82,-14.94,-33.84,-0.50758624,0.7781393,9.926663,0.015221541,0.002430633,0.0055228327,-0.0781271830201149,0.051089122891426086,-2.0222830772399902,1003.23926,
2021.05.19 17:20:31,100.0,71.0,26.519999,-15.12,-33.42,-0.57462597,0.7996878,9.931452,0.0048368312,0.0018197676,0.0073554283,-0.08021380752325058,0.05779477208852768,-2.0345282554626465,1003.2449,
2021.05.19 17:20:31,100.0,71.0,25.98,-15.48,-33.66,-0.6488485,0.8834874,9.857229,5.607743E-4,0.003041498,-0.0024184156,-0.08919751644134521,0.06572980433702469,-2.0484464168548584,1003.2449,
2021.05.19 17:20:31,100.0,71.0,26.519999,-15.9,-34.079998,-0.51716334,0.83081335,9.933846,5.607743E-4,0.0012089023,0.0030793718,-0.08332809060811996,0.05201377719640732,-2.0518107414245605,1003.2505,
2021.05.19 17:20:31,100.0,71.0,26.939999,-15.66,-34.14,-0.5961744,0.84039044,10.046377,-0.028149894,0.011593612,0.011631485,-0.08331090956926346,0.05927271768450737,-2.0409133434295654,1003.24927,
2021.05.19 17:20:31,100.0,71.0,27.18,-15.66,-34.26,-0.4836435,0.7853221,9.821315,-0.009823934,-0.026280032,0.006744563,-0.07969506084918976,0.04920452460646629,-2.0359723567962646,1003.24927,
2021.05.19 17:20:31,100.0,71.0,27.9,-15.299999,-34.26,-0.9217958,0.7685622,9.395134,-0.0110456655,5.980371E-4,0.008577159,-0.08123420178890228,0.09780114889144897,-2.0361154079437256,1003.24243,
2021.05.19 17:20:31,100.0,71.0,27.779999,-15.179999,-33.42,-0.3998439,0.7709565,10.190034,-0.15398812,-0.09042089,0.04217475,-0.0754561796784401,0.03921860456466675,-2.0134527683258057,1003.24243,
2021.05.19 17:20:31,100.0,71.0,27.66,-15.299999,-33.3,-0.11013664,0.84278476,10.055954,-0.12527746,-0.10569251,0.057446375,-0.08360913395881653,0.010951943695545197,-1.9984641075134277,1003.2378,
2021.05.19 17:20:31,100.0,71.0,28.199999,-15.059999,-33.84,-0.13647367,0.69194543,9.962578,-0.007991339,-0.034832146,0.050116,-0.06933661550283432,0.013697774149477482,-1.9988129138946533,1003.2422,
2021.05.19 17:20:31,100.0,71.0,27.84,-15.12,-33.899998,-0.48843205,0.7685622,10.0200405,0.05370605,-0.07576012,0.022016194,-0.07646217197179794,0.048706963658332825,-2.013042688369751,1003.2422,
2021.05.19 17:20:31,100.0,71.0,27.72,-15.179999,-34.5,-0.7996878,0.9122187,10.173274,0.15205535,-0.037886474,0.006744563,-0.089155413210392,0.0784454271197319,-2.014953136444092,1003.24194,
2021.05.19 17:20:32,100.0,71.0,27.48,-15.42,-35.04,-0.5027977,0.39266106,10.302565,-0.050751906,0.08245398,6.359107E-4,-0.038049258291721344,0.04876447096467018,-2.069751501083374,1003.24194,
