Time,X-cord,Y-cord,Mag_x,Mag_y,Mag_z,Acc_x,Acc_y,Acc_z,Gyro_x,Gyro_y,Gyro_z,Orn_x,Orn_y,Orn_z,Pressure,
2021.05.19 17:33:39,34.0,43.0,16.68,29.4,-38.04,-0.90024734,0.40223816,9.900327,0.09585575,0.1032234,-0.13680878,-0.04043978452682495,0.09068169444799423,-0.4020072817802429,1002.98584,
2021.05.19 17:33:39,34.0,43.0,16.44,29.699999,-37.8,-0.7901107,0.5602603,10.067925,-0.14299256,-0.002456289,-0.11909367,-0.0554206520318985,0.07831748574972153,-0.39951688051223755,1002.9409,
2021.05.19 17:33:39,34.0,43.0,17.22,29.279999,-38.579998,-1.010384,0.80687064,10.3193245,-0.055638827,0.023810918,-0.14413914,-0.07766162604093552,0.09760073572397232,-0.39267611503601074,1002.9409,
2021.05.19 17:33:39,34.0,43.0,18.06,28.68,-39.6,-0.94095,0.6656084,10.024829,0.04515394,0.1032234,-0.09038301,-0.06600939482450485,0.09358775615692139,-0.42767494916915894,1002.9375,
2021.05.19 17:33:39,34.0,43.0,18.6,28.32,-40.2,-1.0798179,0.50758624,10.46777,0.03599096,0.105055995,-0.04151379,-0.048197075724601746,0.10279285907745361,-0.44295427203178406,1002.9375,
2021.05.19 17:33:39,34.0,43.0,19.26,27.779999,-40.98,-0.7996878,0.2657645,10.750294,-0.07640825,0.093449555,0.03545523,-0.02464849315583706,0.07425078004598618,-0.5113096237182617,1002.9353,
2021.05.19 17:33:39,34.0,43.0,19.68,28.199999,-40.62,-0.84278476,0.5961744,9.876384,-0.05502796,0.069014944,0.01896187,-0.06007268652319908,0.08512710779905319,-0.4846813678741455,1002.94116,
2021.05.19 17:33:39,34.0,43.0,20.039999,28.38,-40.739998,-0.94573855,0.81165916,9.397529,0.09768835,-0.012840998,-0.10931983,-0.08572474867105484,0.10029925405979156,-0.4611590504646301,1002.94116,
2021.05.19 17:33:39,34.0,43.0,19.859999,28.38,-40.8,-0.7685622,0.89545876,9.213169,0.06714509,-0.038497336,-0.032961678,-0.09655573964118958,0.0832272619009018,-0.4694744646549225,1002.9429,
2021.05.19 17:33:39,34.0,43.0,20.1,28.68,-40.559998,-0.63208854,0.6273,9.577099,0.050651725,-0.13318145,0.09165483,-0.0652649849653244,0.0659044161438942,-0.5064019560813904,1002.9409,
2021.05.19 17:33:39,34.0,43.0,19.5,28.5,-40.559998,-0.9074302,0.5147691,10.075109,0.039045285,-0.11302289,0.11242425,-0.050843317061662674,0.08982417732477188,-0.4761279225349426,1002.9409,
2021.05.19 17:33:39,34.0,43.0,19.08,28.56,-40.32,-1.0055954,0.7398309,9.742304,0.12090123,-0.10202732,0.009188024,-0.07539550960063934,0.10285522043704987,-0.4384559988975525,1002.93164,
2021.05.19 17:33:39,34.0,43.0,19.199999,28.199999,-40.32,-1.1516461,0.74222517,10.439038,0.12334469,-0.039108206,-0.018300911,-0.07055484503507614,0.10987677425146103,-0.44052502512931824,1002.93164,
2021.05.19 17:33:39,34.0,43.0,18.84,28.08,-40.559998,-0.56744313,0.5985687,10.26665,-0.121001415,-0.015895324,0.08676791,-0.05814776569604874,0.055214349180459976,-0.4984791576862335,1002.93823,
2021.05.19 17:33:39,34.0,43.0,18.84,28.08,-40.739998,-0.36632404,0.93616146,9.584282,-0.032425947,-0.061099354,0.061722435,-0.09729728102684021,0.038202736526727676,-0.49526533484458923,1002.93823,
2021.05.19 17:33:40,34.0,43.0,18.66,27.84,-40.739998,-0.38787252,0.818842,9.830893,0.09585575,-0.012230133,0.059889838,-0.08303660899400711,0.039434004575014114,-0.5001196265220642,1002.9436,
2021.05.19 17:33:40,34.0,43.0,18.779999,28.019999,-40.379997,-0.679974,0.75180227,10.00328,0.019497598,-0.07148406,0.059278972,-0.07484249025583267,0.06787070631980896,-0.475777268409729,1002.938,
2021.05.19 17:33:40,34.0,43.0,18.84,27.84,-40.379997,-0.43336374,0.5554718,9.8237095,-0.017154317,-0.034221284,0.053170323,-0.05642908811569214,0.04408548027276993,-0.5149306058883667,1002.938,
2021.05.19 17:33:40,34.0,43.0,18.84,27.72,-40.32,-0.5411061,0.67279124,9.998491,-0.031815086,-0.043995123,0.069052815,-0.06709011644124985,0.05406603217124939,-0.5003123879432678,1002.9221,
2021.05.19 17:33:40,34.0,43.0,19.38,27.72,-40.5,-0.6751855,0.95531565,9.663293,0.041488748,-0.01772792,-5.8581977E-4,-0.0983019545674324,0.06975778937339783,-0.48037201166152954,1002.9236,
2021.05.19 17:33:40,34.0,43.0,19.38,27.3,-41.219997,-0.76616794,1.0343267,9.8237095,-0.007991339,-0.005510615,0.036066093,-0.10458702594041824,0.07783415913581848,-0.47164294123649597,1002.9236,
2021.05.19 17:33:40,34.0,43.0,19.02,27.359999,-41.16,-0.30886146,0.8236305,10.0200405,-0.061136615,-0.025669169,0.10692646,-0.08197518438100815,0.03081461414694786,-0.524257242679596,1002.9243,
2021.05.19 17:33:40,34.0,43.0,19.02,27.48,-41.399998,-0.28970724,0.7398309,10.115811,-0.08618209,-0.026280032,0.05439205,-0.07297629117965698,0.02863122522830963,-0.5294559001922607,1002.9243,
2021.05.19 17:33:40,34.0,43.0,18.72,27.119999,-41.1,-0.4644893,0.82602483,10.000886,-0.045864984,-0.0036780196,0.030568307,-0.08231978118419647,0.04641146585345268,-0.5036367177963257,1002.92896,
2021.05.19 17:33:40,34.0,43.0,18.539999,27.84,-40.68,-0.5147691,0.7302538,9.792584,-0.028149894,-0.05010378,0.06416589,-0.0743321031332016,0.05251889303326607,-0.48804762959480286,1002.92896,
2021.05.19 17:33:40,34.0,43.0,18.72,27.96,-40.32,-0.3232271,0.59378016,9.921875,-0.05502796,-0.047660317,0.08188099,-0.05974264442920685,0.032565705478191376,-0.520458996295929,1002.93066,
2021.05.19 17:33:40,34.0,43.0,18.66,27.84,-39.899998,-0.4166038,0.69673395,10.089474,0.007891157,0.0060958243,0.045229074,-0.06888755410909653,0.04126749187707901,-0.507450520992279,1002.9302,
2021.05.19 17:33:40,34.0,43.0,18.779999,28.26,-39.84,-0.40223816,0.7110996,9.929058,0.036601823,0.04030428,-5.8581977E-4,-0.07143756002187729,0.0404890701174736,-0.5042263269424438,1002.9302,
2021.05.19 17:33:40,34.0,43.0,18.66,27.779999,-39.48,-0.3423813,0.7326481,9.996098,0.05859297,0.04030428,0.015296676,-0.0731198638677597,0.03423811122775078,-0.5140109658241272,1002.9304,
2021.05.19 17:33:40,34.0,43.0,18.6,27.84,-39.66,-0.52674043,0.8834874,9.862018,0.050651725,0.031752165,0.010409755,-0.08921985328197479,0.05336031690239906,-0.4834820628166199,1002.9304,
2021.05.19 17:33:40,34.0,43.0,18.24,27.779999,-40.02,-0.6057515,0.83081335,10.017646,0.08669277,0.043358605,-0.028074756,-0.08259544521570206,0.06039491295814514,-0.4701991677284241,1002.9346,
2021.05.19 17:33:40,34.0,43.0,18.3,27.66,-40.14,-0.51955765,0.7685622,9.967366,0.053095184,0.04396947,0.0146858115,-0.07685165852308273,0.0520787388086319,-0.48479583859443665,1002.9336,
2021.05.19 17:33:41,34.0,43.0,18.6,27.96,-40.379997,-0.5554718,0.76616794,9.850046,0.06836681,0.027476108,-0.025631294,-0.0775042325258255,0.05633314326405525,-0.4829590320587158,1002.9336,
2021.05.19 17:33:41,34.0,43.0,18.9,27.48,-40.5,-0.5363176,0.8786988,9.668081,0.06775595,0.017091399,-0.012803124,-0.09049918502569199,0.05541621521115303,-0.4907620847225189,1002.9348,
2021.05.19 17:33:41,34.0,43.0,19.5,27.3,-40.379997,-0.60335726,0.87630457,9.950606,0.02438452,0.03786082,-0.020744374,-0.08767862617969513,0.06056107580661774,-0.5044587850570679,1002.9348,
2021.05.19 17:33:41,34.0,43.0,19.74,27.18,-40.739998,-0.5506832,0.9074302,9.957788,-0.0037152825,0.014647937,-0.021355238,-0.09073879569768906,0.05524548143148422,-0.5149843096733093,1002.9407,
2021.05.19 17:33:41,34.0,43.0,19.32,27.24,-40.8,-0.5123748,0.9912298,9.90272,0.018275866,0.0012089023,-0.028685622,-0.09963200986385345,0.05169471725821495,-0.50271075963974,1002.9402,
2021.05.19 17:33:41,34.0,43.0,18.96,27.42,-40.5,-0.5794145,0.90982443,10.118205,0.009112887,0.015869668,-0.023187833,-0.08953247219324112,0.05720207840204239,-0.49166953563690186,1002.9402,
2021.05.19 17:33:41,34.0,43.0,18.6,27.599998,-40.32,-0.5698374,0.99362403,9.672871,0.04332134,-0.011008403,-0.044568118,-0.10218780487775803,0.05884287878870964,-0.47269558906555176,1002.9397,
2021.05.19 17:33:41,34.0,43.0,18.119999,27.06,-40.32,-0.6751855,0.9385557,9.964972,0.07264288,0.0085392855,-0.050065905,-0.09369489550590515,0.06765248626470566,-0.462169885635376,1002.9397,
2021.05.19 17:33:41,34.0,43.0,17.94,27.06,-40.44,-0.68715686,0.9984126,10.027223,0.013388945,0.012204477,-0.040902928,-0.09901239722967148,0.06842215359210968,-0.4536682665348053,1002.93945,
2021.05.19 17:33:41,34.0,43.0,18.24,27.06,-40.559998,-0.7398309,1.0917894,9.845258,0.055538647,0.0012089023,-0.02746389,-0.11013567447662354,0.0750049501657486,-0.44837895035743713,1002.9358,
2021.05.19 17:33:41,34.0,43.0,17.82,26.88,-41.399998,-0.6656084,1.0223553,9.75667,0.040267013,0.010371881,0.0024685066,-0.10416390001773834,0.06811532378196716,-0.4476888179779053,1002.9358,
2021.05.19 17:33:41,34.0,43.0,18.0,27.18,-41.28,-0.58420306,0.9289786,9.727939,0.014610675,0.013426208,0.02262706,-0.09503703564405441,0.05998210981488228,-0.46256792545318604,1002.9365,
2021.05.19 17:33:41,34.0,43.0,18.9,26.82,-41.219997,-0.49800915,0.90503585,9.90272,-0.012267396,0.0012089023,0.03179004,-0.09102506190538406,0.05024780333042145,-0.5031003952026367,1002.9365,
2021.05.19 17:33:41,34.0,43.0,18.72,27.06,-41.219997,-0.6895511,1.0127783,9.890749,-0.039145466,0.023810918,-0.018911777,-0.1017955020070076,0.06960415095090866,-0.46856600046157837,1002.93066,
2021.05.19 17:33:41,34.0,43.0,19.08,27.24,-40.559998,-0.7589851,1.0534809,9.98652,-0.021430375,0.014647937,-0.026853025,-0.10480155795812607,0.07585513591766357,-0.4691005349159241,1002.9292,
2021.05.19 17:33:41,34.0,43.0,19.08,27.06,-40.379997,-0.80208206,1.0462981,10.010463,-0.024484701,0.04274774,-0.0054727416,-0.10381200909614563,0.07995356619358063,-0.46805042028427124,1002.9292,
2021.05.19 17:33:41,34.0,43.0,18.24,27.06,-40.02,-0.679974,1.0055954,9.802161,0.015221541,0.0042632283,-5.8581977E-4,-0.10198811441659927,0.06925885379314423,-0.46031051874160767,1002.92944,
2021.05.19 17:33:42,34.0,43.0,17.76,26.88,-39.66,-0.5770202,0.9074302,9.871595,0.01644327,0.015258803,0.016518408,-0.09151042252779007,0.058386147022247314,-0.4682382345199585,1002.92944,
2021.05.19 17:33:42,34.0,43.0,17.46,26.82,-39.12,-0.56744313,0.8284191,9.850046,-0.01165653,0.010982746,0.023848789,-0.0837673768401146,0.05754457041621208,-0.46742644906044006,1002.9324,
2021.05.19 17:33:42,34.0,43.0,17.46,27.24,-38.46,-0.7877164,0.9529214,9.797373,-0.025095565,0.004874094,-0.026853025,-0.09664804488420486,0.08022820204496384,-0.43342530727386475,1002.9292,
2021.05.19 17:33:42,34.0,43.0,17.52,27.42,-38.34,-0.7733508,0.9888355,10.0368,-0.038534604,0.0060958243,-0.036626868,-0.09791569411754608,0.07689958810806274,-0.4361723065376282,1002.9292,
2021.05.19 17:33:42,34.0,43.0,17.58,27.779999,-38.28,-0.82602483,1.0798179,9.976943,-0.045864984,0.010371881,-0.018911777,-0.10744689404964447,0.08260498195886612,-0.42341750860214233,1002.927,
2021.05.19 17:33:42,34.0,43.0,17.22,28.019999,-38.219997,-0.6296943,0.9912298,9.976943,-0.02204124,-0.007343211,-0.0024184156,-0.09883170574903488,0.06303134560585022,-0.4355872571468353,1002.9258,
2021.05.19 17:33:42,34.0,43.0,16.859999,27.9,-37.92,-0.57462597,0.9696813,9.893144,0.04087788,0.007317555,0.011631485,-0.09754005074501038,0.058018069714307785,-0.4342780113220215,1002.9258,
2021.05.19 17:33:42,34.0,43.0,16.5,27.84,-37.739998,-0.5865973,0.9433443,9.953,0.07997326,0.0012089023,0.016518408,-0.09433488547801971,0.058868639171123505,-0.42657676339149475,1002.9321,
2021.05.19 17:33:42,34.0,43.0,16.8,27.779999,-37.739998,-0.65842557,0.96489275,9.804555,0.036601823,-0.007343211,-0.008527068,-0.09787777811288834,0.0670543909072876,-0.4251520335674286,1002.9321,
2021.05.19 17:33:42,34.0,43.0,17.34,27.84,-38.04,-0.7110996,1.0510867,9.744699,0.0317149,-0.018338785,-0.028685622,-0.10716423392295837,0.07284385710954666,-0.4276063144207001,1002.9321,
2021.05.19 17:33:42,34.0,43.0,16.92,27.96,-38.64,-0.67757976,0.9912298,9.962578,0.0030042352,0.004874094,-0.034183405,-0.0989418476819992,0.06790791451931,-0.4221705496311188,1002.9331,
2021.05.19 17:33:42,34.0,43.0,16.98,28.26,-38.7,-0.69194543,0.9792584,10.0368,-0.03975633,-0.006732346,-0.042735524,-0.09703008830547333,0.0688319280743599,-0.4199082851409912,1002.9331,
2021.05.19 17:33:42,34.0,43.0,16.8,28.32,-38.76,-0.6464542,1.0486923,9.885961,-0.004937013,-0.010397538,-0.050065905,-0.10546016693115234,0.0652981698513031,-0.4145403206348419,1002.92285,
2021.05.19 17:33:42,34.0,43.0,16.14,28.56,-38.879997,-0.7541966,1.0750294,9.909904,0.023773653,-0.005510615,-0.059839748,-0.10774858295917511,0.07595890760421753,-0.3822174072265625,1002.92285,
2021.05.19 17:33:42,34.0,43.0,16.5,28.619999,-38.879997,-0.70870537,0.9768641,9.828498,0.0017825048,-0.024447437,-0.030518217,-0.09881075471639633,0.07198260724544525,-0.39876335859298706,1002.9314,
2021.05.19 17:33:42,34.0,43.0,16.32,28.32,-38.579998,-0.72785956,0.9313729,9.98652,-0.0104348,-0.012230133,-0.023798699,-0.09274940192699432,0.07275555282831192,-0.39992523193359375,1002.9314,
2021.05.19 17:33:43,34.0,43.0,16.68,28.38,-38.399998,-0.69912827,0.9984126,9.802161,0.007891157,-0.019560516,-0.026853025,-0.10125085711479187,0.07120331376791,-0.40736985206604004,1002.93335,
2021.05.19 17:33:43,34.0,43.0,16.74,27.96,-38.04,-0.6943397,0.94573855,9.996098,-0.0055478783,-0.014062729,-0.0030292806,-0.0941045880317688,0.06934969127178192,-0.41978296637535095,1002.9241,
2021.05.19 17:33:43,34.0,43.0,16.56,27.9,-38.219997,-0.6703969,1.0223553,9.883567,-0.009213069,-0.013451863,0.0024685066,-0.10283870995044708,0.06772571802139282,-0.4132239520549774,1002.9241,
2021.05.19 17:33:43,34.0,43.0,16.859999,27.72,-38.64,-0.67279124,1.0415095,9.912297,-0.012267396,-0.0048997505,-5.8581977E-4,-0.10444976389408112,0.06777045130729675,-0.42118343710899353,1002.9263,
2021.05.19 17:33:43,34.0,43.0,16.44,27.779999,-38.76,-0.5889916,0.9217958,10.041589,-0.016543454,0.007317555,0.0030793718,-0.09138505905866623,0.058588091284036636,-0.4245767891407013,1002.9263,
2021.05.19 17:33:43,34.0,43.0,16.619999,28.14,-38.94,-0.6943397,1.0127783,9.864412,-0.0031044171,-0.002456289,0.012242351,-0.10206066071987152,0.07027244567871094,-0.4075370132923126,1002.92505,
2021.05.19 17:33:43,34.0,43.0,16.619999,28.32,-39.0,-0.6105401,1.0654523,9.696813,-0.0018826867,-0.011008403,0.0024685066,-0.10922297835350037,0.06287996470928192,-0.41019389033317566,1002.9321,
2021.05.19 17:33:43,34.0,43.0,16.56,28.68,-38.579998,-0.600963,0.9337672,9.96976,-0.0110456655,0.00792842,0.016518408,-0.09321929514408112,0.06020573526620865,-0.4151870906352997,1002.9321,
2021.05.19 17:33:43,34.0,43.0,16.38,28.14,-38.64,-0.6368771,0.94573855,9.871595,-0.018986914,0.01953486,0.013464081,-0.09531555324792862,0.06442683935165405,-0.41118109226226807,1002.93066,
2021.05.19 17:33:43,34.0,43.0,16.14,28.14,-38.7,-0.68236834,1.0175668,9.799767,0.009723753,0.0036523633,2.5045474E-5,-0.10321689397096634,0.06951887160539627,-0.3959767818450928,1002.93066,
2021.05.19 17:33:43,34.0,43.0,16.14,28.14,-38.16,-0.5602603,0.9864412,10.041589,-0.008602205,-6.236934E-4,0.0073554283,-0.09777029603719711,0.055736202746629715,-0.4142859876155853,1002.9341,
2021.05.19 17:33:43,34.0,43.0,16.32,28.019999,-38.399998,-0.56744313,0.9601042,9.926663,-0.021430375,0.00915015,0.015296676,-0.09626363962888718,0.05710138753056526,-0.4189821481704712,1002.9353,
2021.05.19 17:33:43,34.0,43.0,16.8,28.32,-38.82,-0.57462597,0.9217958,9.876384,-0.0031044171,0.004874094,-0.006083607,-0.09290751069784164,0.05811629816889763,-0.4272562563419342,1002.9353,
2021.05.19 17:33:43,34.0,43.0,16.74,27.84,-38.64,-0.68715686,0.9385557,9.96976,0.006669427,0.0067066895,-0.02502043,-0.09364275634288788,0.06881528347730637,-0.4202015995979309,1002.9358,
2021.05.19 17:33:43,34.0,43.0,17.1,27.9,-38.579998,-0.6847626,0.91700727,9.909904,-0.0043261475,0.007317555,-0.026853025,-0.09205341339111328,0.06898915022611618,-0.4296371042728424,1002.9358,
2021.05.19 17:33:43,34.0,43.0,16.859999,27.84,-38.46,-0.7134939,0.91461295,9.931452,-0.0037152825,0.0012089023,-0.024409564,-0.09159878641366959,0.07171864062547684,-0.4216991364955902,1002.9346,
2021.05.19 17:33:43,34.0,43.0,16.619999,27.779999,-38.28,-0.7206767,0.9481328,9.857229,-0.0018826867,0.010982746,-0.015246586,-0.09563783556222916,0.07298164069652557,-0.41349637508392334,1002.9292,
2021.05.19 17:33:44,34.0,43.0,17.22,27.84,-38.16,-0.64166564,0.9074302,9.957788,-0.015321722,0.0311413,-0.008527068,-0.09068962186574936,0.06434959918260574,-0.4401819705963135,1002.9292,
2021.05.19 17:33:44,34.0,43.0,16.74,27.9,-38.579998,-0.679974,0.9577099,9.826104,0.0017825048,0.010371881,-0.009748799,-0.0969286561012268,0.06909062713384628,-0.41795262694358826,1002.93506,
2021.05.19 17:33:44,34.0,43.0,16.68,27.9,-38.7,-0.7110996,0.9577099,9.792584,0.010334618,-0.0042888853,-0.01463572,-0.0972350612282753,0.07248890399932861,-0.41225194931030273,1002.93506,
2021.05.19 17:33:44,34.0,43.0,16.5,27.66,-38.52,-0.723071,0.8834874,9.838076,-0.0012718214,0.0018197676,-0.011581394,-0.08932298421859741,0.07336528599262238,-0.41329145431518555,1002.93945,
2021.05.19 17:33:44,34.0,43.0,16.32,28.199999,-38.28,-0.7206767,0.84996754,9.938635,-0.021430375,0.018923994,-0.001196685,-0.08509162813425064,0.07238595187664032,-0.40578120946884155,1002.93604,
2021.05.19 17:33:44,34.0,43.0,16.38,28.08,-38.04,-0.7326481,0.99362403,9.797373,-0.0110456655,-0.0012345586,-0.015246586,-0.1007923036813736,0.07464112341403961,-0.4005357623100281,1002.93604,
2021.05.19 17:33:44,34.0,43.0,16.32,28.26,-37.92,-0.68236834,0.90982443,10.048771,-0.014710857,0.017702265,-0.007916203,-0.09008833020925522,0.0678015649318695,-0.4088827669620514,1002.9353,
2021.05.19 17:33:44,34.0,43.0,16.32,28.74,-37.739998,-0.7134939,0.9217958,9.897932,-0.0018826867,5.980371E-4,-0.001196685,-0.09262332320213318,0.0719606801867485,-0.39861494302749634,1002.9353,
2021.05.19 17:33:44,34.0,43.0,16.14,28.439999,-37.98,-0.70870537,0.86193895,9.799767,0.011556349,-0.005510615,-0.016468316,-0.08750193566083908,0.07219291478395462,-0.398330420255661,1002.9238,
2021.05.19 17:33:44,34.0,43.0,16.199999,28.5,-37.86,-0.7446195,0.9122187,9.816526,0.010945483,-0.002456289,-0.021355238,-0.0923968106508255,0.07570867985486984,-0.3939175307750702,1002.92065,
2021.05.19 17:33:44,34.0,43.0,16.32,28.32,-37.98,-0.7853221,0.8834874,9.993703,-0.014099992,0.0067066895,-0.010970528,-0.08790558576583862,0.07842054218053818,-0.397701621055603,1002.92065,
2021.05.19 17:33:44,34.0,43.0,16.14,28.26,-38.16,-0.75659084,0.89067024,9.943423,-0.0110456655,0.0067066895,-0.003640146,-0.08907925337553024,0.0759432315826416,-0.3951722979545593,1002.92773,
2021.05.19 17:33:44,34.0,43.0,16.199999,28.38,-38.04,-0.7206767,0.90503585,9.842864,0.0036151006,0.017702265,-0.02257697,-0.09144718199968338,0.07308776676654816,-0.39786016941070557,1002.92773,
2021.05.19 17:33:44,34.0,43.0,16.44,28.859999,-38.219997,-0.71828246,0.8379962,10.000886,-0.0037152825,0.007317555,0.0043011024,-0.08338312804698944,0.07169876992702484,-0.40308159589767456,1002.92993,
2021.05.19 17:33:44,34.0,43.0,16.56,28.859999,-37.92,-0.7637737,0.88109314,9.720756,-0.0018826867,-0.009175807,-0.001196685,-0.09011715650558472,0.07841034233570099,-0.3973356783390045,1002.92993,
2021.05.19 17:33:44,34.0,43.0,16.8,28.74,-38.04,-0.7685622,0.86912173,9.917087,-0.0037152825,0.0018197676,-0.012803124,-0.08715546131134033,0.07734418660402298,-0.4069167375564575,1002.92993,
2021.05.19 17:33:45,34.0,43.0,16.68,28.859999,-38.16,-0.723071,0.8379962,10.034406,-0.014099992,-6.236934E-4,0.0018576413,-0.08310446888208389,0.07193483412265778,-0.40941122174263,1002.93286,
2021.05.19 17:33:45,34.0,43.0,16.14,28.26,-37.92,-0.76616794,0.9026416,9.957788,5.607743E-4,-0.012840998,0.013464081,-0.09013477712869644,0.07679028064012527,-0.3945693075656891,1002.93286,
2021.05.19 17:33:45,34.0,43.0,15.839999,28.32,-38.219997,-0.6703969,0.8834874,9.763853,0.009723753,-0.01650619,0.011631485,-0.09002897143363953,0.06855350732803345,-0.3938094675540924,1002.93335,
2021.05.19 17:33:45,34.0,43.0,15.719999,28.5,-37.92,-0.723071,0.8379962,9.96976,0.0036151006,-0.006732346,0.001246776,-0.083638034760952,0.07239965349435806,-0.3879418671131134,1002.9282,
2021.05.19 17:33:45,34.0,43.0,15.839999,28.08,-37.86,-0.7446195,0.8834874,9.917087,-0.0012718214,0.003041498,0.001246776,-0.08860473334789276,0.07494387030601501,-0.3912869691848755,1002.9282,
2021.05.19 17:33:45,34.0,43.0,16.02,28.32,-38.579998,-0.7326481,0.90024734,9.917087,0.012778079,-0.011619267,-0.0073053376,-0.090284563601017,0.07374338805675507,-0.3919007182121277,1002.93164,
2021.05.19 17:33:45,34.0,43.0,16.14,27.96,-38.46,-0.67279124,0.90982443,10.012857,-0.007991339,0.002430633,0.004911967,-0.09041400998830795,0.06709188222885132,-0.4066276550292969,1002.93164,
2021.05.19 17:33:45,34.0,43.0,16.32,27.72,-38.76,-0.69912827,0.8643332,9.950606,-0.0037152825,-0.002456289,-0.0018075503,-0.08643288165330887,0.07014459371566772,-0.4118048846721649,1002.9199,
2021.05.19 17:33:45,34.0,43.0,16.38,28.199999,-39.18,-0.7039168,0.888276,9.852441,0.011556349,-0.0036780196,-0.012803124,-0.08968748897314072,0.07132473587989807,-0.4039352238178253,1002.92676,
2021.05.19 17:33:45,34.0,43.0,16.5,28.08,-38.399998,-0.723071,0.88109314,9.993703,-5.009095E-5,-0.005510615,-0.019522643,-0.08770935982465744,0.07222680747509003,-0.4106648564338684,1002.92676,
2021.05.19 17:33:45,34.0,43.0,16.26,28.199999,-38.46,-0.66800267,0.86193895,10.041589,-5.009095E-5,-0.0042888853,-0.0066944724,-0.08543910831212997,0.06642573326826096,-0.40989449620246887,1002.92554,
2021.05.19 17:33:45,34.0,43.0,16.08,28.439999,-38.16,-0.7829279,0.90024734,9.905115,0.0030042352,5.980371E-4,-0.01463572,-0.09035780280828476,0.07887879014015198,-0.38791507482528687,1002.92554,
2021.05.19 17:33:45,34.0,43.0,16.02,28.14,-37.739998,-0.73743665,0.9194015,9.794978,0.020108461,-0.006732346,-0.01585745,-0.09332776814699173,0.07514545321464539,-0.39369937777519226,1002.92505,
2021.05.19 17:33:45,34.0,43.0,15.96,28.199999,-38.219997,-0.67279124,0.8379962,9.960183,0.006058561,0.0085392855,-0.004251011,-0.08374699205160141,0.06744562089443207,-0.4021673798561096,1002.9302,
2021.05.19 17:33:45,34.0,43.0,15.96,28.56,-37.98,-0.6847626,0.8978531,9.761458,0.009723753,0.003041498,-0.0054727416,-0.09149772673845291,0.07003489136695862,-0.39287257194519043,1002.9302,
2021.05.19 17:33:45,34.0,43.0,15.9,27.96,-38.16,-0.72546524,0.90982443,9.926663,0.0048368312,-0.005510615,6.359107E-4,-0.09115748107433319,0.07295279204845428,-0.3944428563117981,1002.9353,
2021.05.19 17:33:45,34.0,43.0,15.719999,27.96,-38.16,-0.68236834,0.88588166,9.933846,-0.009823934,0.003041498,0.01102062,-0.08873482793569565,0.06858351826667786,-0.39528846740722656,1002.9353,
2021.05.19 17:33:46,34.0,43.0,15.299999,28.019999,-37.559998,-0.68715686,0.89545876,9.771035,-0.019597778,-0.0042888853,0.006744563,-0.09116501361131668,0.07021030783653259,-0.38221853971481323,1002.93677,
2021.05.19 17:33:46,34.0,43.0,15.839999,27.779999,-37.559998,-0.73743665,0.90503585,9.895537,-0.026317297,-1.282817E-5,-0.003640146,-0.09095443785190582,0.0743846446275711,-0.39521846175193787,1002.9358,
2021.05.19 17:33:46,34.0,43.0,15.9,28.32,-37.38,-0.74701375,0.888276,9.96976,-0.013489126,-0.010397538,0.001246776,-0.0886152908205986,0.07478820532560349,-0.3918372690677643,1002.9358,
2021.05.19 17:33:46,34.0,43.0,15.66,28.32,-37.98,-0.6249057,0.7972935,10.008069,-0.023873834,0.0060958243,0.04217475,-0.07934330403804779,0.06235923245549202,-0.40064722299575806,1002.93384,
2021.05.19 17:33:46,34.0,43.0,16.26,28.14,-38.28,-0.72546524,0.88109314,9.636956,-6.609562E-4,-0.011619267,0.023237925,-0.09091924875974655,0.07513777911663055,-0.399466335773468,1002.93384,
2021.05.19 17:33:46,34.0,43.0,15.719999,28.68,-38.1,-0.5818088,0.8140534,10.130177,0.0054476964,-0.006732346,0.007966294,-0.0800555869936943,0.05737021192908287,-0.40283599495887756,1002.92896,
2021.05.19 17:33:46,34.0,43.0,16.02,28.56,-38.16,-0.73743665,0.7901107,10.063137,-0.016543454,0.014647937,-0.003640146,-0.07814590632915497,0.07315023243427277,-0.3961016535758972,1002.9265,
2021.05.19 17:33:46,34.0,43.0,16.44,28.8,-37.739998,-0.6608198,0.86912173,9.744699,0.0036151006,-0.029945225,-0.017690046,-0.08875104784965515,0.06770960241556168,-0.40704843401908875,1002.9265,
2021.05.19 17:33:46,34.0,43.0,16.68,29.279999,-37.68,-0.74222517,0.8140534,9.857229,0.051262587,-0.047660317,0.023237925,-0.08216587454080582,0.07515572011470795,-0.40311023592948914,1002.9265,
2021.05.19 17:33:46,34.0,43.0,16.619999,28.74,-37.98,-0.63208854,0.9194015,10.082292,0.06958855,-0.059266757,0.001246776,-0.09076102823019028,0.06261099874973297,-0.41618168354034424,1002.9265,
2021.05.19 17:33:46,34.0,43.0,16.44,28.619999,-37.92,-0.5458947,1.0774237,9.792584,0.061647296,-0.059266757,0.03912042,-0.10941516607999802,0.05568808317184448,-0.4125402867794037,1002.92114,
2021.05.19 17:33:46,34.0,43.0,16.14,28.14,-37.92,-0.5027977,1.0439038,9.907509,0.055538647,-0.073316656,0.053170323,-0.10484364628791809,0.05070565640926361,-0.41717636585235596,1002.9387,
2021.05.19 17:33:46,34.0,43.0,15.719999,27.48,-38.399998,-0.43815228,0.8643332,10.065532,-0.0037152825,-0.025669169,0.084935315,-0.08557981997728348,0.043502505868673325,-0.4285919964313507,1002.9387,
2021.05.19 17:33:46,34.0,43.0,15.54,27.06,-38.52,-0.28252444,0.9026416,9.900327,0.021941056,-0.034832146,0.07516147,-0.0908847376704216,0.02852913737297058,-0.442253053188324,1002.94727,
2021.05.19 17:33:46,34.0,43.0,15.78,27.119999,-38.76,-0.4644893,0.9505271,9.921875,0.06409076,-0.040329933,0.05072686,-0.09540581703186035,0.04678051546216011,-0.42583298683166504,1002.9397,
2021.05.19 17:33:46,34.0,43.0,15.66,27.18,-39.059998,-0.3974496,1.010384,10.168485,0.048208263,-0.050714646,0.018351004,-0.09896409511566162,0.039066530764102936,-0.4279135763645172,1002.9397,
2021.05.19 17:33:46,34.0,43.0,15.719999,27.539999,-39.059998,-0.7589851,1.1277034,10.498895,0.20947668,-0.065986276,0.0782158,-0.10672499239444733,0.07216636836528778,-0.38597166538238525,1002.93994,
2021.05.19 17:33:47,34.0,43.0,15.719999,28.019999,-39.42,-0.14605077,0.9529214,10.355239,-0.02326297,0.08550831,0.011631485,-0.09175559878349304,0.014103109948337078,-0.4481945335865021,1002.93994,
