Time,X-cord,Y-cord,Mag_x,Mag_y,Mag_z,Acc_x,Acc_y,Acc_z,Gyro_x,Gyro_y,Gyro_z,Orn_x,Orn_y,Orn_z,Pressure,
2021.05.19 17:23:59,82.0,89.0,29.46,-12.84,-31.5,-0.6656084,0.84996754,9.809344,0.12884247,0.026254378,-0.11298502,-0.08623556047677994,0.06775067001581192,-1.9195994138717651,1003.2932,
2021.05.19 17:23:59,82.0,89.0,29.46,-12.719999,-31.8,-0.57462597,0.7039168,9.895537,0.009723753,0.04396947,-0.07144619,-0.07089611887931824,0.05800406262278557,-1.9289511442184448,1003.2844,
2021.05.19 17:23:59,82.0,89.0,30.48,-13.32,-31.92,-0.505192,0.51955765,10.079897,-0.03486941,0.023810918,-0.04823331,-0.051433928310871124,0.050076864659786224,-1.9527171850204468,1003.2844,
2021.05.19 17:23:59,82.0,89.0,31.199999,-13.74,-33.239998,-0.44294083,0.5411061,9.845258,-0.002493552,-0.0030671544,-0.051287636,-0.05485047772526741,0.04495995119214058,-1.9499127864837646,1003.2859,
2021.05.19 17:23:59,82.0,89.0,32.399998,-14.04,-33.719997,-0.4836435,0.66321415,9.644139,0.028660577,0.021367455,-0.062894076,-0.06857462227344513,0.05010697618126869,-1.9320451021194458,1003.2859,
2021.05.19 17:23:59,82.0,89.0,33.059998,-13.679999,-34.38,-0.50998056,0.71588814,9.993703,-0.055638827,0.03969341,-0.059839748,-0.07141915708780289,0.05098596587777138,-1.9112293720245361,1003.27344,
2021.05.19 17:23:59,82.0,89.0,33.12,-13.559999,-34.62,-0.57223165,0.81644773,10.017646,-0.053806234,0.036639087,-0.06533753,-0.08118945360183716,0.0570603609085083,-1.898184061050415,1003.281,
2021.05.19 17:23:59,82.0,89.0,33.54,-13.259999,-34.32,-0.48124924,0.6703969,10.2091875,-0.031204218,0.017091399,-0.004251011,-0.06549938023090363,0.04710397124290466,-1.8997389078140259,1003.281,
2021.05.19 17:23:59,82.0,89.0,33.6,-12.9,-34.62,-0.32801566,0.600963,9.996098,-0.05136277,-0.01650619,0.03179004,-0.06001526117324829,0.03280260041356087,-1.890321135520935,1003.27515,
2021.05.19 17:23:59,82.0,89.0,33.96,-13.5,-34.26,-0.29928434,0.505192,9.900327,0.065923356,-0.0268909,0.03179004,-0.050960347056388855,0.03022054024040699,-1.9120010137557983,1003.27515,
2021.05.19 17:24:00,82.0,89.0,33.66,-13.5,-34.14,-0.45730647,0.52674043,9.943423,0.03599096,-0.019560516,0.010409755,-0.05286850035190582,0.04595846310257912,-1.9179272651672363,1003.2832,
2021.05.19 17:24:00,82.0,89.0,33.66,-13.38,-34.38,-0.68715686,0.6464542,9.929058,0.050651725,0.010371881,-0.031739946,-0.06486084312200546,0.06909647583961487,-1.9090715646743774,1003.27637,
2021.05.19 17:24:00,82.0,89.0,33.66,-13.92,-34.5,-0.6057515,0.7206767,9.8787775,0.04209961,0.0018197676,-0.012803124,-0.07268697023391724,0.06124178692698479,-1.9134838581085205,1003.27637,
2021.05.19 17:24:00,82.0,89.0,33.239998,-13.44,-34.739998,-0.36871833,0.6201172,9.783007,0.026217116,0.007317555,0.038509555,-0.06325768679380417,0.03767184168100357,-1.9066787958145142,1003.27515,
2021.05.19 17:24:00,82.0,89.0,33.3,-13.32,-34.559998,-0.25858167,0.55307746,9.857229,0.020108461,-0.007343211,0.0342335,-0.05603081360459328,0.026226678863167763,-1.9069664478302002,1003.27515,
2021.05.19 17:24:00,82.0,89.0,33.059998,-13.32,-34.14,-0.28252444,0.44533512,9.802161,-0.04647585,-0.01772792,0.073328875,-0.0453822948038578,0.028814690187573433,-1.9211019277572632,1003.27246,
2021.05.19 17:24:00,82.0,89.0,32.82,-13.2,-34.68,-0.38547826,0.5363176,9.759064,-0.05808229,-0.009786672,0.03179004,-0.054857924580574036,0.03947898745536804,-1.913414716720581,1003.2705,
2021.05.19 17:24:00,82.0,89.0,32.7,-13.559999,-34.739998,-0.76616794,0.80687064,9.993703,-0.05930402,-0.0061214804,-0.029296486,-0.08032844960689545,0.07651539891958237,-1.9090816974639893,1003.2705,
2021.05.19 17:24:00,82.0,89.0,32.7,-13.74,-35.16,-0.46927786,0.77574503,10.225947,-0.09534507,0.022589186,0.036066093,-0.07563614100217819,0.0458587184548378,-1.9093225002288818,1003.27246,
2021.05.19 17:24:00,82.0,89.0,33.12,-13.74,-35.46,-0.31365,0.66800267,10.115811,-0.08007344,0.010982746,0.057446375,-0.06590818613767624,0.030995987355709076,-1.9104317426681519,1003.27246,
2021.05.19 17:24:00,82.0,89.0,33.059998,-13.259999,-35.28,-0.23224466,0.4740664,10.204399,-0.002493552,0.023810918,0.03912042,-0.046411678194999695,0.0227553378790617,-1.9153878688812256,1003.2715,
2021.05.19 17:24:00,82.0,89.0,32.7,-12.599999,-35.04,-0.35914123,0.4740664,9.945818,0.03599096,0.012204477,0.018351004,-0.04759787395596504,0.03609409183263779,-1.9037367105484009,1003.27295,
2021.05.19 17:24:00,82.0,89.0,32.52,-12.48,-34.92,-0.5027977,0.56744313,9.9889145,0.047597397,0.0067066895,-0.028074756,-0.05667470023036003,0.050293128937482834,-1.8969552516937256,1003.27295,
2021.05.19 17:24:00,82.0,89.0,31.92,-12.719999,-34.26,-0.6488485,0.6943397,9.897932,0.042710476,-6.236934E-4,-0.028685622,-0.0698857307434082,0.06546027958393097,-1.9012067317962646,1003.2749,
2021.05.19 17:24:00,82.0,89.0,31.619999,-12.599999,-33.719997,-0.52674043,0.69673395,9.960183,0.06531249,0.002430633,-0.01585745,-0.06974101811647415,0.05283538997173309,-1.8978184461593628,1003.2749,
2021.05.19 17:24:00,82.0,89.0,31.98,-13.259999,-33.84,-0.32083282,0.6249057,9.763853,0.056760374,0.0036523633,0.016518408,-0.06388039886951447,0.03284742683172226,-1.9134889841079712,1003.2737,
2021.05.19 17:24:00,82.0,89.0,32.04,-13.44,-33.78,-0.4285752,0.5865973,9.814133,0.04087788,-0.0036780196,0.0055228327,-0.059642940759658813,0.043641459196805954,-1.925836443901062,1003.27075,
2021.05.19 17:24:01,82.0,89.0,32.46,-13.32,-34.26,-0.40223816,0.6368771,9.871595,0.0457648,0.0085392855,-0.004251011,-0.06437356770038605,0.0407244972884655,-1.91153883934021,1003.27075,
2021.05.19 17:24:01,82.0,89.0,33.059998,-13.259999,-34.2,-0.4764607,0.65363705,9.979338,0.032936633,-0.001845424,-0.012803124,-0.06533139944076538,0.04770849272608757,-1.904960036277771,1003.27563,
2021.05.19 17:24:01,82.0,89.0,32.579998,-13.0199995,-33.54,-0.57223165,0.80687064,9.809344,0.0030042352,-0.0061214804,-5.8581977E-4,-0.08193188160657883,0.05826932191848755,-1.889313817024231,1003.27563,
2021.05.19 17:24:01,82.0,89.0,32.64,-13.38,-33.36,-0.45012367,0.7110996,9.941029,0.007280292,0.0036523633,0.0146858115,-0.07133731991052628,0.04524848237633705,-1.9069327116012573,1003.2766,
2021.05.19 17:24:01,82.0,89.0,32.34,-13.38,-33.239998,-0.38787252,0.7350424,9.962578,5.607743E-4,-0.005510615,0.026292251,-0.07359134405851364,0.038913294672966,-1.9060728549957275,1003.2742,
2021.05.19 17:24:01,82.0,89.0,32.04,-13.679999,-33.3,-0.29210153,0.749408,9.883567,0.0030042352,0.011593612,0.015296676,-0.07564592361450195,0.02954566292464733,-1.9128859043121338,1003.2742,
2021.05.19 17:24:01,82.0,89.0,32.1,-13.62,-33.54,-0.38547826,0.74222517,9.981731,0.013388945,-0.009175807,0.02262706,-0.0741666778922081,0.03859919682145119,-1.9142192602157593,1003.2771,
2021.05.19 17:24:01,82.0,89.0,31.8,-13.44,-33.36,-0.44294083,0.81165916,9.888355,0.015832406,0.003041498,-0.0018075503,-0.08181703835725784,0.044764261692762375,-1.9062566757202148,1003.2771,
2021.05.19 17:24:01,82.0,89.0,31.92,-13.62,-33.48,-0.4189981,0.75180227,10.0368,0.017665,0.005484959,-0.010970528,-0.07470013201236725,0.04172195866703987,-1.9165757894515991,1003.272,
2021.05.19 17:24:01,82.0,89.0,31.92,-13.679999,-33.6,-0.28013015,0.7134939,10.034406,0.00239337,0.004874094,0.0043011024,-0.0709577202796936,0.027909716591238976,-1.917837381362915,1003.2798,
2021.05.19 17:24:01,82.0,89.0,32.46,-13.679999,-33.6,-0.339987,0.68715686,9.852441,0.0335475,-0.0012345586,-0.028074756,-0.06959078460931778,0.03449421003460884,-1.9155758619308472,1003.2798,
2021.05.19 17:24:01,82.0,89.0,32.579998,-13.32,-33.36,-0.531529,0.75659084,9.802161,0.04087788,-0.0036780196,-0.044568118,-0.07692082226276398,0.054172638803720474,-1.9025686979293823,1003.28345,
2021.05.19 17:24:01,82.0,89.0,32.76,-13.38,-33.42,-0.52674043,0.73743665,9.979338,0.021330193,-0.001845424,-0.030518217,-0.07366011291742325,0.052734170109033585,-1.9053698778152466,1003.28345,
2021.05.19 17:24:01,82.0,89.0,32.579998,-13.5,-33.239998,-0.4860378,0.7637737,9.979338,0.00239337,0.00915015,-0.011581394,-0.07629650831222534,0.048665959388017654,-1.9070603847503662,1003.28345,
2021.05.19 17:24:01,82.0,89.0,32.04,-13.62,-33.12,-0.46209505,0.8284191,9.766247,0.026217116,-0.008564942,-0.015246586,-0.08452802151441574,0.04728025943040848,-1.90737783908844,1003.2803,
2021.05.19 17:24:01,82.0,89.0,31.619999,-13.799999,-33.6,-0.31365,0.65124273,10.228342,0.0011716395,0.010982746,0.0030793718,-0.0635547861456871,0.030655188485980034,-1.9327702522277832,1003.2803,
2021.05.19 17:24:02,82.0,89.0,31.5,-13.679999,-33.059998,-0.44294083,0.8667275,9.557945,0.032936633,-0.0042888853,-0.042124655,-0.0903375893831253,0.04630954936146736,-1.9085372686386108,1003.2893,
2021.05.19 17:24:02,82.0,89.0,31.859999,-13.5,-32.88,-0.50998056,0.84996754,10.178062,0.006058561,0.024421781,-0.047622446,-0.08321253210306168,0.05006399005651474,-1.9083621501922607,1003.2908,
2021.05.19 17:24:02,82.0,89.0,32.34,-13.5,-33.059998,-0.54350036,0.91461295,10.096657,0.012778079,0.002430633,-0.036626868,-0.09020926058292389,0.05377783626317978,-1.8967427015304565,1003.2908,
2021.05.19 17:24:02,82.0,89.0,33.059998,-13.62,-32.82,-0.60335726,0.90024734,9.727939,0.028049711,-0.0042888853,-0.021355238,-0.09210363775491714,0.06194378435611725,-1.8936982154846191,1003.28955,
2021.05.19 17:24:02,82.0,89.0,33.42,-13.559999,-33.48,-0.339987,0.6273,9.897932,0.028049711,-0.009786672,0.016518408,-0.06325503438711166,0.034335799515247345,-1.9090559482574463,1003.28955,
2021.05.19 17:24:02,82.0,89.0,33.3,-13.74,-33.6,-0.3974496,0.7589851,9.747093,0.009112887,-0.0048997505,0.01102062,-0.07764676213264465,0.04075364023447037,-1.902520775794983,1003.2883,
2021.05.19 17:24:02,82.0,89.0,32.52,-13.38,-33.36,-0.5027977,0.8571504,9.821315,-0.014099992,0.0036523633,-0.034183405,-0.08694064617156982,0.0511498898267746,-1.8935675621032715,1003.2883,
2021.05.19 17:24:02,82.0,89.0,32.1,-12.719999,-32.82,-0.5889916,0.888276,10.055954,-0.042810656,-1.282817E-5,-0.040902928,-0.08795469999313354,0.05850458890199661,-1.880125880241394,1003.2883,
2021.05.19 17:24:02,82.0,89.0,31.32,-12.24,-31.92,-0.505192,0.92658436,9.967366,-0.042199794,0.012815342,-0.018911777,-0.09257723391056061,0.0506412647664547,-1.86826491355896,1003.2859,
2021.05.19 17:24:02,82.0,89.0,30.9,-11.94,-31.859999,-0.37590113,0.76616794,10.125388,-0.026928162,0.00915015,-0.003640146,-0.07547228783369064,0.037107571959495544,-1.8779313564300537,1003.2859,
2021.05.19 17:24:02,82.0,89.0,31.019999,-12.059999,-31.56,-0.4764607,0.8356019,9.840469,-0.0012718214,0.0060958243,-5.8581977E-4,-0.08461297303438187,0.04838071018457413,-1.874316692352295,1003.29004,
2021.05.19 17:24:02,82.0,89.0,30.66,-12.3,-31.26,-0.49800915,0.73743665,9.802161,0.01644327,5.980371E-4,-0.019522643,-0.07499422132968903,0.05076240748167038,-1.8966219425201416,1003.28394,
2021.05.19 17:24:02,82.0,89.0,30.539999,-12.48,-31.14,-0.62251145,0.77574503,9.941029,0.009723753,0.005484959,-0.018911777,-0.07772523909807205,0.0625387653708458,-1.904157280921936,1003.28394,
2021.05.19 17:24:02,82.0,89.0,30.539999,-12.3,-30.779999,-0.531529,0.80687064,9.778218,0.00239337,-0.0036780196,0.014074947,-0.08220979571342468,0.054305028170347214,-1.8922470808029175,1003.2844,
2021.05.19 17:24:02,82.0,89.0,30.599998,-12.36,-30.42,-0.42618093,0.74701375,9.998491,0.0011716395,-0.001845424,0.02262706,-0.07450670003890991,0.04259873926639557,-1.8989101648330688,1003.2844,
2021.05.19 17:24:02,82.0,89.0,30.84,-12.599999,-31.38,-0.40223816,0.7948992,9.909904,-5.009095E-5,-0.0012345586,0.019572733,-0.0799756720662117,0.040567245334386826,-1.8958206176757812,1003.28394,
2021.05.19 17:24:02,82.0,89.0,30.66,-12.84,-31.679998,-0.46209505,0.7996878,9.90272,0.0054476964,-0.001845424,0.013464081,-0.0804922878742218,0.04662961885333061,-1.9055306911468506,1003.28,
2021.05.19 17:24:03,82.0,89.0,30.48,-12.9,-31.5,-0.45730647,0.7948992,9.972155,0.0017825048,0.005484959,0.004911967,-0.07946053892374039,0.04582623392343521,-1.9105077981948853,1003.28,
2021.05.19 17:24:03,82.0,89.0,30.48,-12.84,-31.859999,-0.4932206,0.76137936,9.93624,0.00239337,-0.0061214804,-0.0024184156,-0.07638337463140488,0.0495978444814682,-1.9123084545135498,1003.271,
2021.05.19 17:24:03,82.0,89.0,30.3,-12.78,-31.5,-0.52674043,0.7326481,9.98652,5.607743E-4,5.980371E-4,2.5045474E-5,-0.07313121110200882,0.052696313709020615,-1.9174437522888184,1003.271,
2021.05.19 17:24:03,82.0,89.0,30.42,-12.84,-31.26,-0.505192,0.8475733,9.8787775,-0.0061587435,0.005484959,-0.008527068,-0.08547662943601608,0.05109461024403572,-1.905020833015442,1003.2661,
2021.05.19 17:24:03,82.0,89.0,30.359999,-12.96,-31.32,-0.43096948,0.77574503,10.108628,-0.018376049,0.003041498,0.009188024,-0.07652152329683304,0.042608022689819336,-1.9160972833633423,1003.2661,
2021.05.19 17:24:03,82.0,89.0,30.359999,-12.54,-31.32,-0.4285752,0.81644773,9.847652,-0.007991339,0.0085392855,0.007966294,-0.08264080435037613,0.04349309951066971,-1.8971630334854126,1003.26416,
2021.05.19 17:24:03,82.0,89.0,30.66,-12.48,-31.14,-0.4644893,0.76137936,9.838076,0.020719327,0.012204477,-0.028685622,-0.07715152949094772,0.047178398817777634,-1.8991650342941284,1003.2595,
2021.05.19 17:24:03,82.0,89.0,31.019999,-12.3,-30.9,-0.5794145,0.77574503,9.885961,0.006058561,0.003041498,-0.01585745,-0.07817529886960983,0.05854285880923271,-1.8923009634017944,1003.2595,
2021.05.19 17:24:03,82.0,89.0,31.08,-12.179999,-30.779999,-0.54350036,0.7948992,9.917087,-0.0104348,0.014037072,-0.016468316,-0.07986417412757874,0.05474966764450073,-1.8854939937591553,1003.25806,
2021.05.19 17:24:03,82.0,89.0,31.32,-12.66,-30.9,-0.505192,0.7853221,9.960183,-0.004937013,0.004874094,-0.009137933,-0.0785827785730362,0.05067772418260574,-1.8976553678512573,1003.25806,
2021.05.19 17:24:03,82.0,89.0,30.96,-12.78,-30.96,-0.5219519,0.7853221,9.914692,-0.0018826867,0.0067066895,-0.016468316,-0.07893404364585876,0.05259573832154274,-1.9051159620285034,1003.25586,
2021.05.19 17:24:03,82.0,89.0,30.9,-12.3,-31.38,-0.5243462,0.7302538,9.976943,-0.0012718214,0.0067066895,-0.017690046,-0.07296351343393326,0.052507489919662476,-1.8964797258377075,1003.2654,
2021.05.19 17:24:03,82.0,89.0,30.66,-12.179999,-31.56,-0.5770202,0.7877164,9.804555,-0.0018826867,5.980371E-4,-0.01341399,-0.08003178983926773,0.05878445506095886,-1.8892241716384888,1003.2654,
2021.05.19 17:24:03,82.0,89.0,30.359999,-12.0,-31.019999,-0.54350036,0.7206767,9.998491,0.008502022,-0.001845424,-0.01463572,-0.07184840738773346,0.05430479347705841,-1.895164966583252,1003.26807,
2021.05.19 17:24:03,82.0,89.0,30.599998,-11.759999,-31.14,-0.5458947,0.7733508,9.842864,-0.009213069,0.0067066895,-0.001196685,-0.07828879356384277,0.05540420114994049,-1.8784401416778564,1003.26807,
2021.05.19 17:24:03,82.0,89.0,30.66,-11.94,-30.599998,-0.5243462,0.75180227,9.900327,-6.609562E-4,5.980371E-4,-0.011581394,-0.07568598538637161,0.05291307345032692,-1.886527180671692,1003.2637,
2021.05.19 17:24:03,82.0,89.0,31.14,-11.88,-30.3,-0.53392327,0.7637737,10.010463,-0.013489126,-6.236934E-4,-0.0024184156,-0.07604233175516129,0.053286030888557434,-1.8800941705703735,1003.27,
2021.05.19 17:24:04,82.0,89.0,31.199999,-11.88,-30.779999,-0.51716334,0.7637737,10.005674,-0.0110456655,-0.0030671544,0.0043011024,-0.07608513534069061,0.05164104700088501,-1.8781789541244507,1003.27,
2021.05.19 17:24:04,82.0,89.0,31.439999,-11.759999,-30.42,-0.51716334,0.7446195,9.960183,-0.0043261475,0.007317555,-0.0073053376,-0.0745207890868187,0.0518764890730381,-1.8744555711746216,1003.27295,
2021.05.19 17:24:04,82.0,89.0,31.08,-11.7,-30.539999,-0.4860378,0.7446195,9.909904,0.006058561,-0.0042888853,-0.0024184156,-0.0749082937836647,0.049006395041942596,-1.8748250007629395,1003.27295,
2021.05.19 17:24:04,82.0,89.0,31.14,-11.88,-30.599998,-0.5650489,0.7206767,9.996098,-0.002493552,-6.236934E-4,0.003690237,-0.07185696810483932,0.056466855108737946,-1.8846163749694824,1003.27246,
2021.05.19 17:24:04,82.0,89.0,31.08,-12.36,-30.48,-0.5147691,0.73743665,9.850046,0.010334618,-0.011619267,-0.0048618764,-0.07462545484304428,0.05221307650208473,-1.896199345588684,1003.2715,
2021.05.19 17:24:04,82.0,89.0,30.48,-12.54,-30.599998,-0.50040346,0.7134939,9.933846,-0.0012718214,0.0036523633,0.0024685066,-0.07161092013120651,0.05033104121685028,-1.9104217290878296,1003.2715,
2021.05.19 17:24:04,82.0,89.0,30.42,-12.599999,-30.96,-0.5458947,0.7948992,9.90272,0.015832406,-0.0042888853,-0.0066944724,-0.07997813820838928,0.05506999045610428,-1.9050389528274536,1003.2759,
2021.05.19 17:24:04,82.0,89.0,30.539999,-12.78,-31.08,-0.5027977,0.75180227,9.96976,-0.0031044171,-0.010397538,0.0030793718,-0.07517064362764359,0.05038958787918091,-1.912686824798584,1003.27246,
2021.05.19 17:24:04,82.0,89.0,31.019999,-12.36,-31.679998,-0.42618093,0.679974,9.929058,0.007280292,-0.017117055,0.003690237,-0.06831376999616623,0.04289626330137253,-1.8986759185791016,1003.27246,
2021.05.19 17:24:04,82.0,89.0,31.32,-12.36,-31.56,-0.46927786,0.6656084,9.974549,0.011556349,-0.015284459,-0.0018075503,-0.06655848771333694,0.04701285809278488,-1.898693323135376,1003.27734,
2021.05.19 17:24:04,82.0,89.0,31.32,-12.54,-31.32,-0.5411061,0.7350424,9.955395,0.009112887,-0.015284459,-0.02502043,-0.07359161227941513,0.054299622774124146,-1.899337887763977,1003.27734,
2021.05.19 17:24:04,82.0,89.0,31.5,-12.42,-31.5,-0.45491222,0.7637737,9.929058,-0.018986914,-0.002456289,-0.018300911,-0.07669175416231155,0.04578423127532005,-1.8881555795669556,1003.2759,
2021.05.19 17:24:04,82.0,89.0,31.08,-12.719999,-30.66,-0.45491222,0.7446195,10.039194,-0.0037152825,0.0018197676,-0.026242161,-0.07396005839109421,0.04528264328837395,-1.905576229095459,1003.2759,
2021.05.19 17:24:04,82.0,89.0,30.9,-12.66,-30.72,-0.45012367,0.72546524,9.897932,-0.0031044171,-0.011008403,-0.0103596635,-0.07308854162693024,0.04544522613286972,-1.9064838886260986,1003.27515,
2021.05.19 17:24:04,82.0,89.0,31.08,-12.24,-30.9,-0.50040346,0.6943397,9.943423,0.009723753,-0.005510615,-0.023798699,-0.0696280375123024,0.05028264969587326,-1.896369218826294,1003.27686,
2021.05.19 17:24:04,82.0,89.0,30.539999,-12.84,-30.48,-0.47167215,0.7134939,9.957788,5.607743E-4,-0.0048997505,-0.016468316,-0.07144975662231445,0.047331780195236206,-1.9184114933013916,1003.27686,
2021.05.19 17:24:05,82.0,89.0,30.66,-12.36,-30.779999,-0.5794145,0.77574503,9.921875,0.0036151006,0.002430633,-0.018911777,-0.0778944194316864,0.058331429958343506,-1.898403286933899,1003.27515,
2021.05.19 17:24:05,82.0,89.0,30.539999,-12.48,-30.72,-0.4644893,0.70631105,9.924269,0.007280292,0.0042632283,-0.008527068,-0.07097285240888596,0.04676925018429756,-1.9073677062988281,1003.27515,
2021.05.19 17:24:05,82.0,89.0,30.48,-12.599999,-30.84,-0.50758624,0.7805336,9.914692,0.007280292,-1.282817E-5,-0.0024184156,-0.07846057415008545,0.05115070566534996,-1.9050875902175903,1003.26855,
2021.05.19 17:24:05,82.0,89.0,30.42,-12.36,-30.84,-0.43336374,0.75180227,9.998491,0.009723753,0.005484959,0.001246776,-0.07498021423816681,0.04331580176949501,-1.8997526168823242,1003.2644,
2021.05.19 17:24:05,82.0,89.0,30.24,-12.66,-31.32,-0.48843205,0.76616794,9.943423,0.0054476964,0.005484959,0.0018576413,-0.07680853456258774,0.04908166453242302,-1.9098002910614014,1003.2644,
2021.05.19 17:24:05,82.0,89.0,30.3,-12.3,-31.74,-0.50998056,0.74222517,9.864412,0.021941056,-6.236934E-4,-0.0054727416,-0.07500141113996506,0.05165304243564606,-1.8998486995697021,1003.2754,
2021.05.19 17:24:05,82.0,89.0,30.24,-12.36,-31.5,-0.51716334,0.723071,9.938635,0.0017825048,0.010982746,-0.0030292806,-0.07252781093120575,0.051988761872053146,-1.9055145978927612,1003.2754,
2021.05.19 17:24:05,82.0,89.0,29.88,-12.36,-31.92,-0.52913475,0.87630457,9.680053,0.004225966,0.0060958243,-0.009748799,-0.09014690667390823,0.05460803583264351,-1.8902792930603027,1003.2698,
2021.05.19 17:24:05,82.0,89.0,29.939999,-12.059999,-31.5,-0.44294083,0.71588814,10.082292,-0.0037152825,5.980371E-4,-0.007916203,-0.07081746309995651,0.043904323130846024,-1.8988592624664307,1003.2732,
2021.05.19 17:24:05,82.0,89.0,30.3,-12.36,-31.08,-0.47167215,0.74222517,9.845258,0.0011716395,-0.007343211,0.0024685066,-0.07516087591648102,0.04787195846438408,-1.90166437625885,1003.2732,
2021.05.19 17:24:05,82.0,89.0,30.06,-12.12,-31.32,-0.5650489,0.72546524,9.890749,0.007891157,-0.0048997505,-0.018911777,-0.07309798151254654,0.05706699565052986,-1.9011479616165161,1003.27734,
2021.05.19 17:24:05,82.0,89.0,30.599998,-11.82,-31.26,-0.5458947,0.7948992,9.943423,-0.007380474,-0.0030671544,-0.0024184156,-0.07965312153100967,0.054845016449689865,-1.8785021305084229,1003.27734,
2021.05.19 17:24:05,82.0,89.0,30.599998,-11.82,-31.439999,-0.44294083,0.7853221,9.98652,-0.035480276,0.010371881,0.010409755,-0.07839994877576828,0.04432481899857521,-1.8767939805984497,1003.27734,
2021.05.19 17:24:05,82.0,89.0,30.599998,-11.94,-32.04,-0.43575802,0.7589851,9.960183,0.0017825048,0.00792842,-0.0054727416,-0.07598254084587097,0.04372211918234825,-1.8817332983016968,1003.27466,
2021.05.19 17:24:05,82.0,89.0,30.66,-12.12,-31.56,-0.43096948,0.72785956,9.876384,0.0054476964,0.005484959,0.011631485,-0.07349429279565811,0.04360869899392128,-1.8901540040969849,1003.27466,
2021.05.19 17:24:05,82.0,89.0,30.599998,-12.12,-31.56,-0.4764607,0.6943397,9.914692,0.023162788,5.980371E-4,0.001246776,-0.06983690708875656,0.048019085079431534,-1.895795226097107,1003.26904,
2021.05.19 17:24:05,82.0,89.0,30.599998,-12.179999,-31.5,-0.600963,0.7637737,9.895537,0.0036151006,-0.0042888853,-0.008527068,-0.07688982039690018,0.06065620854496956,-1.8938535451889038,1003.2742,
2021.05.19 17:24:06,82.0,89.0,30.359999,-12.12,-31.019999,-0.5458947,0.7685622,9.943423,-0.002493552,0.0042632283,-0.0030292806,-0.07702461630105972,0.054845020174980164,-1.8936372995376587,1003.2742,
2021.05.19 17:24:06,82.0,89.0,30.359999,-12.179999,-31.199999,-0.46209505,0.69912827,9.967366,-0.009213069,-0.0012345586,0.0146858115,-0.06995214521884918,0.0463276281952858,-1.9001940488815308,1003.2825,
2021.05.19 17:24:06,82.0,89.0,30.599998,-12.54,-31.26,-0.41181526,0.7446195,9.91948,-0.016543454,0.0018197676,0.020794464,-0.07486160844564438,0.04149198532104492,-1.9021979570388794,1003.2825,
2021.05.19 17:24:06,82.0,89.0,30.779999,-12.599999,-31.26,-0.5027977,0.75180227,9.998491,-0.007991339,0.012204477,0.0030793718,-0.07495597749948502,0.05024503543972969,-1.9044437408447266,1003.2854,
2021.05.19 17:24:06,82.0,89.0,30.84,-12.42,-31.26,-0.50758624,0.749408,9.933846,-0.013489126,0.009761016,-0.009137933,-0.07519949972629547,0.05105224624276161,-1.898277997970581,1003.2842,
2021.05.19 17:24:06,82.0,89.0,31.14,-12.42,-31.38,-0.54828894,0.74222517,9.900327,0.0030042352,0.010371881,-0.006083607,-0.07471571862697601,0.05532437935471535,-1.8965966701507568,1003.2842,
2021.05.19 17:24:06,82.0,89.0,31.08,-12.059999,-31.199999,-0.5411061,0.71828246,9.907509,0.009112887,0.004874094,-0.007916203,-0.07226485759019852,0.0545615516602993,-1.888841152191162,1003.2798,
2021.05.19 17:24:06,82.0,89.0,30.72,-11.639999,-31.019999,-0.48124924,0.69673395,10.027223,-0.009823934,-1.282817E-5,0.007966294,-0.06929323077201843,0.04795747250318527,-1.8811694383621216,1003.2798,
2021.05.19 17:24:06,82.0,89.0,30.72,-11.759999,-30.66,-0.57223165,0.75659084,9.96976,-0.0061587435,-1.282817E-5,-0.0030292806,-0.0756194069981575,0.05733382701873779,-1.881405234336853,1003.2822,
2021.05.19 17:24:06,82.0,89.0,30.72,-11.5199995,-30.48,-0.46209505,0.74222517,9.818921,0.020719327,-0.015284459,0.009188024,-0.07536473870277405,0.047026995569467545,-1.8719531297683716,1003.28345,
2021.05.19 17:24:06,82.0,89.0,30.599998,-11.7,-30.359999,-0.5147691,0.69912827,10.0439825,-0.002493552,-0.009786672,0.014074947,-0.06940378993749619,0.05120668560266495,-1.8860769271850586,1003.28345,
2021.05.19 17:24:06,82.0,89.0,30.539999,-12.24,-30.42,-0.46927786,0.76616794,9.871595,0.009723753,-0.018338785,-0.0054727416,-0.07737108319997787,0.047502435743808746,-1.8942689895629883,1003.28516,
2021.05.19 17:24:06,82.0,89.0,30.48,-12.0,-31.019999,-0.54828894,0.7685622,9.821315,-6.609562E-4,-0.0061214804,-0.0054727416,-0.07797443866729736,0.05576854199171066,-1.887860894203186,1003.28516,
2021.05.19 17:24:06,82.0,89.0,30.119999,-12.48,-31.199999,-0.51716334,0.6464542,10.091868,0.0017825048,-0.0042888853,0.004911967,-0.06388594210147858,0.051200758665800095,-1.9198501110076904,1003.2803,
2021.05.19 17:24:06,82.0,89.0,29.88,-11.94,-31.199999,-0.45970076,0.7350424,9.737515,-0.0031044171,-0.014673594,0.013464081,-0.0752592384815216,0.04717421904206276,-1.892499566078186,1003.2803,
2021.05.19 17:24:06,82.0,89.0,30.179998,-11.94,-31.019999,-0.42139238,0.600963,10.096657,-0.04525412,0.01953486,0.009188024,-0.059399258345365524,0.041711628437042236,-1.9044822454452515,1003.27124,
2021.05.19 17:24:06,82.0,89.0,30.0,-11.88,-30.66,-0.70631105,0.76616794,10.022434,-0.0037152825,0.020145725,-0.020744374,-0.07610886543989182,0.07035668939352036,-1.895880103111267,1003.2678,
2021.05.19 17:24:07,82.0,89.0,30.06,-11.7,-30.539999,-0.679974,0.7733508,9.914692,-0.0104348,0.004874094,0.009188024,-0.0776611864566803,0.06847523897886276,-1.8874202966690063,1003.2678,
2021.05.19 17:24:07,82.0,89.0,30.42,-12.059999,-30.66,-0.45491222,0.6464542,9.967366,0.015221541,-0.028723495,0.026292251,-0.0646992027759552,0.045608509331941605,-1.9018733501434326,1003.2783,
2021.05.19 17:24:07,82.0,89.0,30.359999,-11.94,-30.66,-0.39505535,0.65363705,9.893144,0.0030042352,-0.012230133,0.051948592,-0.06592143326997757,0.03991103172302246,-1.8960062265396118,1003.2783,
2021.05.19 17:24:07,82.0,89.0,30.48,-11.94,-30.84,-0.50998056,0.7733508,9.531608,-0.053806234,-0.040329933,0.030568307,-0.08084292709827423,0.05345318093895912,-1.8827086687088013,1003.2693,
2021.05.19 17:24:07,82.0,89.0,30.48,-11.58,-30.779999,-0.37829542,0.44533512,10.45101,-0.19797044,-0.040329933,0.05866811,-0.042558081448078156,0.03618122637271881,-1.905727505683899,1003.27466,
2021.05.19 17:24:07,82.0,89.0,29.88,-11.5199995,-31.38,-0.33759275,0.57223165,10.05356,-0.08129516,0.06657148,0.018351004,-0.056825000792741776,0.03356681019067764,-1.8944169282913208,1003.27466,
2021.05.19 17:24:07,82.0,89.0,29.939999,-11.34,-31.679998,-0.5027977,0.56744313,10.146936,0.006058561,-0.001845424,0.023848789,-0.05579610541462898,0.04951118305325508,-1.893500566482544,1003.27026,
2021.05.19 17:24:07,82.0,89.0,30.24,-11.4,-31.619999,-0.37350687,0.5243462,9.787795,0.0048368312,-0.03177782,0.006744563,-0.05348141863942146,0.03814196586608887,-1.8913756608963013,1003.27026,
2021.05.19 17:24:07,82.0,89.0,30.359999,-11.94,-31.92,-0.3232271,0.5363176,9.869201,0.04515394,-0.02933436,-0.014024856,-0.054260119795799255,0.032739389687776566,-1.9039311408996582,1003.27563,
2021.05.19 17:24:07,82.0,89.0,30.72,-12.24,-31.439999,-0.56265455,0.6560313,10.326508,0.011556349,-0.01650619,-0.0054727416,-0.0633498951792717,0.05443260818719864,-1.90700364112854,1003.28174,
2021.05.19 17:24:07,82.0,89.0,30.72,-12.24,-31.439999,0.023942748,0.7446195,8.830086,0.03599096,-0.091031745,0.0055228327,-0.08412820100784302,-0.0027114900294691324,-1.871764898300171,1003.28174,
2021.05.19 17:24:07,82.0,89.0,30.24,-12.42,-31.74,-0.58420306,0.7326481,10.898739,0.019497598,0.12826887,-0.05861802,-0.06702627241611481,0.0535515658557415,-1.9132963418960571,1003.2749,
