Time,X-cord,Y-cord,Mag_x,Mag_y,Mag_z,Acc_x,Acc_y,Acc_z,Gyro_x,Gyro_y,Gyro_z,Orn_x,Orn_y,Orn_z,Pressure,
2021.02.08 13:08:42,50.0,14.0,2.3251114,16.243639,-23.344625,-0.24304025,0.45287386,8.647407,0.1913226,0.04005315,-0.107118815,-0.05230264365673065,0.028098169714212418,-0.0953454002737999,1017.1394,
2021.02.08 13:08:42,50.0,14.0,1.3928757,15.921358,-23.866102,-0.05672236,0.4710959,10.161884,-0.1875366,-0.13651235,-0.009468329,-0.04632521793246269,0.005581816658377647,-0.0739186555147171,1017.14136,
2021.02.08 13:08:42,50.0,14.0,0.43723297,15.904125,-23.383295,0.1917798,0.5234144,9.5451975,-0.059274606,-0.11673759,0.023280771,-0.05476946383714676,-0.020089056342840195,-0.05279955640435219,1017.1438,
2021.02.08 13:08:42,50.0,14.0,1.4026337,17.480614,-23.52075,0.13031793,0.46445718,9.901934,-0.108925626,-0.043424778,-0.0098257335,-0.04686729609966278,-0.013160096481442451,-0.09197129309177399,1017.1441,
2021.02.08 13:08:42,50.0,14.0,1.6627121,17.609135,-22.367945,0.18371733,0.47118676,9.849411,-0.05251039,-0.039092273,-0.015417998,-0.04779433086514473,-0.01865045726299286,-0.11101095378398895,1017.1441,
2021.02.08 13:08:42,50.0,14.0,0.5388031,17.317387,-23.602682,0.042181794,0.40945247,9.859494,-0.0017752864,-0.0266168,-0.025546694,-0.041504520922899246,-0.004278265405446291,-0.03498116880655289,1017.1441,
2021.02.08 13:08:42,50.0,14.0,0.26672363,16.42471,-23.235136,0.1992988,0.4269854,9.943916,0.036051124,9.7790966E-5,-0.041422524,-0.04290439561009407,-0.020039601251482964,-0.04204532131552696,1017.1441,
2021.02.08 13:08:42,50.0,14.0,0.8588791,17.365955,-23.849382,0.06004547,0.43296292,9.7771,0.045405753,-0.014472337,-0.021313509,-0.044253624975681305,-0.0061413622461259365,-0.05457202345132828,1017.1441,
2021.02.08 13:08:42,50.0,14.0,0.22268677,16.110361,-24.660696,0.17356527,0.47509065,9.809653,0.02846493,-0.009249104,-0.007596842,-0.048385556787252426,-0.017691468819975853,-0.03810451924800873,1017.1441,
2021.02.08 13:08:42,50.0,14.0,1.7444382,16.863253,-23.526388,0.15427388,0.47157452,9.767341,0.030503,0.0037899544,-0.0028366013,-0.04823727905750275,-0.015793556347489357,-0.117156982421875,1017.1441,
2021.02.08 13:08:42,50.0,14.0,0.34794617,16.398346,-23.33808,0.2130249,0.51586646,9.820586,0.042972416,0.017309725,-0.008343934,-0.05246853083372116,-0.021688267588615417,-0.048486582934856415,1017.1441,
2021.02.08 13:08:43,50.0,14.0,0.5405655,15.675602,-24.630106,0.14472784,0.46151856,9.537532,-4.7927233E-4,0.021952376,-0.013404535,-0.04834645241498947,-0.015173394232988358,-0.054212138056755066,1017.14404,
2021.02.08 13:08:43,50.0,14.0,1.3197708,16.205765,-23.494486,0.15158834,0.5395656,9.90137,0.014616782,0.002514698,-0.007480015,-0.054433826357126236,-0.015308638103306293,-0.09588991105556488,1017.14404,
2021.02.08 13:08:43,50.0,14.0,0.23812103,15.914967,-23.742086,0.099588715,0.53025013,9.635946,-0.0073241163,-0.002225511,-0.005133909,-0.05496996268630028,-0.010334758087992668,-0.028109371662139893,1017.1435,
2021.02.08 13:08:43,50.0,14.0,1.2686768,16.452179,-23.66981,0.120991975,0.5218597,9.792653,0.009421111,0.00448609,-0.010170363,-0.053236521780490875,-0.012354753911495209,-0.08802703768014908,1017.1435,
2021.02.08 13:08:43,50.0,14.0,0.7095337,15.377347,-22.833803,0.12318421,0.61245495,9.808796,0.0070588174,-0.02500796,-0.00941629,-0.062353502959012985,-0.012557885609567165,-0.0593360960483551,1017.1435,
2021.02.08 13:08:43,50.0,14.0,1.0460205,16.536446,-24.046907,0.095950894,0.6248396,9.796676,0.028164612,-0.01022518,-0.020497708,-0.06369145214557648,-0.009793916717171669,-0.07094481587409973,1017.1435,
2021.02.08 13:08:43,50.0,14.0,1.4202194,15.982578,-24.484632,0.13128215,0.647976,9.675206,0.008262668,0.0015486351,-0.021428932,-0.06686682999134064,-0.013568093068897724,-0.09933903068304062,1017.14355,
2021.02.08 13:08:43,50.0,14.0,0.3064499,15.235849,-22.448557,0.07621087,0.6864469,9.740451,0.0037563897,0.0022581662,-0.01850915,-0.0703553557395935,-0.007824002765119076,-0.028728138655424118,1017.14355,
2021.02.08 13:08:43,50.0,14.0,0.5365143,15.341177,-23.595648,0.108707964,0.64837646,9.732712,-0.003331907,0.021566145,-0.022397785,-0.06651585549116135,-0.01116887480020523,-0.047372426837682724,1017.14355,
2021.02.08 13:08:43,50.0,14.0,0.503685,15.694649,-24.735971,0.08884161,0.5911549,9.704005,-0.017081998,0.01350377,-0.017643426,-0.0608409158885479,-0.009154893457889557,-0.04249890148639679,1017.14355,
2021.02.08 13:08:43,50.0,14.0,0.030525208,16.002857,-22.52284,0.052596852,0.57987213,9.7818575,-0.008975011,0.020193055,-0.010838944,-0.059210218489170074,-0.005376928485929966,-0.008760550990700722,1017.14355,
2021.02.08 13:08:43,50.0,14.0,0.7554474,17.707733,-24.672132,0.05754139,0.5776906,9.698719,-0.013195862,0.002146616,0.00140219,-0.059492263942956924,-0.0059328158386051655,-0.047074127942323685,1017.14355,
2021.02.08 13:08:43,50.0,14.0,-0.285614,15.108953,-24.313948,0.11313981,0.59496427,9.787549,-0.0062190443,-0.015819885,9.5502776E-4,-0.06070912256836891,-0.011559050530195236,2.7512299129739404E-4,1017.14355,
2021.02.08 13:08:43,50.0,14.0,0.9145584,15.679144,-25.105997,0.080365635,0.5830057,9.893913,-0.008438387,-0.0061096516,-0.009147309,-0.058855704963207245,-0.008122555911540985,-0.0652058869600296,1017.14355,
2021.02.08 13:08:44,50.0,14.0,0.032699585,17.040745,-23.257616,0.1191015,0.5780528,9.5687685,0.045499027,-0.016001206,-0.0044228053,-0.06033237650990486,-0.01244625635445118,-0.017495542764663696,1017.1437,
2021.02.08 13:08:44,50.0,14.0,0.34255219,15.711693,-25.111616,-0.003648511,0.57921535,9.903396,0.024219748,-0.011766756,-0.015424688,-0.058419983834028244,3.684100811369717E-4,-0.019430778920650482,1017.1438,
2021.02.08 13:08:44,50.0,14.0,-1.0185547,15.75209,-24.14985,-0.0010115644,0.5662568,9.615264,-4.636154E-4,-0.02491609,0.0016832445,-0.05882350727915764,1.05204017017968E-4,0.05948757752776146,1017.14386,
2021.02.08 13:08:44,50.0,14.0,-0.89167786,16.649887,-24.480383,0.07912024,0.5783792,9.75454,8.598368E-4,-0.0065418505,-0.009851754,-0.05922204628586769,-0.008110941387712955,0.03833711892366409,1017.14386,
2021.02.08 13:08:44,50.0,14.0,-0.55400085,16.229038,-23.293943,0.08261823,0.6092722,9.661689,-0.018611936,-0.008958838,-0.0016306456,-0.0629749521613121,-0.008550908416509628,0.02008432149887085,1017.14404,
2021.02.08 13:08:44,50.0,14.0,0.8299866,16.824755,-22.634718,0.0808013,0.5825618,9.678067,0.0047294376,-0.018079896,0.005449279,-0.0601193867623806,-0.008348715491592884,-0.05606842786073685,1017.14404,
2021.02.08 13:08:44,50.0,14.0,-0.76532745,16.50899,-22.608152,0.18411939,0.59619737,9.808305,-0.010685447,-0.02284865,0.00980674,-0.06069958955049515,-0.018769580870866776,0.019093425944447517,1017.14404,
2021.02.08 13:08:44,50.0,14.0,1.0036621,16.06478,-23.883654,0.108571865,0.584148,9.8139925,0.0066401917,-0.021206897,0.00695666,-0.059448178857564926,-0.01106251496821642,-0.07250707596540451,1017.14404,
2021.02.08 13:08:44,50.0,14.0,-0.26779938,16.801613,-23.871527,0.11381503,0.570206,9.753413,0.0027560992,-0.019813046,0.0137399435,-0.058391768485307693,-0.01166872214525938,-5.924596334807575E-4,1017.14404,
2021.02.08 13:08:44,50.0,14.0,-0.60946655,15.693558,-23.734991,0.1846575,0.5657831,9.79015,0.014546133,-0.004237584,0.001146758,-0.05771660432219505,-0.018859323114156723,0.009494281373918056,1017.14404,
2021.02.08 13:08:44,50.0,14.0,0.58271027,16.753063,-23.77204,0.08305416,0.5886949,9.679482,-0.0054409597,0.0010066302,-0.0021036011,-0.060741785913705826,-0.0085802236571908,-0.04327937215566635,1017.14404,
2021.02.08 13:08:44,50.0,14.0,-0.9519577,16.653435,-24.176985,0.097711086,0.57869047,9.841648,0.01589306,0.0035469406,0.011431421,-0.05872964859008789,-0.00992799922823906,0.03943165764212608,1017.14404,
2021.02.08 13:08:44,50.0,14.0,-1.8722305,15.9262905,-24.104013,0.103355624,0.530621,9.617881,-0.022741443,0.018236827,0.011087257,-0.05511121079325676,-0.010745780542492867,0.09334541857242584,1017.14404,
2021.02.08 13:08:45,50.0,14.0,-1.542038,16.5836,-24.452158,0.13840458,0.59421486,9.856837,0.0012847382,0.014247415,0.005268381,-0.060205746442079544,-0.014040556736290455,0.06639381498098373,1017.14386,
2021.02.08 13:08:45,50.0,14.0,0.23498535,16.936943,-25.269873,0.13214763,0.5565886,9.677572,-0.01423962,0.009168172,-0.002196317,-0.05744460970163345,-0.013654190115630627,-0.03158034756779671,1017.14386,
2021.02.08 13:08:45,50.0,14.0,-0.50162506,17.140759,-23.469423,0.13234784,0.5904098,9.885483,0.016583094,-0.0060287416,9.5425034E-4,-0.05964874103665352,-0.013387301005423069,0.010123959742486477,1017.14386,
2021.02.08 13:08:45,50.0,14.0,0.39839935,17.766418,-24.22421,0.1528448,0.5515539,9.6756525,-0.008178375,0.0013604069,-0.009666642,-0.05693560093641281,-0.01579553261399269,-0.040832359343767166,1017.14386,
2021.02.08 13:08:45,50.0,14.0,0.64624023,17.555902,-24.574236,0.0982432,0.6070097,9.830108,0.012645809,-0.005616488,-0.0061996058,-0.06166867911815643,-0.009993779473006725,-0.046812135726213455,1017.14386,
2021.02.08 13:08:45,50.0,14.0,-0.37498474,16.910309,-23.82216,0.08974437,0.60419196,9.7972765,0.012792407,-0.00805716,-4.326111E-4,-0.06158880144357681,-0.009159877896308899,0.008545279502868652,1017.14404,
2021.02.08 13:08:45,50.0,14.0,-0.37796783,15.993189,-24.80245,0.10177433,0.58482736,9.680595,0.01295632,-0.008395029,0.00334737,-0.0603356696665287,-0.01051284372806549,0.0067128874361515045,1017.1441,
2021.02.08 13:08:45,50.0,14.0,0.7411423,16.517595,-23.705927,0.10530347,0.6082187,9.799621,0.0026438325,-0.0033940016,0.0061969142,-0.06198245659470558,-0.010745254345238209,-0.055409252643585205,1017.1444,
2021.02.08 13:08:45,50.0,14.0,0.13950348,16.774342,-23.8878,0.10527361,0.6141487,9.704556,0.005153613,-0.0013921524,0.009999058,-0.0631965845823288,-0.010847428813576698,-0.021839091554284096,1017.1449,
2021.02.08 13:08:45,50.0,14.0,-0.52349854,16.872866,-23.692282,0.09218802,0.61273175,9.741984,-0.0077342708,0.004224208,0.00885121,-0.06281044334173203,-0.00946267880499363,0.016328897327184677,1017.1449,
2021.02.08 13:08:45,50.0,14.0,0.6319046,16.58587,-23.78377,0.17634241,0.64546484,9.775033,-0.009386272,0.0022789263,0.0065174177,-0.06592556834220886,-0.018038125708699226,-0.058489907532930374,1017.1449,
2021.02.08 13:08:45,50.0,14.0,-0.0048980713,16.656519,-23.803537,0.15336172,0.6201884,9.815234,0.014875422,-0.009667449,0.0023797767,-0.06309474259614944,-0.015623594634234905,-0.020245669409632683,1017.1451,
2021.02.08 13:08:45,50.0,14.0,0.6623535,16.359509,-24.775988,0.15368257,0.61770123,9.691833,-0.0061563835,-0.014392637,-0.004075239,-0.06364013999700546,-0.015855586156249046,-0.05887157842516899,1017.14545,
2021.02.08 13:08:45,50.0,14.0,1.0464325,15.334942,-24.325403,0.0794672,0.61046505,9.694543,0.006518304,-0.008291975,-0.007882783,-0.06288482993841171,-0.008196922950446606,-0.07387520372867584,1017.1458,
2021.02.08 13:08:46,50.0,14.0,0.37165833,16.990541,-23.536612,0.15537557,0.6234807,9.78347,-0.010608251,-0.006550694,-0.0037493967,-0.06363390386104584,-0.015880102291703224,-0.04037190228700638,1017.1459,
2021.02.08 13:08:46,50.0,14.0,-0.29989624,16.25758,-24.61439,0.09064069,0.6167194,9.765546,-0.0020924183,-0.008887678,0.0019618678,-0.06306611746549606,-0.009281415492296219,0.004018178675323725,1017.1464,
2021.02.08 13:08:46,50.0,14.0,0.8129425,16.361994,-24.111383,0.12338325,0.60716933,9.756194,0.0011867665,-0.001212664,0.0045774775,-0.06214911863207817,-0.012645984068512917,-0.06261899322271347,1017.14655,
2021.02.08 13:08:46,50.0,14.0,-0.21726227,15.354048,-24.191767,0.11021597,0.5900416,9.77815,0.0041738823,-0.0048651937,0.0077238306,-0.06026596203446388,-0.011271181516349316,-0.003301818622276187,1017.14667,
2021.02.08 13:08:46,50.0,14.0,-1.3408661,16.153553,-23.440374,0.07571263,0.6124709,9.732284,0.001734184,3.8273516E-4,0.012888226,-0.06284710764884949,-0.007779377046972513,0.06574829667806625,1017.14667,
2021.02.08 13:08:46,50.0,14.0,0.5734558,16.66091,-24.285593,0.13911873,0.6163867,9.752406,-0.00444721,0.0018748175,0.012134515,-0.06311319023370743,-0.014264100231230259,-0.050609782338142395,1017.14667,
2021.02.08 13:08:46,50.0,14.0,-0.059379578,16.175537,-24.014269,0.123778485,0.606308,9.767712,0.014435457,-0.0038067955,0.015516513,-0.06198817119002342,-0.01267153024673462,-0.013889417983591557,1017.14667,
2021.02.08 13:08:46,50.0,14.0,-0.017745972,16.339165,-23.354345,0.16187511,0.65429014,9.840606,-0.00751054,0.005332614,0.014507852,-0.06638213247060776,-0.01644822768867016,-0.020519940182566643,1017.14667,
2021.02.08 13:08:46,50.0,14.0,0.5296707,16.913918,-25.084715,0.09607947,0.57175064,9.662197,0.0031760694,-0.0012906354,0.009525387,-0.0591021403670311,-0.009943525306880474,-0.042394474148750305,1017.14667,
2021.02.08 13:08:46,50.0,14.0,-0.7588577,15.846564,-24.0045,0.17926519,0.6420846,9.789678,0.004086974,0.0042203506,-8.694055E-4,-0.06548316776752472,-0.018309608101844788,0.018362056463956833,1017.14667,
2021.02.08 13:08:46,50.0,14.0,0.09642029,16.237846,-23.170492,0.13451958,0.60280555,9.686303,-5.068744E-4,-0.0013368782,-0.0055213664,-0.06214664503931999,-0.013886715285480022,-0.023693786934018135,1017.14667,
2021.02.08 13:08:46,50.0,14.0,0.7219391,15.900756,-24.210878,0.13243286,0.6550794,9.821506,0.0059366436,1.4622393E-4,-0.010305487,-0.06659379601478577,-0.01348314993083477,-0.05991408973932266,1017.14667,
2021.02.08 13:08:46,50.0,14.0,-0.21222687,14.72645,-23.223452,0.13949679,0.6167982,9.710202,-0.0030903402,4.9363077E-4,-0.015365498,-0.06342887878417969,-0.014365014620125294,-0.0075073931366205215,1017.14667,
2021.02.08 13:08:46,50.0,14.0,-0.8381882,16.231293,-24.414896,0.04801889,0.6365774,9.736129,4.0556584E-4,-0.0035622427,-0.0025537775,-0.06528928875923157,-0.004931991454213858,0.04032495990395546,1017.14667,
2021.02.08 13:08:47,50.0,14.0,-1.2115707,16.56946,-24.068483,0.05310032,0.64228076,9.712712,-0.0040141977,0.0042333645,-0.0021074405,-0.06603072583675385,-0.005467040464282036,0.059524428099393845,1017.14667,
2021.02.08 13:08:47,50.0,14.0,-1.0991135,16.978298,-23.867414,0.1484917,0.63714653,9.791474,-0.009074749,3.900046E-4,0.006584271,-0.06497250497341156,-0.01516424398869276,0.03983556479215622,1017.14655,
2021.02.08 13:08:47,50.0,14.0,-0.1823349,15.645997,-23.318914,0.07372407,0.6182082,9.749051,-0.003356671,0.008674135,3.0229986E-4,-0.06332554668188095,-0.007562035229057074,3.5066131385974586E-4,1017.1464,
2021.02.08 13:08:47,50.0,14.0,0.9535217,17.727768,-24.417883,0.113089435,0.62645894,9.816955,0.007714082,0.0010438703,0.0049794,-0.06372334808111191,-0.011519297957420349,-0.06406755745410919,1017.1464,
2021.02.08 13:08:47,50.0,14.0,-0.02773285,16.926111,-22.756079,0.09961474,0.6319503,9.698568,-0.0048364275,2.673564E-4,0.0038413063,-0.0650637298822403,-0.01027071475982666,-0.011212818324565887,1017.14557,
2021.02.08 13:08:47,50.0,14.0,0.67565155,15.998544,-24.601927,0.12026974,0.63091475,9.83635,0.013753944,-0.005013475,0.0034766353,-0.06404861807823181,-0.012226459570229053,-0.0556098148226738,1017.1455,
2021.02.08 13:08:47,50.0,14.0,0.54222107,16.794182,-23.774687,0.068945415,0.6099164,9.696141,4.36506E-4,8.490796E-4,0.0064604804,-0.06281865388154984,-0.007110483478754759,-0.03894617035984993,1017.1451,
2021.02.08 13:08:47,50.0,14.0,0.099861145,16.40317,-23.532282,0.13658845,0.60180765,9.704111,0.0052120565,-0.0029407516,0.013531944,-0.06193030998110771,-0.014074388891458511,-0.024173246696591377,1017.1449,
2021.02.08 13:08:47,50.0,14.0,-0.4117279,16.825315,-24.338427,0.07557276,0.62039274,9.783188,0.001505618,-0.004147061,0.007616557,-0.06332748383283615,-0.007724604569375515,0.01220279186964035,1017.1449,
2021.02.08 13:08:47,50.0,14.0,-0.40126038,16.93687,-23.781408,0.10800486,0.61021054,9.695962,-2.3465557E-4,0.0022781258,0.007484182,-0.06284772604703903,-0.01113869808614254,0.007411139085888863,1017.1449,
2021.02.08 13:08:47,50.0,14.0,-1.1630783,17.434313,-23.945429,0.07643036,0.6158672,9.7716055,-0.0108635295,0.0025896886,0.0031862601,-0.0629410371184349,-0.007821518927812576,0.05156382545828819,1017.1449,
2021.02.08 13:08:47,50.0,14.0,-0.19409943,16.844372,-23.603868,0.07860752,0.6284805,9.781692,-0.00438422,0.0068430463,9.522422E-4,-0.06416043639183044,-0.00803601648658514,2.4090497754514217E-4,1017.1438,
2021.02.08 13:08:47,50.0,14.0,-0.090904236,17.106024,-23.749964,0.08550545,0.61594546,9.749713,-0.0037102741,0.0076856986,1.6272312E-4,-0.06308948248624802,-0.008769823238253593,-0.006321057211607695,1017.14246,
2021.02.08 13:08:48,50.0,14.0,-0.23590851,17.09367,-23.293852,0.06325256,0.6153746,9.787066,0.00643024,0.0039310013,2.3343065E-4,-0.0627923384308815,-0.00646278215572238,0.004608682822436094,1017.1415,
2021.02.08 13:08:48,50.0,14.0,1.254364,16.010117,-23.186186,0.071884945,0.60638905,9.746915,-7.0869294E-4,0.0027171173,3.6914018E-4,-0.062131669372320175,-0.007375014945864677,-0.08164745569229126,1017.1379,
2021.02.08 13:08:48,50.0,14.0,0.46411896,16.297188,-24.354223,0.016659563,0.60597557,9.723239,-5.165129E-4,-0.002009556,0.006706641,-0.0622418075799942,-0.00171337416395545,-0.02844189666211605,1017.13684,
2021.02.08 13:08:48,50.0,14.0,0.606781,15.637011,-23.904459,0.058934987,0.60546064,9.762078,-0.00513895,-0.0015550952,0.00498903,-0.061941225081682205,-0.006037062034010887,-0.04392934963107109,1017.1352,
2021.02.08 13:08:48,50.0,14.0,0.032470703,16.363108,-24.002707,0.054496814,0.60906696,9.757835,-0.0016706039,5.201439E-4,0.0055818474,-0.062336403876543045,-0.0055848704650998116,-0.009340927004814148,1017.13434,
2021.02.08 13:08:48,50.0,14.0,-0.11038971,16.767117,-24.221025,0.036750223,0.60864633,9.7456255,-0.010531191,0.0010520727,0.0021065576,-0.06237183138728142,-0.0037709276657551527,0.0010443504434078932,1017.1337,
2021.02.08 13:08:48,50.0,14.0,0.41695404,17.316948,-24.120653,0.057130504,0.61898476,9.76069,-0.008223917,0.0039209286,-0.0016644583,-0.06333019584417343,-0.005853054579347372,-0.029665257781744003,1017.1325,
2021.02.08 13:08:48,50.0,14.0,0.94699097,16.648869,-23.184092,0.03820083,0.60386866,9.718117,-0.0064850766,0.00137082,7.5442484E-4,-0.06205817684531212,-0.003930868115276098,-0.05743609368801117,1017.1297,
2021.02.08 13:08:48,50.0,14.0,0.5457535,15.910734,-23.793783,0.03934544,0.57186455,9.86417,-0.036057644,0.002097398,0.0043879026,-0.057908639311790466,-0.00398870138451457,-0.03709868714213371,1017.1297,
2021.02.08 13:08:48,50.0,14.0,0.34953308,16.665344,-24.329622,0.046028685,0.5776264,9.686755,0.012453673,0.0043539694,0.0018649958,-0.05955933779478073,-0.0047516776248812675,-0.02571532130241394,1017.12756,
2021.02.08 13:08:48,50.0,14.0,0.18610382,16.339458,-23.446295,-0.051055625,0.58417636,9.788409,-0.022985969,0.0132731255,-0.0011853611,-0.05960890278220177,0.005215879529714584,-0.0036035238299518824,1017.1246,
2021.02.08 13:08:48,50.0,14.0,0.56124115,16.23296,-22.695852,0.042145472,0.54501706,9.824722,0.012619974,0.0043557137,0.008828267,-0.05541673302650452,-0.004289710428565741,-0.037691567093133926,1017.1227,
2021.02.08 13:08:48,50.0,14.0,0.88051605,17.237,-23.967306,0.06049208,0.5893755,9.67014,0.0040438566,0.0034340217,0.0054262974,-0.06087149679660797,-0.006255471613258123,-0.05515693128108978,1017.1222,
2021.02.08 13:08:48,50.0,14.0,0.29847717,16.350994,-23.94938,0.005772421,0.5479776,9.757537,-0.01896236,-0.0018870111,0.0028198338,-0.05610048025846481,-5.915858200751245E-4,-0.017693592235445976,1017.12036,
2021.02.08 13:08:49,50.0,14.0,0.10897827,15.970676,-24.387365,0.030513117,0.59083486,9.793124,-0.0069113877,0.0013026467,-0.0023182363,-0.06025826930999756,-0.003115759463980794,-0.010623347014188766,1017.118,
2021.02.08 13:08:49,50.0,14.0,-0.30010223,18.005484,-23.84733,0.05367021,0.54022217,9.742591,-0.001961324,0.0030885313,-0.0072572986,-0.05539197474718094,-0.005508767440915108,0.00874301977455616,1017.1136,
