Time,X-cord,Y-cord,Mag_x,Mag_y,Mag_z,Acc_x,Acc_y,Acc_z,Gyro_x,Gyro_y,Gyro_z,Orn_x,Orn_y,Orn_z,Pressure,
2021.02.08 13:05:04,48.0,13.0,8.343369,-30.005634,-29.13172,0.30767566,0.56492317,10.209645,0.06922864,0.03518696,0.028590068,-0.05525090545415878,-0.0301266647875309,-2.8274171352386475,1016.56085,
2021.02.08 13:05:05,48.0,13.0,9.9986725,-28.903282,-30.003107,0.20112832,0.4841788,9.438042,-0.07824468,-0.066197135,0.04277282,-0.05124422535300255,-0.021307162940502167,-2.770590305328369,1016.6272,
2021.02.08 13:05:05,48.0,13.0,7.7233734,-30.300106,-30.48392,0.3296087,0.58297145,10.2159815,0.019343462,-0.06223902,0.04022532,-0.056973252445459366,-0.03225284069776535,-2.845533609390259,1016.6321,
2021.02.08 13:05:05,48.0,13.0,7.982338,-29.23882,-28.947,0.264922,0.3319548,9.896007,0.17115104,-0.05583294,0.044725884,-0.03351974859833717,-0.02676420286297798,-2.841193675994873,1016.6321,
2021.02.08 13:05:05,48.0,13.0,8.601402,-28.6678,-28.875967,0.36643544,0.6536334,9.242575,0.106975734,0.012654425,0.034521393,-0.07054705917835236,-0.03962571546435356,-2.7904751300811768,1016.64233,
2021.02.08 13:05:05,48.0,13.0,8.924652,-28.901886,-29.46557,0.24502935,0.78515196,10.284339,-0.14804983,0.009147553,0.024651384,-0.07617508620023727,-0.02382097765803337,-2.7943520545959473,1016.647,
2021.02.08 13:05:05,48.0,13.0,6.5270233,-30.229355,-28.289404,0.26075166,0.5175303,9.37848,-0.093498245,-0.040605243,0.060098697,-0.05510558560490608,-0.027796030044555664,-2.8916327953338623,1016.6544,
2021.02.08 13:05:05,48.0,13.0,6.73806,-28.82581,-29.246744,0.28374588,0.4368035,10.056485,-0.068154946,0.0033313243,0.02266644,-0.04339047521352768,-0.028207730501890182,-2.8736624717712402,1016.6549,
2021.02.08 13:05:05,48.0,13.0,8.006073,-28.670982,-29.77545,0.21164332,0.56254244,9.908832,0.056353543,0.067902595,0.023118675,-0.05669804662466049,-0.02135581150650978,-2.8313236236572266,1016.655,
2021.02.08 13:05:05,48.0,13.0,7.8433304,-29.010899,-29.033949,0.16353562,0.45090088,9.808158,0.05560914,0.06756622,0.016573533,-0.045933302491903305,-0.016671884804964066,-2.8491320610046387,1016.6572,
2021.02.08 13:05:05,48.0,13.0,8.855072,-28.944084,-30.734228,0.08562902,0.5158202,9.692212,0.02032291,0.024981072,0.034797516,-0.05316783860325813,-0.00883459858596325,-2.8186914920806885,1016.6573,
2021.02.08 13:05:05,48.0,13.0,8.390846,-28.823895,-29.13838,0.18776995,0.5101002,9.600032,0.09656636,0.050202627,-0.00724683,-0.05307520553469658,-0.019556811079382896,-2.823914051055908,1016.6575,
2021.02.08 13:05:05,48.0,13.0,9.2790985,-29.412373,-28.827917,0.079939835,0.48585978,9.729641,0.054596912,0.039110858,-0.049068533,-0.04989292100071907,-0.008215929381549358,-2.8133606910705566,1016.6584,
2021.02.08 13:05:06,48.0,13.0,9.077751,-30.503296,-29.958044,0.09855354,0.53356814,9.613921,0.03900263,0.025243722,-0.052048888,-0.055439744144678116,-0.010250769555568695,-2.826612949371338,1016.66,
2021.02.08 13:05:06,48.0,13.0,7.901787,-29.315777,-27.733114,0.11727045,0.5753777,9.7755575,0.015787948,0.016296241,-0.066242844,-0.05878676846623421,-0.011995716951787472,-2.8520798683166504,1016.6608,
2021.02.08 13:05:06,48.0,13.0,9.264679,-30.109665,-28.35209,0.035576522,0.57814693,9.645705,-0.0070735305,-8.820945E-5,-0.09543122,-0.059866245836019516,-0.0036883109714835882,-2.8225302696228027,1016.6615,
2021.02.08 13:05:06,48.0,13.0,8.979523,-29.580112,-28.077925,-0.063953705,0.595347,9.7268,-0.025546055,-0.011418865,-0.0837899,-0.061129290610551834,0.0065749045461416245,-2.8352596759796143,1016.6615,
2021.02.08 13:05:06,48.0,13.0,8.932968,-29.336494,-28.84609,-0.058740646,0.6377029,9.807073,-0.009442976,-0.014245558,-0.06429939,-0.06493221968412399,0.005989549215883017,-2.832148313522339,1016.66187,
2021.02.08 13:05:06,48.0,13.0,9.871307,-29.617722,-28.79923,-0.09426222,0.6158301,9.699812,-0.022031827,-0.0034027274,-0.051389433,-0.06340079009532928,0.009717637673020363,-2.8085741996765137,1016.6622,
2021.02.08 13:05:06,48.0,13.0,9.303658,-29.040024,-28.908594,-0.042847183,0.67212456,9.740345,-0.03401982,-7.4873155E-4,-0.043407675,-0.06889430433511734,0.004398910328745842,-2.8137283325195312,1016.66254,
2021.02.08 13:05:06,48.0,13.0,9.787727,-27.72303,-29.28663,-0.105655484,0.5887967,9.586925,0.015962945,-0.009518673,-0.031736113,-0.061335884034633636,0.011020343750715256,-2.790863037109375,1016.66327,
2021.02.08 13:05:06,48.0,13.0,10.993904,-28.867355,-29.250505,-0.048007194,0.63023764,9.837848,-0.014895229,0.006925885,-0.006827492,-0.06397437304258347,0.004879808519035578,-2.7586216926574707,1016.6641,
2021.02.08 13:05:06,48.0,13.0,10.291725,-26.878399,-29.730536,0.030068485,0.5951578,9.734483,-0.0021296293,-0.0049354634,0.013080703,-0.061062831431627274,-0.003088853321969509,-2.7481579780578613,1016.6641,
2021.02.08 13:05:06,48.0,13.0,9.304268,-29.514706,-29.432344,-0.05193883,0.6032565,9.835362,0.00684203,-0.016777422,0.029593209,-0.061257872730493546,0.005280776415020227,-2.8221044540405273,1016.6641,
2021.02.08 13:05:06,48.0,13.0,9.764389,-28.847908,-28.849184,0.09394727,0.5930886,9.7336445,0.017036377,-0.0032444426,0.022273092,-0.0608537495136261,-0.009651508182287216,-2.7860615253448486,1016.6641,
2021.02.08 13:05:06,48.0,13.0,9.168114,-29.388622,-28.964018,0.0116355615,0.5612197,9.796527,0.026810713,-0.018251184,0.034992848,-0.05722503364086151,-0.0011877225479111075,-2.8206772804260254,1016.6641,
2021.02.08 13:05:06,48.0,13.0,9.958527,-29.979717,-28.924044,0.10651612,0.61011297,9.758731,0.01279428,-0.0024922434,0.024319429,-0.06243472918868065,-0.010914523154497147,-2.7913498878479004,1016.6641,
2021.02.08 13:05:07,48.0,13.0,8.504448,-29.838768,-29.27027,0.11259383,0.57307726,9.693683,0.01077157,-0.00721276,0.01517033,-0.05904592201113701,-0.011614654213190079,-2.836327314376831,1016.6641,
2021.02.08 13:05:07,48.0,13.0,9.470345,-29.143787,-28.718462,0.107854046,0.6066888,9.716573,0.008968297,-0.004120161,0.0127268825,-0.06235377490520477,-0.011099553667008877,-2.797367572784424,1016.66437,
2021.02.08 13:05:07,48.0,13.0,9.683823,-29.564175,-28.20162,0.16209768,0.60064816,9.811272,-0.0069516893,-0.009104048,0.004464806,-0.06113557517528534,-0.016520073637366295,-2.7915267944335938,1016.66437,
2021.02.08 13:05:07,48.0,13.0,8.619659,-28.985855,-28.32783,0.1044538,0.5863417,9.70158,0.010031342,-0.011954458,-0.0030968103,-0.06036083400249481,-0.010766263119876385,-2.8248908519744873,1016.66486,
2021.02.08 13:05:07,48.0,13.0,9.831436,-30.052967,-28.424795,0.06091856,0.585602,9.794951,0.008577922,-0.016121048,0.0034730034,-0.05971387028694153,-0.006219303235411644,-2.801753044128418,1016.66486,
2021.02.08 13:05:07,48.0,13.0,9.208427,-29.655724,-27.994387,0.12202531,0.5921131,9.744704,0.012434414,-0.009448058,0.0011575364,-0.06068319082260132,-0.012521563097834587,-2.8116509914398193,1016.6658,
2021.02.08 13:05:07,48.0,13.0,9.171593,-30.275349,-28.977716,0.08862329,0.56585217,9.706643,0.0021773414,-0.012641644,0.0030638268,-0.05822703242301941,-0.00912991538643837,-2.822317600250244,1016.66583,
2021.02.08 13:05:07,48.0,13.0,9.032249,-29.733612,-29.359858,0.12574066,0.6018116,9.78201,0.004424521,-0.006957717,0.0032208771,-0.06143977493047714,-0.01285356841981411,-2.8161394596099854,1016.6659,
2021.02.08 13:05:07,48.0,13.0,10.080109,-28.843067,-28.573217,0.08199767,0.5710099,9.698927,-0.005261523,-0.015244155,0.0113038905,-0.05880352854728699,-0.008454102091491222,-2.777927875518799,1016.6661,
2021.02.08 13:05:07,48.0,13.0,9.37529,-29.94889,-28.57942,0.10705814,0.57300884,9.737637,9.169339E-4,-0.011191708,0.014649941,-0.058773428201675415,-0.010993820615112782,-2.810917615890503,1016.6659,
2021.02.08 13:05:07,48.0,13.0,9.010094,-29.803082,-29.873571,0.16436505,0.58435833,9.746238,0.012177106,-0.020660099,0.025671374,-0.05987713858485222,-0.016862861812114716,-2.8137807846069336,1016.6659,
2021.02.08 13:05:07,48.0,13.0,8.167709,-30.31034,-29.267813,0.17977725,0.5558989,9.671693,-0.0024575088,-0.0031407983,0.01158336,-0.05740383267402649,-0.018585840240120888,-2.8458683490753174,1016.66583,
2021.02.08 13:05:07,48.0,13.0,9.965904,-29.645832,-29.090261,0.17699498,0.5624644,9.812495,-0.019770086,-0.0016173072,0.0027349,-0.0572492890059948,-0.018035758286714554,-2.7825028896331787,1016.6658,
2021.02.08 13:05:07,48.0,13.0,9.21257,-29.404167,-29.54849,0.113908164,0.5590272,9.752319,-0.011177888,0.007998402,-0.008765413,-0.057255931198596954,-0.011679578572511673,-2.80904221534729,1016.6658,
2021.02.08 13:05:08,48.0,13.0,8.952301,-29.435284,-28.599081,0.13205741,0.54285717,9.782166,-0.0048336047,0.0020699245,-0.0032772725,-0.05543266981840134,-0.013498993590474129,-2.8176841735839844,1016.6658,
2021.02.08 13:05:08,48.0,13.0,8.423691,-29.711182,-28.873873,0.1330686,0.5384731,9.706368,-0.008503731,0.008782941,-0.0067453347,-0.055414266884326935,-0.013708554208278656,-2.8372182846069336,1016.6658,
2021.02.08 13:05:08,48.0,13.0,8.461235,-29.145336,-28.9975,0.10930752,0.5378507,9.765538,-0.012020405,0.007206449,-0.006528384,-0.055017367005348206,-0.011192722246050835,-2.8325023651123047,1016.6658,
2021.02.08 13:05:08,48.0,13.0,9.24984,-28.411549,-28.188856,0.07298713,0.5260432,9.691593,0.004226342,0.00810429,-0.0015637564,-0.05422355234622955,-0.007530831731855869,-2.8027355670928955,1016.66473,
2021.02.08 13:05:08,48.0,13.0,8.088066,-29.096592,-28.906664,0.13976856,0.5441072,9.827956,-0.013862029,-2.0419201E-4,0.004496701,-0.05530116707086563,-0.014220570214092731,-2.841470956802368,1016.6646,
2021.02.08 13:05:08,48.0,13.0,9.018768,-30.306332,-28.7666,0.087300606,0.51959914,9.71337,-0.004285377,0.0019376908,0.01006088,-0.053440093994140625,-0.008987431414425373,-2.8292696475982666,1016.6645,
2021.02.08 13:05:08,48.0,13.0,8.648888,-29.663208,-29.865637,0.098622054,0.5396965,9.783547,0.0051722247,0.004473153,0.01635835,-0.05510503798723221,-0.010080057196319103,-2.8320038318634033,1016.6646,
2021.02.08 13:05:08,48.0,13.0,8.841248,-29.291924,-28.15011,0.12011253,0.5417683,9.705719,-0.0073034796,-0.0015058474,0.012673076,-0.05575736612081528,-0.01237480714917183,-2.8211116790771484,1016.66473,
2021.02.08 13:05:08,48.0,13.0,7.8309402,-29.448444,-28.903307,0.1203633,0.54023594,9.84305,0.013795629,-0.002849584,0.007312152,-0.054825909435749054,-0.01222764328122139,-2.8555500507354736,1016.66486,
2021.02.08 13:05:08,48.0,13.0,9.376213,-28.928913,-29.718077,0.14685895,0.5206323,9.67427,-0.010494618,0.006600329,-0.0028830506,-0.05375814810395241,-0.015179199166595936,-2.7960731983184814,1016.6658,
2021.02.08 13:05:08,48.0,13.0,9.226036,-28.945812,-29.4782,0.13647994,0.5294715,9.849715,0.016617598,-0.003571854,-0.00947954,-0.05369817465543747,-0.01385534554719925,-2.8026885986328125,1016.6658,
2021.02.08 13:05:08,48.0,13.0,8.948723,-28.958344,-28.908392,0.12961894,0.54712105,9.809119,-0.0053411373,-0.0046586716,-0.012742596,-0.055714190006256104,-0.013213357888162136,-2.8123981952667236,1016.6661,
2021.02.08 13:05:08,48.0,13.0,8.186096,-29.563686,-29.441896,0.08138674,0.5249471,9.706697,0.0044540754,0.005047135,-0.023525398,-0.05402638763189316,-0.008384399116039276,-2.8484182357788086,1016.6661,
2021.02.08 13:05:09,48.0,13.0,9.442589,-28.706516,-28.824915,0.10094731,0.51568455,9.722031,-0.020320958,0.01603217,-0.025199154,-0.052990369498729706,-0.010382982902228832,-2.7970404624938965,1016.6661,
2021.02.08 13:05:09,48.0,13.0,7.532692,-29.489388,-29.241411,0.08460014,0.52217555,9.736881,-0.02742975,0.02259673,-0.02869574,-0.05357528477907181,-0.008688409812748432,-2.8692915439605713,1016.6661,
2021.02.08 13:05:09,48.0,13.0,8.77317,-28.81807,-28.71404,0.023967812,0.53014237,9.824527,-0.011935888,0.008254905,-0.015293816,-0.05390866845846176,-0.0024395848158746958,-2.827580451965332,1016.6661,
2021.02.08 13:05:09,48.0,13.0,9.059296,-29.477295,-28.317839,0.054507297,0.50945514,9.794245,0.012257313,-6.344905E-4,-0.0030925404,-0.051968127489089966,-0.005565179977566004,-2.8232669830322266,1016.6661,
2021.02.08 13:05:09,48.0,13.0,8.898842,-27.760609,-29.546515,0.062408555,0.4822143,9.718129,0.0032234523,-0.00496717,-0.0037628035,-0.04957839101552963,-0.0064217811450362206,-2.8084628582000732,1016.6661,
2021.02.08 13:05:09,48.0,13.0,8.962044,-27.711952,-28.945345,0.07203508,0.5025576,9.755141,4.0468713E-4,-0.0064558876,-0.0069023985,-0.051470302045345306,-0.007384185213595629,-2.804605007171631,1016.6661,
2021.02.08 13:05:09,48.0,13.0,10.404259,-29.019783,-28.769,0.07162521,0.48416153,9.715896,0.017740687,-0.009136316,-0.0016602383,-0.04978935793042183,-0.007371827960014343,-2.7738614082336426,1016.6661,
2021.02.08 13:05:09,48.0,13.0,8.668892,-29.273926,-29.562872,0.09797946,0.5207632,9.757422,-0.0011961223,-0.00486267,0.002248846,-0.053317710757255554,-0.010041194036602974,-2.828169107437134,1016.6666,
2021.02.08 13:05:09,48.0,13.0,9.084663,-28.350918,-28.027033,0.06936095,0.48728874,9.716332,0.013254462,-0.008186782,2.7967594E-4,-0.050108253955841064,-0.007138472516089678,-2.8094160556793213,1016.6666,
2021.02.08 13:05:09,48.0,13.0,9.255447,-28.404366,-28.719236,0.07606918,0.50959283,9.773601,0.009813077,-0.011167697,0.0085575115,-0.052090976387262344,-0.007782971020787954,-2.8025104999542236,1016.66705,
2021.02.08 13:05:09,48.0,13.0,9.148636,-29.02026,-29.127748,0.06704971,0.5104535,9.733699,-8.629635E-4,-0.024685908,0.01653014,-0.05239264667034149,-0.006888301577419043,-2.8134231567382812,1016.66705,
2021.02.08 13:05:09,48.0,13.0,9.968086,-28.976234,-28.619059,0.109208114,0.50503165,9.774517,0.00957365,-0.011234789,0.015428584,-0.05161907523870468,-0.011172272264957428,-2.7832329273223877,1016.6671,
2021.02.08 13:05:09,48.0,13.0,9.467865,-28.939735,-30.907915,0.11852187,0.5175676,9.802736,-0.009983966,-0.010262561,0.010981308,-0.05274545028805733,-0.012090103700757027,-2.795341730117798,1016.6673,
2021.02.08 13:05:10,48.0,13.0,9.678406,-28.996704,-29.41382,0.11727604,0.4854745,9.714283,3.2566022E-4,2.5812638E-4,0.005573039,-0.0499301552772522,-0.012071950361132622,-2.7917516231536865,1016.6673,
2021.02.08 13:05:10,48.0,13.0,9.673431,-28.152115,-29.321138,0.11836108,0.48964944,9.762212,-0.0015816838,0.00280148,0.004319839,-0.050111956894397736,-0.012123818509280682,-2.7817392349243164,1016.6672,
2021.02.08 13:05:10,48.0,13.0,9.410767,-28.233948,-28.77329,0.12007803,0.49090755,9.758027,-0.013283106,0.011875222,0.0019682008,-0.05026189610362053,-0.012304943054914474,-2.791710138320923,1016.66766,
2021.02.08 13:05:10,48.0,13.0,9.210175,-28.869114,-29.094889,0.14782459,0.48248386,9.789552,-0.0011443426,0.00196994,0.0023033381,-0.04924014210700989,-0.015099093317985535,-2.8031234741210938,1016.6678,
2021.02.08 13:05:10,48.0,13.0,9.975861,-29.093777,-28.537497,0.098541945,0.47524223,9.747748,-0.001958088,0.007686016,-0.010061771,-0.048712994903326035,-0.010108856484293938,-2.7864434719085693,1016.66785,
2021.02.08 13:05:10,48.0,13.0,8.672478,-29.530846,-28.785192,0.11764071,0.47187117,9.78786,0.008921598,0.0034839746,-0.013555916,-0.04816907271742821,-0.012018464505672455,-2.8312196731567383,1016.66815,
2021.02.08 13:05:10,48.0,13.0,10.110367,-28.798103,-27.385416,0.077895135,0.44403052,9.678206,-0.011210859,0.010059443,-0.012749553,-0.045845795422792435,-0.008048336021602154,-2.7824480533599854,1016.6686,
2021.02.08 13:05:10,48.0,13.0,8.603523,-28.742237,-28.522379,0.07750779,0.48803762,9.834301,0.0035169404,0.001821285,-0.009006532,-0.04958384111523628,-0.007881208322942257,-2.828798294067383,1016.66864,
2021.02.08 13:05:10,48.0,13.0,8.996559,-28.725143,-29.566141,0.083851874,0.47185382,9.841811,-0.01363159,0.0014745902,-9.4387727E-4,-0.04790537804365158,-0.00851975753903389,-2.814744710922241,1016.6687,
2021.02.08 13:05:10,48.0,13.0,10.701355,-28.380245,-29.40071,0.034409143,0.45339218,9.708108,-0.002126337,0.0056715608,-6.9420005E-4,-0.04666822403669357,-0.0035443566739559174,-2.7606494426727295,1016.6688,
2021.02.08 13:05:10,48.0,13.0,8.334961,-29.475529,-28.385767,0.07219917,0.44490626,9.801692,-0.004743757,1.8615281E-4,0.008106602,-0.04535839706659317,-0.007365857716649771,-2.8470263481140137,1016.6688,
2021.02.08 13:05:10,48.0,13.0,8.43615,-28.363617,-29.229109,0.08612415,0.443187,9.737011,-0.0033625434,0.0013077275,0.0074008615,-0.04548254609107971,-0.008844799362123013,-2.830159902572632,1016.669,
2021.02.08 13:05:10,48.0,13.0,8.848137,-28.16595,-29.849031,0.0916022,0.43689275,9.770722,-0.0035789753,0.0014827877,0.0062838155,-0.04468275234103203,-0.009374896064400673,-2.8134279251098633,1016.669,
2021.02.08 13:05:10,48.0,13.0,8.704697,-28.428894,-29.489199,0.055079315,0.44413278,9.762059,-0.0029224893,0.003974431,7.714587E-4,-0.04546373337507248,-0.005642122123390436,-2.824824810028076,1016.6691,
2021.02.08 13:05:11,48.0,13.0,8.4381485,-29.05413,-28.680227,0.08426642,0.43126908,9.77246,0.0023313696,8.739111E-4,0.004239718,-0.0441008135676384,-0.008622631430625916,-2.838423728942871,1016.6694,
2021.02.08 13:05:11,48.0,13.0,8.62896,-28.582325,-29.142385,0.081094556,0.4490354,9.7731695,0.0023534382,-0.0044456655,0.0032756336,-0.04591186344623566,-0.008297481574118137,-2.826543092727661,1016.6701,
2021.02.08 13:05:11,48.0,13.0,9.086372,-28.481506,-29.415945,0.073997386,0.42538473,9.709461,0.012503944,-3.353518E-4,-8.763774E-4,-0.04378209635615349,-0.0076210154220461845,-2.81146240234375,1016.6703,
2021.02.08 13:05:11,48.0,13.0,8.648544,-28.673351,-29.93196,0.057282437,0.46847758,9.825753,-0.0032871366,0.0035731168,-0.0023121308,-0.04764164984226227,-0.00582976033911109,-2.8281214237213135,1016.6703,
2021.02.08 13:05:11,48.0,13.0,9.559563,-28.52987,-28.489603,0.06691389,0.4105362,9.6904335,-9.339624E-4,0.0028874003,-0.0016146157,-0.042338769882917404,-0.006905039772391319,-2.798386812210083,1016.67065,
2021.02.08 13:05:11,48.0,13.0,8.660316,-28.354115,-28.018492,0.070031576,0.46209112,9.786269,0.0034264764,0.003479783,-0.0021696582,-0.04718206450343132,-0.007155983708798885,-2.824540615081787,1016.67084,
2021.02.08 13:05:11,48.0,13.0,8.0467,-29.731045,-28.367514,0.04804377,0.41684365,9.735602,7.0326123E-4,2.9712694E-4,0.0020662649,-0.0427897647023201,-0.004934812895953655,-2.8618011474609375,1016.6715,
2021.02.08 13:05:11,48.0,13.0,8.31321,-29.535572,-28.836504,0.05237733,0.41416132,9.74529,8.724886E-4,-0.003725829,0.001101334,-0.04247244447469711,-0.005374578293412924,-2.850715398788452,1016.672,
2021.02.08 13:05:11,48.0,13.0,11.171936,-28.186275,-28.289286,0.05344695,0.43667853,9.749803,7.4865064E-4,-8.502983E-4,0.0032148398,-0.044757865369319916,-0.005481794476509094,-2.742987871170044,1016.67615,
2021.02.08 13:05:11,48.0,13.0,9.562447,-27.768372,-29.026072,0.032000147,0.41093934,9.759288,-0.0032481859,-0.004252636,0.003110565,-0.04208242520689964,-0.003278931137174368,-2.7924060821533203,1016.67615,
2021.02.08 13:05:11,48.0,13.0,8.985458,-27.464748,-29.567133,0.073590554,0.42639455,9.775088,0.0018176651,-0.0020120859,0.0041773277,-0.04359166696667671,-0.007528235204517841,-2.8030734062194824,1016.67615,
2021.02.08 13:05:11,48.0,13.0,8.271629,-27.32407,-29.53634,0.036583465,0.3947278,9.742134,0.0010287119,-0.0023897658,0.0050951834,-0.04049515351653099,-0.003755162237212062,-2.8309106826782227,1016.67615,
2021.02.08 13:05:11,48.0,13.0,9.442947,-28.498295,-29.370459,0.07023206,0.41572225,9.719294,-0.013505953,0.0029388918,-0.0013026199,-0.042745720595121384,-0.00722592044621706,-2.800738573074341,1016.67615,
2021.02.08 13:05:11,48.0,13.0,9.541138,-27.297535,-29.07992,0.027527848,0.42777142,9.809264,0.0014360631,0.007526433,0.0044895723,-0.04358113557100296,-0.0028063037898391485,-2.7871944904327393,1016.67615,
2021.02.08 13:05:12,48.0,13.0,9.766846,-28.16359,-28.997015,0.03585458,0.4024357,9.868779,-0.035968706,0.0070001055,0.007344467,-0.040755823254585266,-0.003633116604760289,-2.7905819416046143,1016.67615,
2021.02.08 13:05:12,48.0,13.0,9.535446,-28.28135,-29.49397,0.018127574,0.37396154,9.693844,0.01446036,0.017522164,0.0096736355,-0.038558028638362885,-0.0018700065556913614,-2.8017303943634033,1016.67615,
2021.02.08 13:05:12,48.0,13.0,9.076469,-28.15646,-28.540373,0.020252785,0.37557542,9.790528,-0.009004113,0.013539802,3.4952653E-5,-0.03834221884608269,-0.0020686069037765265,-2.8158092498779297,1016.6771,
