Time,X-cord,Y-cord,Mag_x,Mag_y,Mag_z,Acc_x,Acc_y,Acc_z,Gyro_x,Gyro_y,Gyro_z,Orn_x,Orn_y,Orn_z,Pressure,
2021.02.08 13:07:13,48.0,18.0,5.64032,-23.765633,-25.79304,0.13068485,0.51967496,10.105325,-0.0088843135,0.11056262,0.034495234,-0.051376305520534515,-0.01293155550956726,-2.881138801574707,1016.89105,
2021.02.08 13:07:13,48.0,18.0,7.2511826,-23.922935,-24.80263,-0.03195685,0.6380643,9.90816,0.06619046,0.061615326,0.020478401,-0.06430872529745102,0.0032252948731184006,-2.8301734924316406,1016.89307,
2021.02.08 13:07:13,48.0,18.0,7.467415,-24.220364,-25.458075,-0.078697525,0.4797552,9.521469,-0.06587629,-0.075372644,0.05957159,-0.0503423847258091,0.008265082724392414,-2.8347842693328857,1016.89716,
2021.02.08 13:07:13,48.0,18.0,7.1482315,-24.62828,-25.982985,0.112666644,0.4466612,9.727481,-0.08067562,-0.025093209,0.028910555,-0.04588215425610542,-0.011581786908209324,-2.8335938453674316,1016.8983,
2021.02.08 13:07:14,48.0,18.0,6.721443,-24.300827,-25.362364,0.034218792,0.5867527,10.057231,0.03359323,-0.05180557,0.008273018,-0.05827498435974121,-0.003402393776923418,-2.851240873336792,1016.89844,
2021.02.08 13:07:14,48.0,18.0,6.760643,-25.064613,-25.710192,0.11936196,0.52293986,9.753475,0.060817976,-0.05800409,-0.028869495,-0.05356045812368393,-0.012237279675900936,-2.8510005474090576,1016.89966,
2021.02.08 13:07:14,48.0,18.0,6.368202,-24.912437,-26.126638,-0.12606454,0.77177024,9.650918,0.032626487,-0.0027407312,-0.035150312,-0.07979199290275574,0.013061697594821453,-2.882580280303955,1016.9015,
2021.02.08 13:07:14,48.0,18.0,6.330345,-25.118229,-25.261457,0.06539922,0.732349,9.720389,0.009896982,-0.017188365,-0.027132098,-0.07519776374101639,-0.006727943662554026,-2.867886781692505,1016.90265,
2021.02.08 13:07:14,48.0,18.0,6.7584305,-24.659412,-25.777288,0.055040747,0.7174862,9.727448,-0.0158156,0.03320903,-0.042928107,-0.07362443208694458,-0.005658232141286135,-2.8463258743286133,1016.90405,
2021.02.08 13:07:14,48.0,18.0,5.9649506,-23.574673,-24.885881,-0.14285137,0.7404564,9.773534,-0.00938719,8.2292047E-4,-0.022159304,-0.07560887932777405,0.014615101739764214,-2.888129234313965,1016.9076,
2021.02.08 13:07:14,48.0,18.0,6.9868774,-24.02245,-26.17798,0.058783147,0.7021772,9.820211,0.004536342,0.0052738464,-0.028088719,-0.07138051092624664,-0.005985863506793976,-2.8289237022399902,1016.90796,
2021.02.08 13:07:14,48.0,18.0,6.4046936,-23.965607,-25.296728,0.017915698,0.7196347,9.811931,0.038045444,0.0014335966,-0.03285872,-0.07321162521839142,-0.001825907500460744,-2.857002019882202,1016.9082,
2021.02.08 13:07:14,48.0,18.0,7.4830246,-24.246712,-25.455988,-0.01580123,0.73754495,9.663418,0.010169644,-0.002076475,-0.029777955,-0.07617562264204025,0.0016351580852642655,-2.81868314743042,1016.9088,
2021.02.08 13:07:14,48.0,18.0,8.273079,-23.904823,-28.346258,-0.13200851,0.81137085,9.777614,0.0010548942,-0.008225585,-0.008206694,-0.08278529345989227,0.013500276952981949,-2.7894363403320312,1016.9089,
2021.02.08 13:07:14,48.0,18.0,6.991623,-24.419132,-25.70378,-0.051896792,0.76382303,9.656157,0.018431896,-0.01936191,0.019815575,-0.07893667370080948,0.0053744250908494,-2.843595266342163,1016.9105,
2021.02.08 13:07:14,48.0,18.0,5.939972,-24.090458,-25.69483,-0.09256017,0.83326674,9.77219,-0.007144305,-0.0017906836,0.014757956,-0.08505963534116745,0.009471510536968708,-2.886183500289917,1016.9174,
2021.02.08 13:07:15,48.0,18.0,6.117836,-23.680443,-25.242151,-0.015271891,0.8011089,9.788309,-0.016827418,-0.0027452235,0.01305933,-0.08166134357452393,0.0015602161874994636,-2.866572141647339,1016.9211,
2021.02.08 13:07:15,48.0,18.0,6.106964,-24.295452,-25.93247,-0.0032442089,0.771347,9.68538,0.010919783,0.003160183,0.016803715,-0.0794726014137268,3.3495938987471163E-4,-2.8730454444885254,1016.92377,
2021.02.08 13:07:15,48.0,18.0,6.034416,-24.454754,-24.73141,-0.02987153,0.8054344,9.828233,0.0010619047,-0.0033204274,0.009437357,-0.0817679837346077,0.0030393500346690416,-2.881040334701538,1016.9299,
2021.02.08 13:07:15,48.0,18.0,5.7270966,-25.305862,-26.336748,0.021771207,0.7708947,9.663908,-0.003740305,-0.013408705,0.0019544698,-0.07960173487663269,-0.002252832753583789,-2.8964803218841553,1016.9299,
2021.02.08 13:07:15,48.0,18.0,5.368042,-24.797863,-25.765955,0.013246638,0.7349224,9.671955,-0.019977057,-0.0071412907,-0.014401687,-0.0758390873670578,-0.0013695916859433055,-2.9086508750915527,1016.93134,
2021.02.08 13:07:15,48.0,18.0,5.6831207,-24.77401,-25.65111,0.027924245,0.8032984,9.791308,-0.013412219,-0.011868386,-0.018272556,-0.081858329474926,-0.002851934405043721,-2.8921408653259277,1016.9327,
2021.02.08 13:07:15,48.0,18.0,6.954048,-24.033764,-25.428926,-0.0014878983,0.7201357,9.687969,-8.670448E-4,-0.009781272,-0.016542573,-0.07419653236865997,1.535820629214868E-4,-2.8366732597351074,1016.9327,
2021.02.08 13:07:15,48.0,18.0,6.3737106,-23.446095,-27.588503,-0.06738504,0.7724042,9.832936,-0.026134657,-0.0047580334,-0.020283025,-0.07838993519544601,0.0068528857082128525,-2.8578779697418213,1016.93274,
2021.02.08 13:07:15,48.0,18.0,5.8001328,-24.301685,-26.050898,-0.013245393,0.7482969,9.721063,0.002213875,-0.010792998,-0.0013122084,-0.07682528346776962,0.0013625448336824775,-2.887863874435425,1016.93274,
2021.02.08 13:07:15,48.0,18.0,5.5892944,-23.916779,-26.613207,0.04769733,0.7484811,9.742851,-0.0062404675,0.003369786,0.0028907117,-0.07667210698127747,-0.004895584192126989,-2.8851265907287598,1016.93274,
2021.02.08 13:07:15,48.0,18.0,6.1389313,-25.025078,-25.074324,-0.030484736,0.738928,9.7907295,-0.011528563,0.011122564,-0.0034108558,-0.07532903552055359,0.0031136225443333387,-2.884636878967285,1016.93274,
2021.02.08 13:07:15,48.0,18.0,6.338814,-23.985851,-24.39763,-0.021703059,0.7138985,9.724317,-0.0033033327,0.024362963,0.0019956883,-0.07328209280967712,0.002231830032542348,-2.8649516105651855,1016.93274,
2021.02.08 13:07:15,48.0,18.0,5.4418106,-24.279507,-25.569384,0.055312593,0.7426527,9.745627,-0.0032173598,6.018053E-4,0.008342569,-0.07605547457933426,-0.005675571039319038,-2.895784854888916,1016.93274,
2021.02.08 13:07:15,48.0,18.0,6.8102417,-24.496502,-25.851171,-0.06329847,0.71803594,9.712669,-0.0028891184,-0.009856526,-3.477633E-4,-0.07379196584224701,0.00651701120659709,-2.8548104763031006,1016.93274,
2021.02.08 13:07:16,48.0,18.0,6.223137,-24.679222,-25.925203,0.041107684,0.7275842,9.70741,-0.0017573044,-0.02391934,0.010461622,-0.07481086999177933,-0.004234645515680313,-2.8692381381988525,1016.93274,
2021.02.08 13:07:16,48.0,18.0,6.034752,-24.052143,-26.238115,0.06348873,0.7468192,9.797328,-0.0090060895,-0.039959475,0.011929941,-0.07607810944318771,-0.0064801182597875595,-2.866600275039673,1016.93274,
2021.02.08 13:07:16,48.0,18.0,6.483238,-25.325653,-25.941141,0.060255233,0.7233315,9.719483,0.009798338,-0.008138066,-0.0013135821,-0.07428241521120071,-0.006199347786605358,-2.8641974925994873,1016.93274,
2021.02.08 13:07:16,48.0,18.0,7.2435837,-23.775318,-26.414953,0.06921499,0.72878116,9.725732,-0.01581299,0.0028833195,-0.013225776,-0.07479163259267807,-0.0071165673434734344,-2.8122003078460693,1016.93274,
2021.02.08 13:07:16,48.0,18.0,7.1131363,-23.154167,-25.4843,0.13432717,0.68662745,9.640507,0.008159371,-0.007416854,0.002703866,-0.07109622657299042,-0.013932719826698303,-2.804286241531372,1016.93274,
2021.02.08 13:07:16,48.0,18.0,7.877304,-24.039574,-26.002234,0.049280565,0.75546235,9.78976,-0.011190797,-0.004053181,-0.009863315,-0.07701502740383148,-0.005033846478909254,-2.792069673538208,1016.93274,
2021.02.08 13:07:16,48.0,18.0,5.884201,-22.935905,-25.850313,0.034366112,0.740331,9.765064,-0.01289111,0.013600961,-0.016518591,-0.07566902041435242,-0.0035192775540053844,-2.863351821899414,1016.93274,
2021.02.08 13:07:16,48.0,18.0,5.876793,-24.984875,-24.904654,0.07576927,0.7149317,9.734568,0.0024869202,0.002644657,-0.014740841,-0.07330874353647232,-0.00778336962684989,-2.8845818042755127,1016.93274,
2021.02.08 13:07:16,48.0,18.0,5.502449,-23.610775,-26.016901,0.027993979,0.7416977,9.771698,-0.0015702993,0.011152924,-0.019665204,-0.07575707137584686,-0.0028647941071540117,-2.8886399269104004,1016.93274,
2021.02.08 13:07:16,48.0,18.0,5.669632,-24.320667,-25.931002,0.05631842,0.74232763,9.727328,0.0040704524,0.01451018,-0.018688357,-0.07616472244262695,-0.005789646413177252,-2.8860907554626465,1016.9332,
2021.02.08 13:07:16,48.0,18.0,5.4491196,-24.351475,-25.483744,-0.03686304,0.71410125,9.660569,-0.022781886,0.010772812,-0.011183892,-0.07378443330526352,0.003815806470811367,-2.9071192741394043,1016.9332,
2021.02.08 13:07:16,48.0,18.0,6.0860367,-24.468899,-24.815588,0.054439317,0.7075925,9.601592,0.02265981,-0.015639411,0.015421945,-0.0735611692070961,-0.0056697609834373,-2.872537851333618,1016.9332,
2021.02.08 13:07:16,48.0,18.0,6.8756027,-23.613121,-26.94523,-0.012245742,0.76625586,9.777146,-0.0057473695,-0.0027210538,0.0049118623,-0.0782122015953064,0.0012524855555966496,-2.8326237201690674,1016.93274,
2021.02.08 13:07:16,48.0,18.0,6.3055725,-23.578419,-26.232416,0.05663239,0.76114124,9.7204075,-0.006828568,-0.0069929888,0.013024914,-0.07814265787601471,-0.005826067179441452,-2.8492887020111084,1016.93274,
2021.02.08 13:07:17,48.0,18.0,6.4628525,-24.30223,-24.672045,-0.01371099,0.7536411,9.738847,-0.0063013313,0.0045418087,-8.4057264E-4,-0.07723105698823929,0.0014078648528084159,-2.8612489700317383,1016.93274,
2021.02.08 13:07:17,48.0,18.0,6.1889267,-23.453587,-26.31278,-0.011394863,0.7643191,9.766455,-0.01591721,0.0012436527,0.00904937,-0.07810039073228836,0.001166734378784895,-2.860506296157837,1016.93274,
2021.02.08 13:07:17,48.0,18.0,5.792053,-23.838058,-26.21517,0.034318324,0.7099256,9.683545,-0.049223337,0.0018454373,0.002679862,-0.07318118959665298,-0.0035439685452729464,-2.8786063194274902,1016.93274,
2021.02.08 13:07:17,48.0,18.0,6.135437,-24.838993,-26.227995,0.009389678,0.7085817,9.780114,-0.03446874,0.001766884,0.0040427223,-0.07232486456632614,-9.600782650522888E-4,-2.8785641193389893,1016.93274,
2021.02.08 13:07:17,48.0,18.0,5.80542,-24.037064,-24.93538,-0.00483731,0.6618441,9.77722,-0.016471436,7.334001E-4,-4.2217132E-4,-0.06758933514356613,4.947530687786639E-4,-2.8874082565307617,1016.9326,
2021.02.08 13:07:17,48.0,18.0,4.481613,-24.367455,-25.45814,-0.00905749,0.69266343,9.708417,-0.03122637,0.0021480864,0.0022824435,-0.07122597098350525,9.329520398750901E-4,-2.9459445476531982,1016.9326,
2021.02.08 13:07:17,48.0,18.0,6.7740097,-23.23748,-26.430895,-0.011378441,0.6390634,9.792905,-0.00741681,-1.2596803E-4,0.009449259,-0.06516535580158234,0.0011619060533121228,-2.8372223377227783,1016.93243,
2021.02.08 13:07:17,48.0,18.0,5.7868576,-24.26155,-25.486914,0.03591998,0.66461974,9.75925,-0.00688844,-0.0022513883,0.0057638222,-0.0679960772395134,-0.003680592169985175,-2.885680913925171,1016.93243,
2021.02.08 13:07:17,48.0,18.0,5.8064346,-23.441841,-25.52941,-0.014209849,0.67108816,9.7979555,-1.2515299E-4,-0.0034169194,0.008246933,-0.06838579475879669,0.0014502862468361855,-2.8810675144195557,1016.93243,
2021.02.08 13:07:17,48.0,18.0,5.082016,-22.543758,-26.029783,0.003987628,0.649956,9.709853,-0.008256365,-0.010633391,0.012392159,-0.06683806329965591,-4.1067847632803023E-4,-2.900974988937378,1016.93225,
2021.02.08 13:07:17,48.0,18.0,5.9623947,-25.001461,-25.401178,0.0023800936,0.6531518,9.733924,-0.011054923,-9.7565027E-4,0.010619189,-0.0670001283288002,-2.445153077133E-4,-2.890251398086548,1016.93225,
2021.02.08 13:07:17,48.0,18.0,6.6274643,-23.78431,-26.905455,-0.031320874,0.66639763,9.738122,-0.0033094212,-0.0095552085,0.01884422,-0.0683249682188034,0.00321630435064435,-2.851236343383789,1016.9322,
2021.02.08 13:07:17,48.0,18.0,6.099701,-24.206581,-27.02989,0.03221536,0.66364044,9.776338,0.0037028182,-0.0036491803,0.019804131,-0.06777796894311905,-0.0032952262554317713,-2.8711345195770264,1016.9322,
2021.02.08 13:07:17,48.0,18.0,5.80809,-24.096062,-26.150084,0.031582307,0.6843795,9.809529,-0.004225545,0.0021818504,0.01692174,-0.06965358555316925,-0.0032195427920669317,-2.88236927986145,1016.93207,
2021.02.08 13:07:18,48.0,18.0,6.4530334,-24.58419,-26.6906,0.072981514,0.6706694,9.709458,0.0066868784,-0.001533544,0.012165922,-0.06896233558654785,-0.007516396231949329,-2.8563547134399414,1016.93164,
2021.02.08 13:07:18,48.0,18.0,6.2723083,-23.282871,-26.099821,0.05504784,0.6624436,9.75332,0.005103537,7.505197E-5,0.006528049,-0.06781458109617233,-0.005643950775265694,-2.8509671688079834,1016.9316,
2021.02.08 13:07:18,48.0,18.0,5.819702,-23.298271,-25.603628,0.06619299,0.6774599,9.73293,0.007993026,-0.001603759,0.0033291895,-0.06949124485254288,-0.0068008266389369965,-2.869321823120117,1016.9314,
2021.02.08 13:07:18,48.0,18.0,5.648636,-23.858814,-25.114618,0.05071116,0.67397255,9.750056,-6.930124E-4,0.0030864656,-0.006883139,-0.06901426613330841,-0.0052010677754879,-2.885510206222534,1016.93134,
2021.02.08 13:07:18,48.0,18.0,5.964775,-23.992851,-23.657202,0.06629884,0.68883616,9.747569,-0.005521613,-0.0044819117,-0.014996305,-0.07054857164621353,-0.006801472045481205,-2.873155117034912,1016.93134,
2021.02.08 13:07:18,48.0,18.0,5.101494,-23.794128,-25.25577,0.04066741,0.6856372,9.7698,0.0019563765,-0.0052854316,-0.019203663,-0.0700637623667717,-0.004162539262324572,-2.908891439437866,1016.931,
2021.02.08 13:07:18,48.0,18.0,5.9656296,-23.432316,-24.719606,-0.015039316,0.6964436,9.778646,0.01314626,-0.0031797434,-0.0077877957,-0.07110071927309036,0.001537974108941853,-2.873953342437744,1016.93024,
2021.02.08 13:07:18,48.0,18.0,6.1395035,-24.158867,-24.358198,0.025057787,0.6896836,9.719405,-0.0016826945,4.185588E-4,-0.007485763,-0.07084047049283981,-0.002578113693743944,-2.8711886405944824,1016.9296,
2021.02.08 13:07:18,48.0,18.0,5.0769653,-24.895931,-25.2959,0.021914914,0.7059817,9.7007,0.012899885,-4.2706012E-4,-0.0031480985,-0.07264810055494308,-0.002259102649986744,-2.9219253063201904,1016.9288,
2021.02.08 13:07:18,48.0,18.0,5.7709427,-25.420822,-26.375204,0.015960766,0.71515745,9.768277,-0.0027513271,7.719052E-4,1.3119262E-4,-0.07308176159858704,-0.0016339371213689446,-2.89833927154541,1016.92883,
2021.02.08 13:07:18,48.0,18.0,6.6460953,-23.894238,-24.776163,0.04705065,0.7257059,9.727169,-5.630625E-4,-0.003910065,5.744789E-4,-0.0744672417640686,-0.004836997017264366,-2.843069076538086,1016.9294,
2021.02.08 13:07:18,48.0,18.0,5.901924,-24.050438,-25.350245,0.044332232,0.71838266,9.787812,0.002682485,-0.0015774324,-0.003346276,-0.0732635110616684,-0.0045292992144823074,-2.876156806945801,1016.93,
2021.02.08 13:07:18,48.0,18.0,4.404701,-24.218563,-25.639868,0.04665947,0.7205305,9.72511,-0.0056592287,-9.977272E-5,-0.0028964109,-0.07395373284816742,-0.004797797650098801,-2.9409265518188477,1016.931,
2021.02.08 13:07:19,48.0,18.0,5.4001236,-24.414318,-24.811861,0.042806234,0.7234624,9.758309,-0.0059684115,-0.0053508207,-0.00417209,-0.07400199770927429,-0.004386615939438343,-2.901627779006958,1016.93134,
2021.02.08 13:07:19,48.0,18.0,5.88842,-23.389439,-26.504568,0.065318815,0.74790066,9.774422,0.0026710492,-0.0015073415,-0.011988063,-0.07636559754610062,-0.006682527717202902,-2.8642024993896484,1016.9314,
2021.02.08 13:07:19,48.0,18.0,5.751297,-24.708324,-25.916517,-0.0046195914,0.7184277,9.699814,-0.008652741,-5.7266216E-4,-0.009065092,-0.07393113523721695,4.76255634566769E-4,-2.894239664077759,1016.9316,
2021.02.08 13:07:19,48.0,18.0,6.3709793,-23.610645,-26.43582,0.061963085,0.74293923,9.780074,0.011295398,0.005655862,-0.009333793,-0.07581744343042374,-0.006335561163723469,-2.846933364868164,1016.9321,
2021.02.08 13:07:19,48.0,18.0,5.9626923,-24.068027,-26.175684,0.025864989,0.7019816,9.679459,-0.012270259,0.0022268353,-0.01017527,-0.07239581644535065,-0.002672146074473858,-2.875262498855591,1016.9321,
2021.02.08 13:07:19,48.0,18.0,6.393471,-24.689743,-24.243814,0.046761964,0.7545112,9.789676,-9.615354E-4,0.009586186,-0.013666488,-0.07691919058561325,-0.004776624962687492,-2.862990379333496,1016.9321,
2021.02.08 13:07:19,48.0,18.0,6.1582336,-24.784416,-26.054815,0.019243836,0.7310951,9.774257,-0.008435831,0.004179218,-0.008546893,-0.07465885579586029,-0.0019688261672854424,-2.875392198562622,1016.9321,
2021.02.08 13:07:19,48.0,18.0,6.46682,-24.980713,-25.276075,0.021805057,0.71459264,9.736213,-0.0024035391,0.007228495,-0.007606131,-0.07326378673315048,-0.0022395793348550797,-2.865959644317627,1016.9321,
2021.02.08 13:07:19,48.0,18.0,6.6106644,-22.858738,-25.424856,-0.032218616,0.7391154,9.776027,-0.0078604715,0.0013819245,-0.00833233,-0.07546091824769974,0.0032956639770418406,-2.8385634422302246,1016.9321,
2021.02.08 13:07:19,48.0,18.0,4.76342,-24.933685,-26.819418,-0.026306495,0.7374179,9.754817,-0.0061583226,0.0036864877,-0.0042821807,-0.07545147091150284,0.0026967632584273815,-2.9390223026275635,1016.9321,
2021.02.08 13:07:19,48.0,18.0,4.853096,-24.344063,-26.143263,-0.018319502,0.6895426,9.717607,0.0065916292,0.00659153,0.0042380868,-0.07083920389413834,0.0018851844361051917,-2.930629014968872,1016.9321,
2021.02.08 13:07:19,48.0,18.0,6.5978317,-24.072865,-25.108675,0.025698991,0.7487765,9.75048,-0.0057335524,0.0035299931,0.0024374723,-0.07664312422275543,-0.0026356582529842854,-2.8484878540039062,1016.9321,
2021.02.08 13:07:19,48.0,18.0,6.5012894,-25.053993,-26.218508,0.0031011843,0.7198779,9.746246,-0.0016053095,0.007679296,-0.0024729818,-0.07372818142175674,-3.1819267314858735E-4,-2.8664016723632812,1016.9321,
2021.02.08 13:07:19,48.0,18.0,5.487175,-25.485516,-26.204054,0.010296877,0.7353728,9.764678,-0.0029872647,0.0041925013,-0.005433613,-0.07516754418611526,-0.0010545019758865237,-2.9105801582336426,1016.9321,
2021.02.08 13:07:20,48.0,18.0,6.132721,-23.78738,-23.723848,-0.03266411,0.7377014,9.727007,0.0010965008,0.0063086576,-0.018327981,-0.07569520175457001,0.00335807166993618,-2.8722083568573,1016.93134,
2021.02.08 13:07:20,48.0,18.0,6.3232117,-24.265392,-25.925508,-0.007501327,0.7385909,9.75201,-0.017267678,0.00508167,-0.01872225,-0.07559295743703842,7.692081271670759E-4,-2.865389347076416,1016.93134,
2021.02.08 13:07:20,48.0,18.0,6.892853,-23.423588,-26.081041,-0.045610327,0.7040562,9.736896,-0.015868321,7.7351404E-4,-0.016745724,-0.07218166440725327,0.004684243816882372,-2.8362364768981934,1016.93134,
2021.02.08 13:07:20,48.0,18.0,6.5981903,-23.89597,-26.870787,-0.04296817,0.73079294,9.744662,-0.009352742,0.0014000571,-0.014668709,-0.0748533383011818,0.004409376997500658,-2.852895736694336,1016.9314,
2021.02.08 13:07:20,48.0,18.0,6.8160934,-23.722607,-25.09207,-0.06155448,0.7097185,9.735529,-0.015409405,0.0011505558,-0.010153031,-0.0727696642279625,0.006322579924017191,-2.84562087059021,1016.9322,
2021.02.08 13:07:20,48.0,18.0,5.652458,-21.631714,-25.196276,-0.05256335,0.7218873,9.797946,-0.0010193492,-0.0045131487,-0.0063693454,-0.0735434740781784,0.0053646801970899105,-2.868786334991455,1016.93225,
2021.02.08 13:07:20,48.0,18.0,6.0576324,-23.819633,-25.148214,-0.060804848,0.7117004,9.739279,-5.7914236E-4,0.004686386,-0.007417891,-0.07294419407844543,0.006243178620934486,-2.878650665283203,1016.93225,
2021.02.08 13:07:20,48.0,18.0,5.3787155,-24.476265,-25.866419,-0.06816726,0.7183725,9.732034,0.0038937482,0.006070352,-0.0056637893,-0.07367981970310211,0.007004306185990572,-2.9146080017089844,1016.9325,
2021.02.08 13:07:20,48.0,18.0,6.704262,-23.90524,-25.646559,-0.04367465,0.73551464,9.778977,0.0012644916,-7.6234934E-4,-0.002942691,-0.07507176697254181,0.004466148093342781,-2.849465847015381,1016.9325,
2021.02.08 13:07:20,48.0,18.0,6.226967,-24.524136,-25.227915,-0.0044871117,0.7018108,9.710843,-0.0057158745,0.007777207,-0.010713619,-0.07214540243148804,4.6207226114347577E-4,-2.8736839294433594,1016.93274,
2021.02.08 13:07:20,48.0,18.0,6.664009,-24.692722,-25.643263,-0.042838003,0.7289173,9.812879,0.01907942,6.3133845E-4,-0.006653265,-0.07414481788873672,0.004365460015833378,-2.8608670234680176,1016.933,
2021.02.08 13:07:20,48.0,18.0,5.455597,-23.86348,-24.940725,-0.04693142,0.70988303,9.636636,-0.012117686,0.002631945,-5.40182E-4,-0.07353134453296661,0.004870065487921238,-2.903357982635498,1016.93304,
2021.02.08 13:07:21,48.0,18.0,6.359558,-23.276073,-25.170492,-0.0458473,0.71655303,9.83093,0.020642724,0.02148861,-0.002697791,-0.07275816798210144,0.004663543310016394,-2.8575611114501953,1016.93304,
2021.02.08 13:07:21,48.0,18.0,6.2055206,-23.768482,-26.340689,-0.055668134,0.78237516,9.6323395,-0.029638192,0.026365679,-0.0069765616,-0.0810445249080658,0.005779230501502752,-2.8678207397460938,1016.93335,
2021.02.08 13:07:21,48.0,18.0,5.161293,-24.394299,-25.235502,-0.06359882,0.7508475,9.8202505,-0.0034190905,0.021202164,-0.004231346,-0.07630903273820877,0.006476202048361301,-2.9220452308654785,1016.9339,
2021.02.08 13:07:21,48.0,18.0,8.09687,-24.140934,-24.864733,0.043942306,0.69231004,10.089031,-0.054964166,-0.028177664,0.008104164,-0.06851202249526978,-0.004355425946414471,-2.7902491092681885,1016.93396,
