Time,X-cord,Y-cord,Mag_x,Mag_y,Mag_z,Acc_x,Acc_y,Acc_z,Gyro_x,Gyro_y,Gyro_z,Orn_x,Orn_y,Orn_z,Pressure,
2021.02.08 13:05:42,50.0,14.0,-8.105301,16.284166,-26.051329,-0.17343569,0.44956973,9.689366,0.054358322,0.027163876,-0.016940467,-0.046357594430446625,0.017897678539156914,0.4561420679092407,1016.6682,
2021.02.08 13:05:42,50.0,14.0,-6.8313293,14.662231,-26.718298,-0.058795393,0.2950708,9.586575,0.022349712,0.013286163,-0.007346156,-0.030769292265176773,0.006133019924163818,0.42451211810112,1016.6682,
2021.02.08 13:05:42,50.0,14.0,-6.5725174,15.168098,-26.508207,-0.052405078,0.36915615,9.7810755,-0.087107666,-0.058146987,0.03538896,-0.03772343322634697,0.005357751622796059,0.3938889503479004,1016.67175,
2021.02.08 13:05:42,50.0,14.0,-6.521141,14.455206,-25.614508,0.14689012,0.24080195,10.095262,0.07040786,-0.037327357,-0.036287718,-0.023845922201871872,-0.014549375511705875,0.38747838139533997,1016.6724,
2021.02.08 13:05:43,50.0,14.0,-6.958908,14.884855,-26.01869,0.10484133,0.34457096,9.793094,0.021284036,-0.016884794,-0.018586138,-0.03516857326030731,-0.010705230757594109,0.4001491069793701,1016.67505,
2021.02.08 13:05:43,50.0,14.0,-8.188072,15.010674,-25.964014,0.029884487,0.37771466,9.896243,-0.077967495,0.0069372132,-0.040267296,-0.03814879059791565,-0.0030197720043361187,0.46934229135513306,1016.67645,
2021.02.08 13:05:43,50.0,14.0,-7.2774963,14.716461,-25.95709,0.02697537,0.23947923,9.58904,0.018956807,-0.014092419,-0.018019037,-0.02496897615492344,-0.002813138533383608,0.43856295943260193,1016.67694,
2021.02.08 13:05:43,50.0,14.0,-7.559799,15.321045,-25.934034,-0.06651071,0.32300335,9.873231,-0.027940715,-0.009448039,0.010834351,-0.03270265460014343,0.006736366078257561,0.4464101195335388,1016.6783,
2021.02.08 13:05:43,50.0,14.0,-7.1353836,13.451562,-26.729094,0.028018495,0.40892375,9.819744,0.07060923,0.01793422,0.0039134207,-0.041618797928094864,-0.002853273879736662,0.45162850618362427,1016.67957,
2021.02.08 13:05:43,50.0,14.0,-7.390007,14.099067,-26.572073,0.08260286,0.3846959,9.701179,-0.037592772,0.03795742,-0.030975329,-0.03963235020637512,-0.008514517918229103,0.44185400009155273,1016.6804,
2021.02.08 13:05:43,50.0,14.0,-6.0103226,14.017275,-26.282942,-0.1749425,0.4489157,9.95482,0.022833874,0.020738276,5.004279E-4,-0.045057833194732666,0.017571840435266495,0.4029233455657959,1016.6806,
2021.02.08 13:05:43,50.0,14.0,-7.3168793,14.814093,-27.627459,-0.010863271,0.3312236,9.703693,0.011775099,0.022633588,-0.007404942,-0.03412050008773804,0.0011194981634616852,0.43656930327415466,1016.6814,
2021.02.08 13:05:43,50.0,14.0,-7.3283615,14.034551,-27.83541,-0.15758295,0.3960586,9.771576,0.009846886,0.027218834,-0.011332249,-0.04050426557660103,0.01612526923418045,0.47434502840042114,1016.68414,
2021.02.08 13:05:43,50.0,14.0,-7.5504913,13.878141,-26.527803,-0.10107396,0.34068504,9.677373,0.014092791,0.02448606,-0.0022674568,-0.03518784046173096,0.010443978942930698,0.4864685833454132,1016.68414,
2021.02.08 13:05:43,50.0,14.0,-6.8416824,14.353385,-26.501844,-0.09858924,0.45405373,9.888195,0.015636094,0.0058545964,-0.014136136,-0.045884255319833755,0.009970068000257015,0.42860147356987,1016.6843,
2021.02.08 13:05:43,50.0,14.0,-6.9048233,13.845258,-25.86963,-0.22678643,0.4141338,9.89293,0.05470174,-0.015056576,0.0094856545,-0.04182618483901024,0.022920075803995132,0.4658941924571991,1016.6857,
2021.02.08 13:05:43,50.0,14.0,-7.568962,14.026864,-26.274374,-0.13613845,0.39655337,9.809724,0.076544315,-0.010064301,0.006502546,-0.04039863497018814,0.013877017423510551,0.4844818711280823,1016.68744,
2021.02.08 13:05:43,50.0,14.0,-6.826828,14.662444,-26.361437,-0.09979523,0.43571505,9.623666,0.032537535,-0.004843371,0.005923677,-0.04524204879999161,0.010369401425123215,0.421457439661026,1016.68854,
2021.02.08 13:05:44,50.0,14.0,-7.1773834,13.556189,-26.335497,-0.11497796,0.44628254,9.776078,0.03150239,-0.006934315,0.0060250433,-0.04561564698815346,0.011760612949728966,0.4699820578098297,1016.6889,
2021.02.08 13:05:44,50.0,14.0,-6.213394,13.414698,-26.31957,-0.10991233,0.48637715,9.690122,0.0450085,-0.025604,0.0073552974,-0.050147783011198044,0.01134223211556673,0.416643351316452,1016.6917,
2021.02.08 13:05:44,50.0,14.0,-5.9640427,13.298479,-26.555029,-0.11659711,0.48007298,9.776287,0.023936704,-0.02924377,0.0011113073,-0.04906295984983444,0.011925957165658474,0.40669822692871094,1016.6921,
2021.02.08 13:05:44,50.0,14.0,-6.9353485,14.522762,-26.295294,-0.007436335,0.5142055,9.475999,-0.039463077,-0.058101356,0.009138542,-0.054210808128118515,7.847545784898102E-4,0.4117984175682068,1016.693,
2021.02.08 13:05:44,50.0,14.0,-6.138092,14.622854,-26.776197,-0.049584687,0.5325126,9.724649,-0.105788276,-0.07125369,0.009333817,-0.054703712463378906,0.005098822060972452,0.3723887503147125,1016.693,
2021.02.08 13:05:44,50.0,14.0,-7.3983765,14.485055,-26.929327,0.07482256,0.5563295,9.957157,0.023788301,0.012484871,0.0015897745,-0.05581272020936012,-0.007514309138059616,0.4233909249305725,1016.6935,
2021.02.08 13:05:44,50.0,14.0,-6.646187,14.5372095,-26.084063,-0.0421039,0.4627413,9.814741,0.038627498,0.0038544645,0.007261487,-0.04711226001381874,0.004289837088435888,0.4053645730018616,1016.6938,
2021.02.08 13:05:44,50.0,14.0,-7.2873306,14.555788,-26.087515,9.777397E-4,0.50278324,9.5935955,-0.016268807,0.0091891885,0.009725208,-0.05236031487584114,-1.0191587352892384E-4,0.42958658933639526,1016.696,
2021.02.08 13:05:44,50.0,14.0,-6.665436,14.393334,-27.01208,0.0221767,0.5369649,9.816188,-0.015270608,0.00930674,0.009475989,-0.05464737489819527,-0.0022591929882764816,0.39484652876853943,1016.69714,
2021.02.08 13:05:44,50.0,14.0,-7.6452484,14.08846,-26.81206,0.010936334,0.5363715,9.747462,-0.01092582,0.01646477,0.0038357433,-0.05497131496667862,-0.0011219668667763472,0.45562437176704407,1016.6989,
2021.02.08 13:05:44,50.0,14.0,-7.859833,13.827955,-26.084913,0.040171795,0.5092729,9.729353,0.012716421,0.010211133,5.1493954E-4,-0.05229579284787178,-0.004128904081881046,0.4723055958747864,1016.6991,
2021.02.08 13:05:44,50.0,14.0,-7.804199,13.36793,-26.312704,0.036189016,0.5133267,9.82474,0.016364172,-0.0033442639,-0.008148382,-0.0522005520761013,-0.003683441085740924,0.48222482204437256,1016.6996,
2021.02.08 13:05:45,50.0,14.0,-7.0715256,12.720073,-27.250273,0.022656968,0.5009691,9.611698,0.029696232,0.009017761,-0.026648233,-0.052073512226343155,-0.002357224002480507,0.46059727668762207,1016.69965,
2021.02.08 13:05:45,50.0,14.0,-6.606621,14.3471575,-26.132612,-0.12098551,0.5230222,9.797001,-0.0020000238,0.03624809,-0.042744763,-0.05333125591278076,0.01234861183911562,0.41525647044181824,1016.69995,
2021.02.08 13:05:45,50.0,14.0,-7.291275,14.841123,-27.493746,-0.07234416,0.4933304,9.764178,0.020158403,0.013899502,-0.01863989,-0.050480205565690994,0.007409004028886557,0.43315696716308594,1016.7002,
2021.02.08 13:05:45,50.0,14.0,-6.5635147,13.66169,-26.630373,-0.13587034,0.45978048,9.656909,-0.00708697,-0.013059462,0.008975244,-0.04757092893123627,0.014068826101720333,0.4355475902557373,1016.7002,
2021.02.08 13:05:45,50.0,14.0,-5.9999466,14.687893,-25.802145,-0.07592926,0.52667207,9.74144,0.007476775,-0.012753394,0.007441439,-0.054010890424251556,0.0077943019568920135,0.36853864789009094,1016.7005,
2021.02.08 13:05:45,50.0,14.0,-8.464607,14.362921,-27.21924,-0.020712687,0.5087919,9.757646,0.0057944763,-0.022475725,0.015643278,-0.052095599472522736,0.002122710458934307,0.49572476744651794,1016.7005,
2021.02.08 13:05:45,50.0,14.0,-7.2173767,12.991133,-25.074488,-0.021845268,0.5453232,9.810662,0.015359181,-0.020051744,0.011589026,-0.055527474731206894,0.002226682612672448,0.4687746465206146,1016.7011,
2021.02.08 13:05:45,50.0,14.0,-5.739067,12.743916,-27.316927,-0.025589759,0.5109989,9.650797,4.181777E-4,-0.017830743,0.015932294,-0.052899301052093506,0.002651563147082925,0.38921332359313965,1016.7011,
2021.02.08 13:05:45,50.0,14.0,-5.7676697,14.072409,-25.580145,0.031374987,0.567352,9.881673,0.0035914532,-0.008523751,0.0022103232,-0.05735131353139877,-0.003175057703629136,0.351275235414505,1016.7016,
2021.02.08 13:05:45,50.0,14.0,-7.608124,12.505941,-26.740732,-0.05168507,0.57133013,9.712335,0.008727676,-0.015276109,0.015879175,-0.05875667184591293,0.005321540404111147,0.5040212869644165,1016.70197,
2021.02.08 13:05:45,50.0,14.0,-6.3544006,14.840395,-26.41052,0.01461561,0.53182954,9.759289,0.010279349,-0.008823185,0.012804682,-0.05444079637527466,-0.0014976090751588345,0.37052005529403687,1016.7021,
2021.02.08 13:05:45,50.0,14.0,-7.142021,14.574903,-26.99378,0.037294228,0.5668667,9.696835,-0.003488967,0.004684477,5.200453E-4,-0.05839205160737038,-0.00384600181132555,0.4115042984485626,1016.7021,
2021.02.08 13:05:45,50.0,14.0,-6.3901443,14.111963,-26.40545,0.017512472,0.57697254,9.874427,0.012847113,-0.0036592884,0.0024364078,-0.05836453288793564,-0.0017735159490257502,0.38555753231048584,1016.7025,
2021.02.08 13:05:45,50.0,14.0,-8.214043,13.951647,-26.279238,-0.03359169,0.54383796,9.611207,-0.004893262,-0.0070456276,0.014226587,-0.05652311444282532,0.003495040349662304,0.49428805708885193,1016.7025,
2021.02.08 13:05:45,50.0,14.0,-7.15979,14.017551,-26.287672,0.048741523,0.5553923,9.787343,-0.008664595,-1.0486547E-4,0.00460109,-0.05668448284268379,-0.004980015102773905,0.42606762051582336,1016.7045,
2021.02.08 13:05:46,50.0,14.0,-7.952446,12.715361,-25.960299,0.0033559615,0.56505466,9.716166,-0.00927895,-0.0034071556,0.001436724,-0.058090705424547195,-3.453997487667948E-4,0.5099930763244629,1016.70715,
2021.02.08 13:05:46,50.0,14.0,-7.478386,13.969313,-27.272581,0.0318954,0.561722,9.80516,-0.0038076856,-0.006748868,-0.0010845691,-0.057225555181503296,-0.0032529085874557495,0.4446834623813629,1016.7109,
2021.02.08 13:05:46,50.0,14.0,-7.3343506,13.876686,-27.757395,0.03396948,0.54678255,9.801509,-0.011444806,-0.008609493,-0.0018565855,-0.05572745203971863,-0.003465726040303707,0.43930166959762573,1016.71405,
2021.02.08 13:05:46,50.0,14.0,-7.050003,13.503492,-25.917715,-0.029166251,0.533511,9.728091,-0.00628856,-0.0012237702,-0.0054099965,-0.054787177592515945,0.0029981383122503757,0.44615793228149414,1016.7168,
2021.02.08 13:05:46,50.0,14.0,-7.911461,12.663593,-26.211004,0.009845241,0.54472715,9.781319,-0.00881743,-0.00801638,0.0018700144,-0.0556330643594265,-0.0010065349051728845,0.5098412036895752,1016.71857,
2021.02.08 13:05:46,50.0,14.0,-9.762192,12.865728,-26.23284,0.04204284,0.5134464,9.786471,0.010626671,0.0017674053,0.0039163986,-0.052416373044252396,-0.0042959898710250854,0.5960531830787659,1016.71936,
2021.02.08 13:05:46,50.0,14.0,-5.933525,14.083923,-26.911077,0.04235981,0.49585876,9.672414,-0.010395355,0.017773366,-0.0035129767,-0.05121992155909538,-0.004379417281597853,0.3601270318031311,1016.72034,
2021.02.08 13:05:46,50.0,14.0,-6.708519,13.897331,-27.122393,-0.02422934,0.53946126,9.888457,0.005744108,1.7890031E-4,0.007104483,-0.05450045317411423,0.0024502601008862257,0.4155718982219696,1016.7206,
2021.02.08 13:05:46,50.0,14.0,-7.0998077,13.854396,-27.22236,0.06199969,0.4961355,9.656173,-0.0031298825,0.0069241803,9.839997E-4,-0.051333941519260406,-0.006420642603188753,0.42661407589912415,1016.7211,
2021.02.08 13:05:46,50.0,14.0,-6.6570663,14.197065,-26.080088,0.0050419774,0.5062197,9.800508,-0.005577944,5.7149574E-4,0.005719233,-0.05160652473568916,-5.14460785780102E-4,0.40438321232795715,1016.7212,
2021.02.08 13:05:46,50.0,14.0,-8.225693,14.121722,-25.603914,0.016850512,0.5076938,9.717533,-5.5252714E-4,0.0037843527,0.0018898213,-0.05219760164618492,-0.0017340302001684904,0.4872860908508301,1016.7214,
2021.02.08 13:05:46,50.0,14.0,-7.404976,13.2701,-27.073046,0.039132934,0.51755685,9.931497,-0.019746874,-0.0076098246,0.0066111726,-0.0520651750266552,-0.003940265160053968,0.46184372901916504,1016.7215,
2021.02.08 13:05:47,50.0,14.0,-7.373184,14.486289,-26.717169,0.037569758,0.46145698,9.4812155,0.028246848,-0.005132568,0.004565356,-0.04863189905881882,-0.003962525632232428,0.43183720111846924,1016.72205,
2021.02.08 13:05:47,50.0,14.0,-7.2345505,13.420158,-26.05446,-0.03680313,0.5669863,9.940692,0.005252927,0.011655211,-0.009048558,-0.056974783539772034,0.003702253568917513,0.45775508880615234,1016.72217,
2021.02.08 13:05:47,50.0,14.0,-6.942398,14.842958,-26.48316,0.0061755627,0.5796981,9.74351,0.038582478,-0.02143846,0.011508282,-0.05942574888467789,-6.33812858723104E-4,0.3997972905635834,1016.72235,
2021.02.08 13:05:47,50.0,14.0,-7.6181335,12.615468,-27.328196,0.060334906,0.45989928,9.672032,-0.019927371,0.015291998,-0.018284747,-0.047512684017419815,-0.006237998139113188,0.49182751774787903,1016.72235,
2021.02.08 13:05:47,50.0,14.0,-6.982895,13.542823,-27.1468,-0.011867604,0.59669137,9.836226,0.02096083,0.0075892806,-0.010186583,-0.06058834120631218,0.0012065194314345717,0.4333942234516144,1016.7229,
2021.02.08 13:05:47,50.0,14.0,-7.606697,12.8471155,-27.451761,0.025884489,0.5350684,9.745317,4.5894308E-4,-2.8467865E-4,-0.0014164248,-0.054849911481142044,-0.002656088676303625,0.4839104115962982,1016.7233,
2021.02.08 13:05:47,50.0,14.0,-7.5570297,13.774497,-26.77661,-0.054650098,0.49601397,9.669123,0.001678431,0.006632773,-0.009442342,-0.05125301331281662,0.005651962012052536,0.4713006615638733,1016.72363,
2021.02.08 13:05:47,50.0,14.0,-7.466896,13.379736,-25.911554,-0.007255726,0.5383664,9.762179,-0.019432846,0.006388399,-0.0054448172,-0.055092353373765945,7.43248441722244E-4,0.4686766266822815,1016.7243,
2021.02.08 13:05:47,50.0,14.0,-6.4035034,13.824113,-26.632654,-0.03978112,0.50447917,9.732425,-0.029845158,1.5877123E-4,-2.279823E-4,-0.05178810656070709,0.0040874602273106575,0.40519070625305176,1016.7245,
2021.02.08 13:05:47,50.0,14.0,-6.2299347,14.220397,-26.425093,-0.027881572,0.5301288,9.840012,-0.008918223,-0.0019769752,0.0012621508,-0.05382256209850311,0.0028334823437035084,0.3836268484592438,1016.72656,
2021.02.08 13:05:47,50.0,14.0,-6.30999,14.744943,-26.971762,-0.018187378,0.47753653,9.683249,-0.023934493,0.0021192422,-5.946092E-4,-0.049275726079940796,0.0018782286206260324,0.37720775604248047,1016.7283,
2021.02.08 13:05:47,50.0,14.0,-8.36808,14.514544,-26.444132,-0.033599753,0.49100706,9.871833,-2.0466233E-4,-0.0025067907,-0.0025553189,-0.049696944653987885,0.003403585171326995,0.4912688434123993,1016.7283,
2021.02.08 13:05:47,50.0,14.0,-7.5278244,13.394377,-26.941183,-0.038013317,0.47795355,9.753944,0.0065027867,-0.0021224096,-9.454041E-4,-0.04896152392029762,0.0038972054608166218,0.4790443778038025,1016.72864,
2021.02.08 13:05:47,50.0,14.0,-7.283272,15.047886,-27.614305,-0.009072355,0.44947484,9.723136,0.0127860205,-0.0014348987,-0.0014390588,-0.046194449067115784,9.330685716122389E-4,0.4213751554489136,1016.72906,
2021.02.08 13:05:48,50.0,14.0,-7.526726,14.31965,-26.365675,-0.035721004,0.47764707,9.751354,0.008416484,-0.002100328,-0.0048713908,-0.04894319921731949,0.003663167590275407,0.45476922392845154,1016.7293,
2021.02.08 13:05:48,50.0,14.0,-7.313507,15.220481,-28.848566,-0.012492119,0.45781684,9.734712,-0.001104469,-0.0040777996,-3.5150535E-4,-0.046994648873806,0.0012832545908167958,0.41778069734573364,1016.7303,
2021.02.08 13:05:48,50.0,14.0,-6.0892944,14.158419,-27.196386,-0.045134943,0.4889698,9.761642,-0.0047156587,-9.0783404E-5,-0.0016396476,-0.050048571079969406,0.004623670596629381,0.3813426196575165,1016.7303,
2021.02.08 13:05:48,50.0,14.0,-6.748497,13.934728,-26.146852,-0.046210393,0.47959375,9.752602,0.0015467707,-0.0017247025,0.0035782577,-0.04913584887981415,0.004738227464258671,0.4246065318584442,1016.731,
2021.02.08 13:05:48,50.0,14.0,-7.46035,14.763722,-26.39842,-0.00372391,0.5103138,9.762694,-0.0010968174,-0.0039793774,-0.0010881596,-0.052224285900592804,3.81442834623158E-4,0.4339277744293213,1016.73157,
2021.02.08 13:05:48,50.0,14.0,-7.580078,15.101886,-27.000944,-0.038893666,0.5087901,9.772694,0.0033144467,-4.0929727E-4,7.7961944E-5,-0.052015043795108795,0.003979809582233429,0.4363821744918823,1016.73224,
2021.02.08 13:05:48,50.0,14.0,-6.585724,14.58481,-27.483866,-0.021432998,0.49935254,9.72297,0.0073398557,-0.007405903,0.0015353003,-0.05131281539797783,0.0022043639328330755,0.39427050948143005,1016.7324,
2021.02.08 13:05:48,50.0,14.0,-7.4157867,12.813593,-26.49024,-0.058308225,0.5059592,9.757375,-0.004144351,-2.5610696E-4,-0.0018523893,-0.05180670693516731,0.005975739564746618,0.49099209904670715,1016.7332,
2021.02.08 13:05:48,50.0,14.0,-6.2103043,13.137792,-27.160181,-0.022492915,0.49243903,9.771077,-0.0030552882,-0.001226477,0.0033747149,-0.050354886800050735,0.00230198516510427,0.40861135721206665,1016.73706,
2021.02.08 13:05:48,50.0,14.0,-7.2256927,14.309303,-26.621164,-0.018815747,0.49972558,9.73835,-0.0069633583,-0.0060582906,0.0068215732,-0.05127016082406044,0.0019321264699101448,0.43515151739120483,1016.7371,
2021.02.08 13:05:48,50.0,14.0,-7.5500107,14.095684,-27.273062,-0.03378642,0.49284855,9.760915,-0.0094975,-0.0026670569,0.011796786,-0.05044890195131302,0.0034613849129527807,0.45941904187202454,1016.7371,
2021.02.08 13:05:48,50.0,14.0,-6.1893387,14.067524,-26.518896,0.009534304,0.48800555,9.786701,0.0020234014,-0.0028502392,0.007819569,-0.0498228557407856,-9.742098627611995E-4,0.3813514709472656,1016.73724,
2021.02.08 13:05:48,50.0,14.0,-7.7085342,13.158761,-25.815912,-0.008889705,0.46558094,9.715492,-0.009391626,-0.0061767595,0.007034831,-0.04788484796881676,9.150027763098478E-4,0.4933795630931854,1016.7377,
2021.02.08 13:05:48,50.0,14.0,-6.0768967,14.393408,-27.4056,0.0086160125,0.4679583,9.765941,-0.006545867,-0.0060105864,0.004236614,-0.047880735248327255,-8.822508971206844E-4,0.36820265650749207,1016.7379,
2021.02.08 13:05:49,50.0,14.0,-7.0719833,13.9411955,-27.593683,0.010124011,0.46266833,9.741122,-0.008467516,-0.0019860838,-7.695035E-4,-0.04746071621775627,-0.0010393060510978103,0.4330448806285858,1016.7398,
2021.02.08 13:05:49,50.0,14.0,-7.5663757,13.131727,-27.196096,-0.02081261,0.46090278,9.811687,-0.0024872755,-0.0055568814,-0.0034938299,-0.046940263360738754,0.0021212028805166483,0.4871390461921692,1016.73987,
2021.02.08 13:05:49,50.0,14.0,-7.6735687,14.460886,-26.161524,-0.015194018,0.4590695,9.747003,0.001315072,-0.005440439,1.9524619E-4,-0.04706369340419769,0.0015588387614116073,0.45733940601348877,1016.7399,
2021.02.08 13:05:49,50.0,14.0,-7.2538986,13.767793,-26.730799,0.01988633,0.4480652,9.771605,0.002953507,-0.0046628444,-0.0035913305,-0.04582161083817482,-0.00203511118888855,0.44805341958999634,1016.7401,
2021.02.08 13:05:49,50.0,14.0,-7.3903503,14.314277,-27.557085,-0.02732884,0.45837784,9.778853,0.00920208,-0.0011853937,-0.0023670106,-0.04683992639183998,0.0027946801856160164,0.4467448592185974,1016.7404,
2021.02.08 13:05:49,50.0,14.0,-7.4824905,13.703073,-26.710726,-0.0064735063,0.4375955,9.701148,1.981199E-4,0.003002733,5.54463E-4,-0.04507702961564064,6.672927411273122E-4,0.4665459096431732,1016.7404,
2021.02.08 13:05:49,50.0,14.0,-6.9580536,13.003095,-27.138605,0.0050427816,0.48534378,9.831086,-0.004376808,0.003243571,0.0024274783,-0.04932821914553642,-5.129424389451742E-4,0.45136165618896484,1016.7405,
2021.02.08 13:05:49,50.0,14.0,-7.1748962,13.4145775,-27.592215,-0.023437843,0.45414904,9.724761,0.0083781965,0.006993369,-4.1821122E-4,-0.04666623845696449,0.0024101154413074255,0.45808783173561096,1016.7406,
2021.02.08 13:05:49,50.0,14.0,-7.665329,13.510291,-26.381224,-0.014147982,0.49048257,9.807145,0.0014943905,0.0061383946,-0.001001699,-0.0499710887670517,0.0014426189009100199,0.4796178936958313,1016.7406,
2021.02.08 13:05:49,50.0,14.0,-8.095467,14.320192,-26.186789,-0.021159803,0.47001323,9.6887045,-2.2447412E-4,0.009182588,5.1131856E-4,-0.04847335070371628,0.0021839626133441925,0.48232191801071167,1016.7406,
2021.02.08 13:05:49,50.0,14.0,-6.727661,13.337706,-26.279486,0.039957453,0.4947864,9.822883,0.0142853875,0.0060924646,-0.009346901,-0.0503278449177742,-0.004067770205438137,0.4246021807193756,1016.7406,
2021.02.08 13:05:49,50.0,14.0,-7.055275,14.622,-26.29756,-0.0028033257,0.5271774,9.734715,0.00508785,0.026733128,-0.022447128,-0.054101526737213135,2.8797201230190694E-4,0.41518276929855347,1016.7407,
2021.02.08 13:05:49,50.0,14.0,-7.126068,14.99839,-27.23533,-0.11876007,0.5132807,9.802125,0.01507995,0.031976342,-7.933351E-4,-0.052312612533569336,0.012115155346691608,0.42673632502555847,1016.74097,
2021.02.08 13:05:50,50.0,14.0,-7.696907,14.165644,-27.136541,-0.10253966,0.47834444,9.799466,0.102169454,0.048948478,-0.0020445737,-0.0487719401717186,0.010463418439030647,0.4763169288635254,1016.74194,
2021.02.08 13:05:50,50.0,14.0,-6.982712,13.790701,-27.847246,-0.09542202,0.57005703,9.515361,0.0042888448,0.08709774,-0.0062928535,-0.05983461067080498,0.010027872398495674,0.43994060158729553,1016.74194,
2021.02.08 13:05:50,50.0,14.0,-6.791519,13.241762,-26.838255,-0.18222797,0.5785315,9.7191725,-0.04019512,0.043107938,0.019856216,-0.05944419279694557,0.018747134134173393,0.4577377736568451,1016.74194,
