Time,X-cord,Y-cord,Mag_x,Mag_y,Mag_z,Acc_x,Acc_y,Acc_z,Gyro_x,Gyro_y,Gyro_z,Orn_x,Orn_y,Orn_z,Pressure,
2021.02.08 13:08:52,50.0,15.0,0.97626495,18.257057,-25.821478,0.19925286,0.54157686,10.535388,-0.14385779,-0.09574412,0.032932438,-0.051351118832826614,-0.018910467624664307,-0.07473622262477875,1017.111,
2021.02.08 13:08:53,50.0,15.0,1.4373779,17.26954,-25.69127,-0.10896697,0.38324627,9.489755,0.07937877,0.07313763,-0.028171852,-0.040360674262046814,0.011482086032629013,-0.06236467510461807,1017.1007,
2021.02.08 13:08:53,50.0,15.0,1.5703049,16.894602,-24.732306,0.09610515,0.26762614,9.364293,-0.06684997,-0.11716646,0.045184467,-0.0285701472312212,-0.010262575931847095,-0.10330626368522644,1017.10724,
2021.02.08 13:08:53,50.0,15.0,1.5705566,17.903328,-24.93057,0.25217775,0.13903272,9.990982,-0.17240317,-0.10712893,0.03818429,-0.01391049288213253,-0.02523517794907093,-0.11993622034788132,1017.10736,
2021.02.08 13:08:53,50.0,15.0,1.6746826,16.80769,-24.628546,0.0592045,0.17804979,9.7738695,-0.12869135,-0.038333368,-0.008258014,-0.018214568495750427,-0.006057352758944035,-0.10531831532716751,1017.10815,
2021.02.08 13:08:53,50.0,15.0,0.4377823,16.903631,-24.920954,0.04199482,0.16461736,9.841641,-0.022945793,-0.0065547787,0.0032556136,-0.016724904999136925,-0.004267028532922268,-0.03140876814723015,1017.1142,
2021.02.08 13:08:53,50.0,15.0,1.6996002,17.21896,-24.891356,0.23668504,0.09409391,9.743491,-0.015267775,0.007768889,-0.0075085154,-0.00965395662933588,-0.024286828935146332,-0.13119158148765564,1017.11664,
2021.02.08 13:08:53,50.0,15.0,-0.1974411,17.881088,-25.578207,0.10799658,0.13976578,9.901572,-0.008547239,-0.00851252,-0.03598885,-0.014113737270236015,-0.010906580835580826,-0.0044700647704303265,1017.1175,
2021.02.08 13:08:53,50.0,15.0,0.5760269,18.051855,-24.475367,0.16086696,0.1107179,9.579936,0.03691403,-0.01135933,-0.03134235,-0.011555125936865807,-0.016790492460131645,-0.05377798527479172,1017.1175,
2021.02.08 13:08:53,50.0,15.0,0.45156097,17.807034,-26.041483,0.13545221,0.14798477,9.7737,-0.025301311,-0.00905056,-0.025060449,-0.01513851061463356,-0.013857959769666195,-0.04460935294628143,1017.1175,
2021.02.08 13:08:53,50.0,15.0,1.228508,18.634405,-24.552565,0.17519327,0.20336045,9.896144,0.0096832635,-0.008535071,-0.03316648,-0.020543355494737625,-0.01770133525133133,-0.08668923377990723,1017.1175,
2021.02.08 13:08:53,50.0,15.0,0.4005661,17.822971,-25.656713,0.15605855,0.15558292,9.724114,-0.0064158333,-0.0062380238,-0.040654074,-0.01599627546966076,-0.01604723557829857,-0.044522110372781754,1017.1175,
2021.02.08 13:08:53,50.0,15.0,2.1884766,18.216331,-23.643995,0.15432563,0.1935217,9.853318,0.003676568,-0.0019085344,-0.045574643,-0.01963532343506813,-0.015661019831895828,-0.136143296957016,1017.118,
2021.02.08 13:08:53,50.0,15.0,0.64473724,17.714993,-24.496244,0.1504378,0.18166304,9.688338,-0.015763812,0.009667699,-0.04836269,-0.018746234476566315,-0.01552647165954113,-0.056348539888858795,1017.118,
2021.02.08 13:08:54,50.0,15.0,1.0275497,17.717045,-24.433237,0.051994484,0.15501612,9.751031,6.07901E-4,0.0014698515,-0.039032184,-0.015895843505859375,-0.005332153290510178,-0.06386985629796982,1017.118,
2021.02.08 13:08:54,50.0,15.0,0.25813293,19.08799,-23.473288,0.13928963,0.13124056,9.751639,-0.004082575,0.0055727223,-0.014469247,-0.013456122949719429,-0.014282743446528912,-0.030572744086384773,1017.118,
2021.02.08 13:08:54,50.0,15.0,2.1865768,16.75993,-25.37292,0.20417745,0.15677147,9.838937,-0.009052312,0.006908711,-0.0104393,-0.015929004177451134,-0.020749006420373917,-0.15676546096801758,1017.118,
2021.02.08 13:08:54,50.0,15.0,1.8411484,17.190502,-24.10153,0.13079053,0.16471367,9.79194,0.004771617,-0.0076740617,-0.016457457,-0.016818268224596977,-0.01335616409778595,-0.12232626229524612,1017.118,
2021.02.08 13:08:54,50.0,15.0,1.4889526,17.184044,-24.392954,0.1464367,0.10151789,9.79156,0.0229505,-0.009107871,-0.011381466,-0.010366366244852543,-0.014954286627471447,-0.10590992867946625,1017.118,
2021.02.08 13:08:54,50.0,15.0,1.4893112,17.110195,-24.88878,0.15522952,0.10121626,9.651322,-0.014496649,-0.010402655,-0.011770335,-0.010485554113984108,-0.016082368791103363,-0.10834655910730362,1017.118,
2021.02.08 13:08:54,50.0,15.0,1.3966599,19.026857,-25.775698,0.12736227,0.20065956,9.888976,0.027424652,-0.0038135266,-0.008803582,-0.020286772400140762,-0.01287850458174944,-0.0882050022482872,1017.118,
2021.02.08 13:08:54,50.0,15.0,1.7989044,17.775349,-25.26145,0.20454812,0.18441586,9.69622,0.0016190513,0.038090367,-0.010933717,-0.019012833014130592,-0.021092524752020836,-0.12704314291477203,1017.118,
2021.02.08 13:08:54,50.0,15.0,0.9164047,16.3128,-24.710363,0.15547672,0.23271656,9.962898,0.046261642,0.028633928,-0.023005126,-0.02335122972726822,-0.01560430508106947,-0.07695005089044571,1017.118,
2021.02.08 13:08:54,50.0,15.0,1.5943222,16.575668,-25.198774,0.03870347,0.26291075,9.714654,0.03442979,0.014027141,-0.015659269,-0.02705649472773075,-0.00398400891572237,-0.0979229286313057,1017.118,
2021.02.08 13:08:54,50.0,15.0,0.95150757,18.281542,-25.618242,0.07610657,0.2034054,9.6776905,0.016807314,0.018403409,-0.008594696,-0.021014224737882614,-0.007863963022828102,-0.06119893863797188,1017.118,
2021.02.08 13:08:54,50.0,15.0,1.1554642,17.720764,-24.652613,0.022704862,0.2532916,9.599715,-0.0132825775,0.01737391,-0.0012373005,-0.02637912891805172,-0.0023651556111872196,-0.06599625200033188,1017.118,
2021.02.08 13:08:54,50.0,15.0,0.44625092,17.119858,-25.906683,0.09317879,0.32664394,9.930572,-0.006620173,0.008586189,0.0019274536,-0.032879460602998734,-0.009382748045027256,-0.03835667669773102,1017.118,
2021.02.08 13:08:54,50.0,15.0,0.8988495,17.000414,-25.324514,0.0911599,0.29712388,9.806352,0.016073199,-0.0027366178,-0.0036832578,-0.03028855100274086,-0.00929573830217123,-0.06377963721752167,1017.118,
2021.02.08 13:08:55,50.0,15.0,1.4795151,18.066462,-25.416246,0.08046944,0.32295907,9.861381,-0.0037924629,0.013491666,-0.0060003563,-0.03273709490895271,-0.008159876801073551,-0.08907084912061691,1017.1175,
2021.02.08 13:08:55,50.0,15.0,0.60910034,18.533388,-25.056849,0.022060564,0.21924202,9.775306,0.036556564,-0.0076736435,-0.0054831225,-0.022424332797527313,-0.0022567606065422297,-0.0348537415266037,1017.11743,
2021.02.08 13:08:55,50.0,15.0,1.0128479,17.725136,-25.466936,0.021825537,0.26491886,9.680934,0.02802236,-0.007872765,-0.004733255,-0.02735811471939087,-0.0022544830571860075,-0.05805337429046631,1017.11676,
2021.02.08 13:08:55,50.0,15.0,1.5370789,16.35973,-24.819582,0.08099029,0.2707064,9.846326,0.013043482,0.0012902399,0.0032227137,-0.027485283091664314,-0.00822524819523096,-0.10185612738132477,1017.11615,
2021.02.08 13:08:55,50.0,15.0,2.2267227,17.978436,-25.221907,0.071283124,0.29451957,9.681235,0.017276358,-0.0058189537,-0.008034896,-0.03041149117052555,-0.007362886797636747,-0.1280476599931717,1017.1157,
2021.02.08 13:08:55,50.0,15.0,0.92794037,18.19556,-25.223928,3.4027547E-4,0.28803074,9.806351,0.02705027,0.0015540235,-0.007652783,-0.029363417997956276,-3.469950024737045E-5,-0.04903095215559006,1017.1154,
2021.02.08 13:08:55,50.0,15.0,-0.6594925,17.571945,-24.840967,0.011137731,0.323343,9.731046,0.01904895,0.0025589308,0.0017179414,-0.033215735107660294,-0.0011445560958236456,0.034307096153497696,1017.11505,
2021.02.08 13:08:55,50.0,15.0,2.047783,17.13817,-25.468447,0.045134116,0.38380492,9.773289,0.011526857,-9.103733E-4,-0.0068027205,-0.039250217378139496,-0.004618076607584953,-0.11891210824251175,1017.11334,
2021.02.08 13:08:55,50.0,15.0,1.2218552,17.156143,-25.381857,0.049188178,0.34785017,9.7409,0.007656808,-0.0021996591,-0.010107051,-0.03569464758038521,-0.005049611441791058,-0.07465042918920517,1017.11316,
2021.02.08 13:08:55,50.0,15.0,1.6059799,17.156729,-25.142134,0.020829706,0.3470273,9.690628,0.0068203784,0.004989275,-0.012134071,-0.03579523414373398,-0.0021494657266885042,-0.09173309057950974,1017.11316,
2021.02.08 13:08:55,50.0,15.0,1.1773758,17.413847,-25.691,0.0902793,0.36665893,9.810184,-0.019196533,-0.01059389,-0.005221229,-0.03735636919736862,-0.009202351793646812,-0.07684631645679474,1017.1122,
2021.02.08 13:08:55,50.0,15.0,0.7058945,17.161655,-25.319502,0.0542234,0.32455957,9.673767,-0.010714758,-0.01327426,-0.010505063,-0.033537376672029495,-0.005605141166597605,-0.04706311225891113,1017.1109,
2021.02.08 13:08:55,50.0,15.0,1.6204453,17.154385,-24.913298,0.11829525,0.34776425,9.790471,-0.025152244,-0.013719443,-0.019933246,-0.035503171384334564,-0.012082104571163654,-0.10617879033088684,1017.1101,
2021.02.08 13:08:55,50.0,15.0,-0.019676208,18.319242,-25.20798,0.056554407,0.33512795,9.824878,-0.002792172,0.0021475772,-0.02248463,-0.03409635275602341,-0.005756181664764881,-0.006543394178152084,1017.1084,
2021.02.08 13:08:56,50.0,15.0,2.2000275,18.831627,-25.177473,0.032002866,0.30116892,9.758273,-0.007072096,-0.004613591,-0.014639312,-0.030852971598505974,-0.003279550699517131,-0.11594143509864807,1017.10583,
2021.02.08 13:08:56,50.0,15.0,0.17376709,16.865108,-26.10454,0.022005392,0.299471,9.710809,0.0027547365,0.0046709487,-0.013471525,-0.030829085037112236,-0.0022660682443529367,-0.013187140226364136,1017.10394,
2021.02.08 13:08:56,50.0,15.0,0.6829376,16.933167,-25.991354,0.07915354,0.32541496,9.825703,-0.005525735,-0.0028536958,-0.007592166,-0.03310557082295418,-0.008055589161813259,-0.05013170465826988,1017.10376,
2021.02.08 13:08:56,50.0,15.0,-0.4015808,17.890995,-25.219515,0.026582262,0.28575614,9.701726,-0.0042964164,-0.001103504,-0.0059580305,-0.029445530846714973,-0.002739944960922003,0.017848609015345573,1017.10223,
2021.02.08 13:08:56,50.0,15.0,0.6627579,18.814747,-24.66126,0.063733034,0.2812597,9.776723,-0.013193037,-0.001030315,-0.001146289,-0.028759755194187164,-0.006518762093037367,-0.042171355336904526,1017.1022,
2021.02.08 13:08:56,50.0,15.0,0.6502304,18.080334,-26.467577,0.051760558,0.26979184,9.748528,-0.013925632,-0.0025380398,-0.00108765,-0.027667686343193054,-0.005309527274221182,-0.04202413186430931,1017.10205,
2021.02.08 13:08:56,50.0,15.0,0.8546219,18.1553,-24.931414,0.073817916,0.29864058,9.824233,-0.0077005797,0.002806491,-0.0016639282,-0.03038814477622509,-0.007513719145208597,-0.055060259997844696,1017.1017,
2021.02.08 13:08:56,50.0,15.0,0.562706,17.663773,-24.152723,0.070118725,0.2663908,9.772517,-0.0052468358,0.0043728547,-0.0015044913,-0.027251729741692543,-0.007174970582127571,-0.040162764489650726,1017.1017,
2021.02.08 13:08:56,50.0,15.0,0.08690643,17.354965,-23.747107,0.014696498,0.2736013,9.767417,0.0046413275,0.0058229566,-0.0046402025,-0.028004277497529984,-0.001504644169472158,-0.006808125879615545,1017.1008,
2021.02.08 13:08:56,50.0,15.0,1.3154297,17.705172,-25.773973,0.054440066,0.24668533,9.737428,0.0013789647,0.011090454,-0.003878714,-0.025327913463115692,-0.005590747110545635,-0.0793612003326416,1017.1006,
2021.02.08 13:08:56,50.0,15.0,0.8972626,17.46209,-26.04664,0.032346457,0.26650313,9.827429,0.004493582,0.0044881226,-0.0016949365,-0.02711150422692299,-0.0032914348412305117,-0.05407159775495529,1017.1001,
2021.02.08 13:08:56,50.0,15.0,0.45192719,17.306557,-25.26814,0.035858408,0.25154212,9.7497635,0.0028397276,0.003778729,-0.0011844919,-0.02579392120242119,-0.0036778580397367477,-0.030340682715177536,1017.0995,
2021.02.08 13:08:56,50.0,15.0,0.6233063,18.074638,-25.382723,0.08472834,0.2490828,9.755284,-0.0040684035,0.0069835503,-0.01372757,-0.025526605546474457,-0.008685160428285599,-0.04504925385117531,1017.0991,
2021.02.08 13:08:57,50.0,15.0,0.7401047,17.229977,-26.828978,-0.004891069,0.2724984,9.765779,-0.0074719093,0.006559439,-0.0138484165,-0.027896154671907425,5.008375737816095E-4,-0.04041218385100365,1017.0984,
2021.02.08 13:08:57,50.0,15.0,0.81868744,18.380579,-23.90539,0.0025389045,0.26985756,9.748313,-0.014528415,0.0022165473,-0.009054938,-0.02767542190849781,-2.6044552214443684E-4,-0.043309468775987625,1017.0937,
2021.02.08 13:08:57,50.0,15.0,0.43087006,18.256485,-25.026117,-0.010976005,0.27131593,9.833149,-0.0043691956,0.0013628013,-0.0051092487,-0.027584953233599663,0.0011162243317812681,-0.021271293982863426,1017.0937,
2021.02.08 13:08:57,50.0,15.0,1.2982864,18.500675,-24.952467,0.0022135861,0.26188612,9.833908,0.010165212,-0.005835886,-0.001415129,-0.026624636724591255,-2.250973047921434E-4,-0.06795435398817062,1017.0935,
2021.02.08 13:08:57,50.0,15.0,0.8622894,17.483406,-25.483576,-0.02691921,0.22168815,9.770967,0.026691023,-0.002018046,0.0028218194,-0.022684477269649506,0.002755013294517994,-0.043837375938892365,1017.09296,
2021.02.08 13:08:57,50.0,15.0,1.4154129,18.185108,-25.391813,-0.0029183712,0.22778372,9.507193,-0.032265417,0.0025933727,0.004534649,-0.02395451068878174,3.069645317737013E-4,-0.07478106766939163,1017.0929,
2021.02.08 13:08:57,50.0,15.0,0.7303238,17.872581,-25.39615,0.075625114,0.32933393,10.091858,0.029987909,0.008386395,-0.0045541706,-0.03262113779783249,-0.0074935355223715305,-0.049213867634534836,1017.0925,
2021.02.08 13:08:57,50.0,15.0,0.91659546,18.792385,-25.829107,0.03265116,0.21969731,9.563064,-0.014089467,0.0048266547,-0.005626639,-0.022969353944063187,-0.003414285834878683,-0.051798202097415924,1017.0915,
2021.02.08 13:08:57,50.0,15.0,1.4308472,17.829315,-25.874659,-0.037389074,0.2928718,9.827954,-0.0049849325,0.0010389714,-0.0017467563,-0.02979084476828575,0.003804341424256563,-0.0715419203042984,1017.0915,
2021.02.08 13:08:57,50.0,15.0,1.1222229,16.10482,-25.19771,0.03727374,0.26544327,9.801025,0.0015593971,-0.005833598,-6.3855853E-4,-0.027076400816440582,-0.00380302662961185,-0.07245761901140213,1017.0915,
2021.02.08 13:08:57,50.0,15.0,0.5691147,18.310589,-24.872496,-0.01649451,0.26914084,9.686433,-0.014115779,-1.9389938E-4,-0.0039772014,-0.027778152376413345,0.0017028450965881348,-0.027725310996174812,1017.0915,
2021.02.08 13:08:57,50.0,15.0,0.12613678,17.230183,-24.863894,-0.05615117,0.27817118,9.780529,-0.00563079,-0.0057431813,0.0053889495,-0.028433190658688545,0.005741054657846689,9.263473912142217E-4,1017.0915,
2021.02.08 13:08:57,50.0,15.0,0.41940308,17.94588,-26.650461,0.0107995095,0.23569588,9.760779,-0.003436525,-0.010384805,0.00775201,-0.02414253167808056,-0.00110641831997782,-0.024149935692548752,1017.0915,
2021.02.08 13:08:57,50.0,15.0,0.9788208,17.24474,-25.356646,0.06796725,0.25272143,9.794286,-8.263416E-4,-0.019419478,0.010416269,-0.02579660154879093,-0.006939368322491646,-0.06444782763719559,1017.0915,
2021.02.08 13:08:58,50.0,15.0,0.73744965,17.387482,-24.036905,-0.015778938,0.25847685,9.767905,-0.0010510229,-0.0069170613,0.001522541,-0.02645564079284668,0.001615384710021317,-0.03875561058521271,1017.0911,
2021.02.08 13:08:58,50.0,15.0,0.87120056,17.932003,-25.194998,0.06298595,0.24318492,9.759756,0.0015527933,-0.004198529,1.9816682E-4,-0.024911437183618546,-0.0064535499550402164,-0.05566013976931572,1017.0911,
2021.02.08 13:08:58,50.0,15.0,1.2490845,16.368067,-24.288568,0.0063729286,0.23862487,9.743779,-0.007145013,-0.0063747484,-0.0042418395,-0.024485070258378983,-6.540509057231247E-4,-0.0744573324918747,1017.0911,
2021.02.08 13:08:58,50.0,15.0,2.0638885,18.45724,-26.459406,0.016383823,0.229304,9.725948,0.0048258374,0.0062104724,-0.012840817,-0.02357211895287037,-0.0016845460049808025,-0.11008436232805252,1017.0911,
2021.02.08 13:08:58,50.0,15.0,1.3809967,18.035976,-25.281298,-0.024284871,0.26064363,9.771164,4.8787062E-4,-0.0035731113,0.009344732,-0.026668371632695198,0.0024853558279573917,-0.07035921514034271,1017.0911,
2021.02.08 13:08:58,50.0,15.0,1.7210312,16.742058,-24.906797,0.04632463,0.2552121,9.782776,-0.0053839185,3.0136865E-4,0.009982618,-0.026081692427396774,-0.004735290072858334,-0.10538210719823837,1017.0911,
2021.02.08 13:08:58,50.0,15.0,1.3048782,18.19965,-24.712355,0.054601118,0.25513914,9.775458,-0.004837804,-5.658751E-4,0.005858064,-0.026093635708093643,-0.005585472099483013,-0.07644519209861755,1017.0911,
2021.02.08 13:08:58,50.0,15.0,0.783432,17.070883,-24.265718,0.003929036,0.24655242,9.751904,-0.0053419657,0.0021339804,0.0054316795,-0.02527710236608982,-4.0289940079674125E-4,-0.04483791068196297,1017.0915,
2021.02.08 13:08:58,50.0,15.0,0.6013565,17.649387,-24.276228,0.024094174,0.24630968,9.803833,6.3806225E-4,-0.0020225295,0.009125408,-0.025118455290794373,-0.002457622904330492,-0.036197319626808167,1017.0916,
2021.02.08 13:08:58,50.0,15.0,1.1499023,17.77898,-24.4792,0.040807758,0.27462724,9.791447,-0.0030595507,-0.0045969216,0.0060517364,-0.028040073812007904,-0.004167670384049416,-0.0677206739783287,1017.0919,
2021.02.08 13:08:58,50.0,15.0,0.60582733,17.323015,-25.319914,0.055221383,0.2635971,9.848786,0.016516838,-0.009300459,0.0048085866,-0.02675761468708515,-0.005606863647699356,-0.04153311625123024,1017.0919,
2021.02.08 13:08:58,50.0,15.0,0.8510208,17.28762,-25.760138,0.036994632,0.2876587,9.767074,0.04129315,-0.01012546,1.02981925E-4,-0.029443159699440002,-0.003787670284509659,-0.0525386743247509,1017.0926,
2021.02.08 13:08:59,50.0,15.0,1.3212967,17.896887,-25.63643,0.043007985,0.28481826,9.70025,0.04462521,-0.016505603,0.0031975103,-0.029353231191635132,-0.0044336700811982155,-0.07682483643293381,1017.09265,
2021.02.08 13:08:59,50.0,15.0,0.5358429,16.87199,-25.122278,0.10296446,0.34084967,9.828713,0.010696067,-0.010177758,-0.0017420144,-0.03466317802667618,-0.010475500486791134,-0.04502737894654274,1017.09265,
2021.02.08 13:08:59,50.0,15.0,1.5671387,17.132893,-24.569857,0.0026739065,0.30074373,9.7185135,0.016007468,-0.010402881,-0.0014962447,-0.03093557432293892,-2.751353313215077E-4,-0.08777666091918945,1017.09265,
2021.02.08 13:08:59,50.0,15.0,0.037734985,16.651794,-24.722536,0.029701887,0.3260682,9.780792,0.011111742,6.135815E-4,1.8034596E-4,-0.033325109630823135,-0.0030367474537342787,-0.006458690389990807,1017.09265,
2021.02.08 13:08:59,50.0,15.0,0.763916,18.388159,-24.871614,0.03799283,0.3176743,9.735597,0.010199339,-0.0043692463,0.006181503,-0.032618362456560135,-0.0039024457801133394,-0.04483688995242119,1017.09265,
2021.02.08 13:08:59,50.0,15.0,0.27464294,17.79708,-25.503935,0.03130714,0.33687088,9.726455,-0.0012732951,-0.0032251948,0.0077566993,-0.03462047874927521,-0.0032187504693865776,-0.01910577528178692,1017.0928,
2021.02.08 13:08:59,50.0,15.0,-0.4575653,17.716692,-24.3789,0.06250947,0.36141482,9.678159,0.015217767,-0.0033433076,0.013406897,-0.03732522204518318,-0.006458729039877653,0.016120729967951775,1017.09314,
2021.02.08 13:08:59,50.0,15.0,-0.022613525,17.239464,-25.018541,0.020944634,0.38873586,9.8288555,-0.0026902775,0.003946229,0.00963675,-0.03952977806329727,-0.0021309300791472197,-0.0016854075947776437,1017.09375,
2021.02.08 13:08:59,50.0,15.0,0.9313736,18.125671,-25.994513,0.09320887,0.39227986,9.7519045,0.0075964774,-0.0028754598,0.008238776,-0.040202464908361435,-0.009557725861668587,-0.06151207908987999,1017.0939,
2021.02.08 13:08:59,50.0,15.0,2.0528107,18.18763,-24.118227,0.031722788,0.40470865,9.805647,0.010425808,0.0021728338,0.007942947,-0.04124939441680908,-0.0032351436093449593,-0.11072004586458206,1017.0955,
2021.02.08 13:08:59,50.0,15.0,1.3049011,17.713785,-25.507998,0.08872944,0.39513794,9.773465,0.017778909,0.0016639854,0.0038212896,-0.0404059961438179,-0.009078356437385082,-0.0818498432636261,1017.0955,
2021.02.08 13:08:59,50.0,15.0,2.1974869,16.364937,-25.502668,0.059149954,0.39764345,9.716653,0.003819757,0.0077098133,-0.0043894947,-0.0409003309905529,-0.006087407469749451,-0.13444693386554718,1017.09595,
2021.02.08 13:08:59,50.0,15.0,3.090866,16.165386,-24.544512,0.06807264,0.3968413,9.766234,0.0065063476,0.0024041957,-0.0018147656,-0.04061068594455719,-0.006970090325921774,-0.18797652423381805,1017.09625,
2021.02.08 13:08:59,50.0,15.0,1.1766129,17.69673,-25.571009,0.009693228,0.3806293,9.747909,0.00729951,0.0073514637,-0.009059049,-0.03902743011713028,-9.94390225969255E-4,-0.06425725668668747,1017.0963,
2021.02.08 13:09:00,50.0,15.0,1.6237869,17.463854,-25.57308,0.031010566,0.38888803,9.7513,-0.002550436,0.0011226977,-0.008551287,-0.039859309792518616,-0.0031801362056285143,-0.09206239879131317,1017.0964,
2021.02.08 13:09:00,50.0,15.0,1.5662079,18.098282,-24.696726,-0.022068009,0.38838276,9.75248,7.4955216E-4,0.003419039,-0.011458812,-0.03980286791920662,0.0022628060542047024,-0.07904686033725739,1017.0967,
2021.02.08 13:09:00,50.0,15.0,0.7779007,17.700373,-25.120752,0.006120006,0.40313372,9.788122,-0.0034951968,0.0018131682,-0.0050973566,-0.04116274043917656,-6.252481252886355E-4,-0.04237019643187523,1017.09674,
2021.02.08 13:09:00,50.0,15.0,1.2216568,16.694777,-24.784334,0.014744192,0.3823539,9.734065,0.0050244266,0.0031288771,-0.002809631,-0.03925975412130356,-0.0015146993100643158,-0.0712033361196518,1017.0969,
2021.02.08 13:09:00,50.0,15.0,1.0354233,17.882597,-24.089987,-0.019392574,0.4272587,9.7699995,0.0018001711,0.010266023,-0.001728239,-0.043703772127628326,0.001984907779842615,-0.05215688794851303,1017.09705,
2021.02.08 13:09:00,50.0,15.0,2.501442,17.472603,-25.738142,-0.026377903,0.4233131,9.793575,0.007312709,0.0073234104,-0.0015362401,-0.043196506798267365,0.0026933818589895964,-0.13024219870567322,1017.09705,
2021.02.08 13:09:00,50.0,15.0,0.7017746,16.910059,-26.34316,-0.015409973,0.43391475,9.802712,-0.0029239072,0.00448661,-0.0039136303,-0.04423583298921585,0.0015720098745077848,-0.03655165806412697,1017.099,
2021.02.08 13:09:00,50.0,15.0,0.46372223,16.998363,-25.56933,-0.013342794,0.40613675,9.766826,0.010632296,0.0015512155,-0.005492632,-0.041559308767318726,0.001366133219562471,-0.023756446316838264,1017.09973,
2021.02.08 13:09:00,50.0,15.0,1.1422577,16.836006,-26.3804,-0.0061371145,0.443525,9.789856,0.01659069,-0.004270939,-0.0013813493,-0.04527357593178749,6.268849829211831E-4,-0.062414687126874924,1017.10034,
2021.02.08 13:09:00,50.0,15.0,1.992157,17.4485,-25.49869,-0.023392648,0.40548912,9.706948,0.0046861647,-0.0052493876,0.0020646518,-0.041748687624931335,0.0024098821450024843,-0.1039985790848732,1017.10034,
2021.02.08 13:09:00,50.0,15.0,1.8506012,18.215878,-25.166609,-0.03265761,0.4486864,9.765545,0.002898928,0.007960123,0.004504693,-0.04591331630945206,0.00334415421821177,-0.09102653712034225,1017.10034,
2021.02.08 13:09:00,50.0,15.0,1.5817032,17.976402,-25.068121,-0.017876776,0.44769397,9.691644,-0.013780922,0.020981526,0.0060106195,-0.04616091772913933,0.0018445535097271204,-0.0801590159535408,1017.1004,
2021.02.08 13:09:00,50.0,15.0,0.6179352,19.017002,-25.707201,-0.0046826936,0.4630325,9.789884,-0.009629413,0.0271332,0.012657249,-0.047261808067560196,4.783195909112692E-4,-0.029957881197333336,1017.1004,
2021.02.08 13:09:01,50.0,15.0,0.2881546,16.679974,-26.037752,-0.076214395,0.43620554,9.766664,0.0106865335,0.017969657,0.02542131,-0.04463167488574982,0.007803365588188171,-0.004766588099300861,1017.1004,
2021.02.08 13:09:01,50.0,15.0,1.656929,16.990065,-26.30087,0.030839244,0.5075974,9.846335,0.008619961,0.029357689,0.004953247,-0.05150606110692024,-0.003132042707875371,-0.09464927762746811,1017.1004,
2021.02.08 13:09:01,50.0,15.0,1.2580414,16.951462,-26.870981,-0.012737833,0.4702752,9.642779,-0.015915547,-0.013022706,0.010016045,-0.04873102530837059,0.0013209703611209989,-0.0669240802526474,1017.10077,
