Time,X-cord,Y-cord,Mag_x,Mag_y,Mag_z,Acc_x,Acc_y,Acc_z,Gyro_x,Gyro_y,Gyro_z,Orn_x,Orn_y,Orn_z,Pressure,
2021.02.08 13:07:02,48.0,19.0,9.010056,-23.70869,-24.505583,0.45903638,0.423723,10.023078,-0.0899593,-0.014063713,-0.08931267,-0.04220539331436157,-0.045765966176986694,-2.7217023372650146,1016.8736,
2021.02.08 13:07:03,48.0,19.0,10.316101,-22.596264,-24.722631,0.10414363,0.23378958,9.8073435,-0.0015490241,-0.09117255,-0.056942333,-0.02383236028254032,-0.010618544183671474,-2.6934661865234375,1016.8736,
2021.02.08 13:07:03,48.0,19.0,9.121819,-23.007454,-24.2853,-0.022541523,0.5393125,9.520658,-0.052975573,-0.058265895,-0.046898536,-0.056585926562547684,0.0023676392156630754,-2.7442009449005127,1016.8736,
2021.02.08 13:07:03,48.0,19.0,8.687347,-23.12019,-24.10153,-0.25282755,0.5930202,10.127869,0.045662485,-0.0197996,-0.0046307114,-0.05846835672855377,0.02495836652815342,-2.7844161987304688,1016.8736,
2021.02.08 13:07:03,48.0,19.0,9.461174,-21.703278,-24.86238,0.1504459,0.27796796,9.593568,0.044967398,0.005288601,-0.012819182,-0.028962748125195503,-0.015680668875575066,-2.702625274658203,1016.8736,
2021.02.08 13:07:03,48.0,19.0,9.059479,-21.775284,-24.068678,0.056898713,0.3081033,9.598483,-0.024846233,-0.010160076,-0.002538443,-0.03208758309483528,-0.005927816033363342,-2.72849178314209,1016.8736,
2021.02.08 13:07:03,48.0,19.0,9.009697,-22.388737,-24.530836,0.033605568,0.37601638,10.008167,0.06105768,-0.029958373,-0.017123688,-0.037553079426288605,-0.0033578018192201853,-2.7407312393188477,1016.8736,
2021.02.08 13:07:03,48.0,19.0,7.870201,-22.279942,-24.888643,-0.009316757,0.41642094,9.79198,0.060779516,-0.045105074,0.0032640765,-0.04250110685825348,9.514678968116641E-4,-2.787139415740967,1016.8736,
2021.02.08 13:07:03,48.0,19.0,10.276428,-22.215069,-24.148367,0.22205128,0.4367299,9.873268,0.09323129,0.013719276,-0.015621244,-0.04419359564781189,-0.022486358880996704,-2.6685917377471924,1016.8736,
2021.02.08 13:07:03,48.0,19.0,8.668907,-23.500801,-24.444685,0.0014614438,0.4559406,9.732401,0.037060894,0.041692887,-0.022910584,-0.0468134731054306,-1.501627266407013E-4,-2.7711594104766846,1016.8736,
2021.02.08 13:07:03,48.0,19.0,11.012817,-22.270721,-24.277967,0.12813225,0.44242695,9.711263,0.0209242,0.017095307,0.015214576,-0.04552268609404564,-0.013193425722420216,-2.6497082710266113,1016.8736,
2021.02.08 13:07:03,48.0,19.0,8.477707,-24.201721,-24.230589,0.098096825,0.38899684,9.818436,0.020487595,0.0019411829,0.013224059,-0.03959633409976959,-0.00999075174331665,-2.782472848892212,1016.8736,
2021.02.08 13:07:03,48.0,19.0,8.096725,-23.106018,-24.412195,0.21549006,0.49538788,9.653206,0.058082208,-0.05891645,-0.010354461,-0.051260750740766525,-0.022319452837109566,-2.7648122310638428,1016.8736,
2021.02.08 13:07:03,48.0,19.0,9.404747,-22.605,-24.119318,0.24938218,0.51191545,9.716987,0.014536276,-0.04968651,-0.01816156,-0.052616577595472336,-0.025658927857875824,-2.7021994590759277,1016.8736,
2021.02.08 13:07:03,48.0,19.0,10.0373535,-22.128414,-23.757566,0.2783439,0.56553876,9.636382,-0.053315796,-0.013865504,-0.03295351,-0.05859624594449997,-0.028876658529043198,-2.6641106605529785,1016.8736,
2021.02.08 13:07:04,48.0,19.0,9.738716,-22.299778,-24.780863,0.20575029,0.50797117,9.829651,-0.019505013,-0.0032437523,-0.03189961,-0.05162021890282631,-0.02092853933572769,-2.6873574256896973,1016.8736,
2021.02.08 13:07:04,48.0,19.0,9.695007,-22.301926,-23.565142,0.2417084,0.49573532,9.730045,-0.015924416,-0.0023370427,-0.043556955,-0.05088923126459122,-0.024836339056491852,-2.6880972385406494,1016.876,
2021.02.08 13:07:04,48.0,19.0,8.980843,-23.489311,-24.032408,0.23241307,0.5079447,9.852936,-0.0079665445,-0.009153691,-0.07130141,-0.05149272829294205,-0.023583831265568733,-2.73606014251709,1016.8823,
2021.02.08 13:07:04,48.0,19.0,8.722816,-22.710335,-24.50146,0.18776385,0.49631107,9.697333,-3.1851488E-4,-0.006496349,-0.055465754,-0.05112597718834877,-0.019360003992915154,-2.736384153366089,1016.8824,
2021.02.08 13:07:04,48.0,19.0,9.762642,-22.336071,-22.41031,0.23222168,0.40365788,9.869187,0.042335674,0.0074194083,-0.05327358,-0.04086674004793167,-0.023525627329945564,-2.6937084197998047,1016.8828,
2021.02.08 13:07:04,48.0,19.0,10.530823,-23.26923,-24.084257,0.14279701,0.4938921,9.605743,-0.0044357325,0.009223809,-0.050760027,-0.05136542767286301,-0.014864698983728886,-2.682222366333008,1016.8833,
2021.02.08 13:07:04,48.0,19.0,10.069267,-22.96875,-24.043982,0.14804171,0.5234228,9.858818,0.014144104,0.004886178,-0.028137356,-0.05303606763482094,-0.015015043318271637,-2.693040370941162,1016.8837,
2021.02.08 13:07:04,48.0,19.0,9.322052,-23.370243,-23.796236,0.17070252,0.48762026,9.725812,0.01837225,-0.002232382,-0.007980244,-0.05008706822991371,-0.01754969172179699,-2.7275121212005615,1016.8837,
2021.02.08 13:07:04,48.0,19.0,9.869392,-22.433018,-24.02234,0.14703788,0.5013726,9.702704,-0.0134885665,0.005799378,-0.0040257447,-0.05162165313959122,-0.015153158456087112,-2.6913907527923584,1016.8837,
2021.02.08 13:07:04,48.0,19.0,9.365135,-22.339897,-23.336107,0.15815474,0.56140536,9.868014,0.015966102,0.0050193276,0.0036731558,-0.05682288110256195,-0.016025634482502937,-2.7071645259857178,1016.8837,
2021.02.08 13:07:04,48.0,19.0,9.00338,-23.15392,-23.714258,0.18852182,0.48059562,9.719668,-0.016440652,0.007492956,-0.014947596,-0.04939616844058037,-0.019393479451537132,-2.7348334789276123,1016.8838,
2021.02.08 13:07:04,48.0,19.0,10.1475525,-22.71215,-25.70305,0.24734373,0.45438132,9.748615,-0.052645974,-0.016067807,-0.02245558,-0.04656115919351578,-0.025366749614477158,-2.676293134689331,1016.8841,
2021.02.08 13:07:04,48.0,19.0,10.468758,-22.960209,-25.396399,0.24067585,0.41756216,9.73145,-0.017181173,-0.0112439515,-0.016161067,-0.04286912456154823,-0.024726714938879013,-2.672020435333252,1016.8843,
2021.02.08 13:07:05,48.0,19.0,10.447815,-23.103874,-25.338186,0.27945516,0.48869547,9.764287,-0.028958162,-0.017195515,-0.013101577,-0.04998710751533508,-0.028612319380044937,-2.6685972213745117,1016.8843,
2021.02.08 13:07:05,48.0,19.0,8.579605,-23.8303,-25.07585,0.20127828,0.44358966,9.808884,-0.008861626,-0.007916622,-0.02492271,-0.045182965695858,-0.020517120137810707,-2.760340452194214,1016.8843,
2021.02.08 13:07:05,48.0,19.0,9.191193,-23.751976,-24.66036,0.23847313,0.45690617,9.6924925,-0.010714561,-0.0013168845,-0.021691225,-0.04709111154079437,-0.02459893934428692,-2.7322325706481934,1016.88477,
2021.02.08 13:07:05,48.0,19.0,9.404785,-22.197002,-25.565947,0.23131113,0.44647732,9.821381,-0.0031313556,3.8142438E-4,-0.029136036,-0.04541587829589844,-0.023547440767288208,-2.6974523067474365,1016.88477,
2021.02.08 13:07:05,48.0,19.0,10.842773,-22.58104,-24.131727,0.20617366,0.4686594,9.725914,-0.0047197663,0.004778596,-0.03512932,-0.04813862591981888,-0.02119520865380764,-2.6539738178253174,1016.88477,
2021.02.08 13:07:05,48.0,19.0,9.546532,-22.012867,-24.760572,0.13597095,0.39857915,9.709512,-0.0024606357,0.006004957,-0.02257293,-0.04102332517504692,-0.014002976007759571,-2.7010765075683594,1016.88477,
2021.02.08 13:07:05,48.0,19.0,9.853638,-22.808987,-24.440363,0.24906045,0.442314,9.792576,-0.010696704,0.0023122493,-0.0015698739,-0.04512304812669754,-0.02542811818420887,-2.691892147064209,1016.88477,
2021.02.08 13:07:05,48.0,19.0,10.081497,-23.096874,-23.696436,0.19476445,0.3961821,9.685699,-0.002230309,0.009633801,0.0027890918,-0.04087277501821518,-0.020105745643377304,-2.6963047981262207,1016.8848,
2021.02.08 13:07:05,48.0,19.0,10.394562,-22.418903,-24.447256,0.18119879,0.42063847,9.802037,-0.018164694,0.0031030842,0.007938242,-0.04287974163889885,-0.0184837244451046,-2.67177414894104,1016.88495,
2021.02.08 13:07:05,48.0,19.0,9.459785,-21.76569,-24.271227,0.21896136,0.41282877,9.778008,-0.015786434,8.721939E-4,0.008307962,-0.042184505611658096,-0.022389503195881844,-2.692135810852051,1016.88495,
2021.02.08 13:07:05,48.0,19.0,9.082695,-22.021404,-22.879274,0.204241,0.40648386,9.787774,0.0057803183,-0.0065662474,0.013887645,-0.0414968803524971,-0.02086392231285572,-2.7155680656433105,1016.88495,
2021.02.08 13:07:05,48.0,19.0,9.645111,-22.289028,-24.111242,0.22560303,0.40556622,9.796327,0.017008565,-0.012233049,0.016385585,-0.04136524349451065,-0.023025279864668846,-2.6947543621063232,1016.88495,
2021.02.08 13:07:05,48.0,19.0,9.340256,-22.090725,-24.408327,0.2462595,0.40532628,9.748992,0.022158347,-0.010706614,0.0085375765,-0.04153905808925629,-0.02525462582707405,-2.700227975845337,1016.8848,
2021.02.08 13:07:05,48.0,19.0,10.230942,-21.90252,-25.677485,0.254845,0.40056694,9.745954,0.009190962,-0.0030771599,5.3218566E-4,-0.04106370359659195,-0.026142843067646027,-2.6597652435302734,1016.8848,
2021.02.08 13:07:06,48.0,19.0,9.508072,-21.915741,-23.754835,0.21270937,0.41115627,9.770147,0.012981767,-0.0062460373,0.008382437,-0.042048148810863495,-0.02176791802048683,-2.6945536136627197,1016.88477,
2021.02.08 13:07:06,48.0,19.0,8.755211,-22.012562,-24.28362,0.21235155,0.4103882,9.806157,0.012214074,-0.024542948,0.01822142,-0.0418158583343029,-0.021651536226272583,-2.725294589996338,1016.88477,
2021.02.08 13:07:06,48.0,19.0,9.566887,-22.921227,-23.587473,0.2831135,0.4048884,9.737911,0.016163258,-0.010963495,0.01446244,-0.041537102311849594,-0.029065141454339027,-2.704498291015625,1016.88477,
2021.02.08 13:07:06,48.0,19.0,9.437561,-21.905487,-23.89689,0.28648442,0.3961674,9.757255,4.920496E-4,-0.0024470165,0.0012754239,-0.040562596172094345,-0.029352737590670586,-2.690645456314087,1016.88477,
2021.02.08 13:07:06,48.0,19.0,8.991905,-21.965385,-23.623579,0.22431058,0.39621246,9.690906,0.027766645,-0.0030148549,0.011309478,-0.04085129126906395,-0.023142371326684952,-2.7151713371276855,1016.8843,
2021.02.08 13:07:06,48.0,19.0,9.712158,-21.385769,-25.784422,0.22596097,0.40002725,9.777954,0.0117308125,0.0025993574,0.016556952,-0.040877439081668854,-0.023105114698410034,-2.6723146438598633,1016.8843,
2021.02.08 13:07:06,48.0,19.0,7.996681,-22.199024,-24.50041,0.2552785,0.425617,9.725221,0.0055758134,-0.00393002,0.021518491,-0.04372130706906319,-0.026243094354867935,-2.753344774246216,1016.8843,
2021.02.08 13:07:06,48.0,19.0,9.16404,-23.134346,-24.287832,0.25197747,0.4241556,9.73803,-0.0018772129,0.0013746256,0.019594505,-0.04351454973220825,-0.025869837030768394,-2.724055051803589,1016.8843,
2021.02.08 13:07:06,48.0,19.0,8.590897,-21.69677,-24.88886,0.25712714,0.46022674,9.821887,0.00848298,-2.464758E-4,0.022178903,-0.046806998550891876,-0.02617301605641842,-2.718512773513794,1016.8843,
2021.02.08 13:07:06,48.0,19.0,8.9609375,-22.063583,-24.294825,0.26135734,0.44208384,9.673389,-0.0041360967,0.0020326625,0.02920099,-0.0456526093184948,-0.027011604979634285,-2.7112460136413574,1016.88446,
2021.02.08 13:07:06,48.0,19.0,9.954872,-22.90371,-23.999159,0.25867662,0.46305418,9.71128,-0.030709045,0.0013447758,0.022221893,-0.04762914031744003,-0.026630420237779617,-2.6884348392486572,1016.88446,
2021.02.08 13:07:06,48.0,19.0,9.877312,-22.113174,-23.964025,0.2661998,0.46812883,9.793077,-0.01695018,0.0045947754,0.020610783,-0.04774804785847664,-0.02717575430870056,-2.6761858463287354,1016.88477,
2021.02.08 13:07:06,48.0,19.0,8.276924,-21.291859,-23.70572,0.30573416,0.42200568,9.746995,-0.009214686,-0.0045684148,0.016337756,-0.043247710913419724,-0.03135673701763153,-2.7228667736053467,1016.88477,
2021.02.08 13:07:06,48.0,19.0,9.538116,-21.725857,-24.209219,0.2474866,0.42813158,9.787374,-0.009840213,0.0027716057,0.013386347,-0.04370144009590149,-0.025280926376581192,-2.685023307800293,1016.8848,
2021.02.08 13:07:07,48.0,19.0,8.71109,-23.003769,-24.385279,0.3191065,0.44448152,9.746205,-0.0013450962,-0.006944711,0.004100827,-0.04554964601993561,-0.032729923725128174,-2.731849431991577,1016.88513,
2021.02.08 13:07:07,48.0,19.0,8.357613,-22.495678,-24.438097,0.2998393,0.43023038,9.7281275,-0.011798851,0.005519889,-0.0066723702,-0.044175658375024796,-0.030812138691544533,-2.7393739223480225,1016.8852,
2021.02.08 13:07:07,48.0,19.0,9.282745,-21.67252,-24.535471,0.2880726,0.43190193,9.748599,-0.0138612315,0.0024230944,-0.013413766,-0.044255755841732025,-0.029541553929448128,-2.689117431640625,1016.8854,
2021.02.08 13:07:07,48.0,19.0,8.847694,-22.880196,-24.146418,0.2772536,0.42638373,9.861533,0.009052254,-0.0039608832,-0.012563283,-0.04319310560822487,-0.028107251971960068,-2.730208396911621,1016.8854,
2021.02.08 13:07:07,48.0,19.0,9.827156,-22.226177,-24.842714,0.22767599,0.3907038,9.751907,0.014882764,-0.001122532,-0.009849484,-0.0400320366024971,-0.023342574015259743,-2.685796022415161,1016.8856,
2021.02.08 13:07:07,48.0,19.0,10.176285,-22.177628,-24.171026,0.23385024,0.42856705,9.798812,0.006000048,-0.0024535586,-0.004369407,-0.04369634762406349,-0.023860633373260498,-2.6706089973449707,1016.88586,
2021.02.08 13:07:07,48.0,19.0,9.335342,-23.373554,-24.772154,0.21706842,0.3770174,9.725122,0.024001593,0.012474142,-0.0013053047,-0.03873832896351814,-0.022316671907901764,-2.72605299949646,1016.88586,
2021.02.08 13:07:07,48.0,19.0,9.733185,-21.734627,-24.80725,0.23013115,0.47624782,9.806643,0.025526542,0.0010774483,0.008484472,-0.04851233959197998,-0.023462558165192604,-2.6758511066436768,1016.88635,
2021.02.08 13:07:07,48.0,19.0,8.87059,-22.351105,-24.152388,0.20254588,0.4291176,9.773588,0.004082373,0.00963433,0.0023858356,-0.04386825114488602,-0.0207208339124918,-2.7268307209014893,1016.88684,
2021.02.08 13:07:07,48.0,19.0,8.798027,-21.777382,-24.818373,0.24842174,0.4204563,9.698498,-0.0077836183,0.00664713,0.015774995,-0.043311405926942825,-0.025608856230974197,-2.713965654373169,1016.88684,
2021.02.08 13:07:07,48.0,19.0,10.485802,-22.155174,-25.357744,0.23432226,0.43223307,9.7849245,0.0014849844,0.0018808322,0.017562151,-0.04413203150033951,-0.023942695930600166,-2.656243324279785,1016.88684,
2021.02.08 13:07:07,48.0,19.0,9.886444,-22.408798,-24.394915,0.251233,0.40957594,9.710641,-0.009265596,0.0017334558,0.009270613,-0.04213898628950119,-0.025866158306598663,-2.684407949447632,1016.8883,
2021.02.08 13:07:07,48.0,19.0,9.5401,-22.477509,-23.892195,0.2447894,0.41338158,9.751572,0.0034442663,0.0021105588,0.0051893312,-0.0423525907099247,-0.025097288191318512,-2.700239419937134,1016.8894,
2021.02.08 13:07:08,48.0,19.0,9.398895,-22.376701,-24.389399,0.22254801,0.44537473,9.835812,-0.007526999,0.0020390938,-2.4983264E-4,-0.04523846134543419,-0.02262243814766407,-2.703942060470581,1016.8897,
2021.02.08 13:07:08,48.0,19.0,8.765587,-22.427773,-24.40954,0.24742787,0.40544882,9.702773,0.014492098,-0.0015800673,-0.0017155529,-0.041749048978090286,-0.025495212525129318,-2.7282848358154297,1016.89056,
2021.02.08 13:07:08,48.0,19.0,10.26712,-22.182121,-24.162516,0.1826462,0.4549903,9.82837,-9.033205E-4,0.0020584043,-0.006598722,-0.04625255987048149,-0.01858142949640751,-2.670781135559082,1016.8906,
2021.02.08 13:07:08,48.0,19.0,9.067223,-22.998741,-23.962633,0.25104275,0.44584683,9.719352,0.01571987,-0.00279307,-0.0013238771,-0.04582468047738075,-0.025823423638939857,-2.7250890731811523,1016.8906,
2021.02.08 13:07:08,48.0,19.0,8.939125,-22.818134,-23.710344,0.19323385,0.43784198,9.819375,0.016807368,-0.007087046,0.0010325029,-0.04455146938562393,-0.019676294177770615,-2.7334609031677246,1016.8906,
2021.02.08 13:07:08,48.0,19.0,9.132996,-23.335377,-24.024164,0.23591258,0.47889343,9.73836,0.016348766,4.3127028E-4,-0.003950176,-0.04912200942635536,-0.02422034554183483,-2.7281813621520996,1016.8906,
2021.02.08 13:07:08,48.0,19.0,9.66803,-22.375298,-24.595957,0.20151152,0.4601141,9.770005,0.022357844,-0.0013990065,5.665724E-5,-0.04704979807138443,-0.020622603595256805,-2.6942427158355713,1016.8906,
2021.02.08 13:07:08,48.0,19.0,9.9390335,-22.357452,-24.304804,0.20309639,0.49822855,9.758186,0.0056950175,-0.0011097938,-0.0010239284,-0.051002174615859985,-0.020809920504689217,-2.6820268630981445,1016.8906,
2021.02.08 13:07:08,48.0,19.0,9.071678,-23.256039,-23.749075,0.19468482,0.5025427,9.713076,0.010826641,0.0018547364,-8.995342E-5,-0.05168232321739197,-0.02004089765250683,-2.732337474822998,1016.89075,
2021.02.08 13:07:08,48.0,19.0,10.584038,-22.8082,-25.084387,0.21711965,0.49900937,9.790137,0.0030953973,0.004501281,0.0058667,-0.05091405287384987,-0.022173751145601273,-2.663898468017578,1016.89075,
2021.02.08 13:07:08,48.0,19.0,10.407959,-22.491608,-23.598219,0.210728,0.5138164,9.720207,0.0126590505,0.0073101586,0.0048838602,-0.052799105644226074,-0.02167597785592079,-2.666574239730835,1016.89075,
2021.02.08 13:07:08,48.0,19.0,8.828217,-21.441013,-23.892996,0.2232969,0.51208836,9.775032,0.0042179623,0.002429059,-0.0010464673,-0.052325911819934845,-0.02283962443470955,-2.7066943645477295,1016.89075,
2021.02.08 13:07:08,48.0,19.0,8.885628,-22.553257,-24.408468,0.22822924,0.5335411,9.776284,-5.711282E-4,0.008623423,-0.015012314,-0.05450613051652908,-0.023340951651334763,-2.722191095352173,1016.89075,
2021.02.08 13:07:08,48.0,19.0,9.0460205,-21.99749,-24.182016,0.17760317,0.49923095,9.765166,0.002693679,0.0034227143,-0.011519006,-0.05107074975967407,-0.018185414373874664,-2.7127439975738525,1016.89075,
2021.02.08 13:07:09,48.0,19.0,9.291298,-22.237953,-23.707747,0.21395646,0.5320981,9.772987,0.0047099283,0.005673544,-0.019471228,-0.05437909811735153,-0.021889138966798782,-2.7033331394195557,1016.8914,
2021.02.08 13:07:09,48.0,19.0,7.95636,-22.77444,-24.202333,0.13941836,0.50055796,9.707053,0.0060989335,0.007327301,-0.011716347,-0.05151548609137535,-0.014361596666276455,-2.773109197616577,1016.8914,
2021.02.08 13:07:09,48.0,19.0,8.572578,-22.585331,-23.40809,0.14908715,0.54911834,9.808743,0.005951034,0.0029130827,-0.0065626963,-0.05591772124171257,-0.015198243781924248,-2.7438580989837646,1016.8914,
2021.02.08 13:07:09,48.0,19.0,10.304802,-22.571327,-24.006037,0.17724347,0.5184955,9.736176,0.005047433,0.0053340374,-0.008485298,-0.05319548025727272,-0.01820261962711811,-2.6740620136260986,1016.8917,
2021.02.08 13:07:09,48.0,19.0,8.892593,-23.45179,-23.491316,0.14912666,0.53009146,9.736402,0.002700337,0.004276304,-0.0037148898,-0.054384224116802216,-0.015315206721425056,-2.7459137439727783,1016.8917,
2021.02.08 13:07:09,48.0,19.0,9.195587,-23.471912,-24.240282,0.16036005,0.5342958,9.772627,0.013565778,5.4856855E-4,-0.001630066,-0.054610978811979294,-0.01640763320028782,-2.7324652671813965,1016.8917,
2021.02.08 13:07:09,48.0,19.0,8.718567,-21.854244,-24.18202,0.15505083,0.5744261,9.818124,0.0138710635,0.0013904762,-0.003911522,-0.05843282490968704,-0.015790995210409164,-2.7222683429718018,1016.8917,
2021.02.08 13:07:09,48.0,19.0,9.018898,-22.239231,-24.131258,0.18716085,0.59365314,9.77889,0.044613563,-0.002914875,-0.0019352026,-0.060622137039899826,-0.019136937335133553,-2.713028907775879,1016.8917,
2021.02.08 13:07:09,48.0,19.0,7.870369,-24.936886,-23.247114,0.16561188,0.61692065,9.618638,0.07828034,-4.9857248E-5,-0.0060088816,-0.06404084712266922,-0.017216108739376068,-2.801990509033203,1016.8916,
2021.02.08 13:07:09,48.0,19.0,9.546555,-22.212383,-24.406374,0.17111802,0.65835196,9.756241,-0.0052365614,-0.0012829427,-0.010399816,-0.06736761331558228,-0.017537541687488556,-2.6893954277038574,1016.8916,
2021.02.08 13:07:09,48.0,19.0,10.460815,-23.12769,-23.660868,0.14048791,0.6626914,9.76176,-0.0016356464,-9.855515E-4,-0.0045434223,-0.06777547299861908,-0.014390665106475353,-2.675752639770508,1016.8916,
2021.02.08 13:07:09,48.0,19.0,9.395287,-24.87836,-24.104696,0.16403072,0.6422248,9.719762,-0.009117397,0.0012414415,-0.0053789937,-0.06596885621547699,-0.016874399036169052,-2.742597818374634,1016.8914,
2021.02.08 13:07:09,48.0,19.0,9.608597,-22.686756,-24.087042,0.16458328,0.65658396,9.798504,0.002628004,0.002004114,-0.007633779,-0.06689916551113129,-0.016795195639133453,-2.697396755218506,1016.8914,
2021.02.08 13:07:09,48.0,19.0,9.5390625,-22.926647,-22.985147,0.1663357,0.63566667,9.685952,-0.0053227404,0.023818124,-0.013189294,-0.06552407890558243,-0.017171192914247513,-2.706756353378296,1016.8914,
2021.02.08 13:07:10,48.0,19.0,8.874184,-22.263573,-24.67697,0.09666547,0.6257632,9.81745,-0.0331532,0.020453792,-0.0026625488,-0.0636506974697113,-0.009845973923802376,-2.7259202003479004,1016.8908,
2021.02.08 13:07:10,48.0,19.0,8.63813,-23.471294,-24.510935,0.11478498,0.6909242,9.767074,0.026821177,0.056144617,-0.007516484,-0.07061763852834702,-0.011751696467399597,-2.751216411590576,1016.89075,
2021.02.08 13:07:10,48.0,19.0,8.969986,-23.046715,-24.07086,0.110710494,0.69822574,9.74767,0.03670975,0.0492655,-0.0056846216,-0.07150328159332275,-0.011357148177921772,-2.731760025024414,1016.89075,
2021.02.08 13:07:10,48.0,19.0,9.318184,-23.070282,-22.87964,0.1432261,0.709338,9.680415,-0.010290697,0.020893846,-0.016110754,-0.07313688099384308,-0.014794372022151947,-2.7168126106262207,1016.8908,
2021.02.08 13:07:10,48.0,19.0,10.173073,-22.827702,-23.195826,0.18096118,0.6789492,9.789235,-0.045106106,0.005892873,-0.0026475769,-0.06923402845859528,-0.01848362572491169,-2.6775963306427,1016.89105,
