Time,X-cord,Y-cord,Mag_x,Mag_y,Mag_z,Acc_x,Acc_y,Acc_z,Gyro_x,Gyro_y,Gyro_z,Orn_x,Orn_y,Orn_z,Pressure,
2021.02.11 16:39:44,34.0,25.0,-30.84,-14.759999,-33.18,-0.12210801,0.52674043,9.201198,0.06466131,0.122471154,-0.064007685,-0.05717950314283371,0.013270103372633457,1.9609726667404175,1016.43066,
2021.02.11 16:39:44,34.0,25.0,-30.599998,-14.82,-33.239998,-0.16281068,0.41420954,9.732727,-0.028190209,-0.060788423,-0.004753753,-0.04252682253718376,0.016726607456803322,1.9774407148361206,1016.43066,
2021.02.11 16:39:44,34.0,25.0,-30.539999,-15.0,-33.3,0.1340794,0.61293435,9.58907,-0.05873347,-0.016806124,0.030065564,-0.0638270303606987,-0.013981611467897892,1.9737387895584106,1016.43506,
2021.02.11 16:39:44,34.0,25.0,-30.84,-15.179999,-32.82,0.4764607,0.749408,9.79019,0.011516031,-0.066286206,0.06732835,-0.07630789279937744,-0.0486287884414196,1.9758244752883911,1016.43506,
2021.02.11 16:39:44,34.0,25.0,-31.019999,-15.179999,-32.76,0.23463893,0.5865973,9.471751,0.017624684,-0.016806124,0.008074417,-0.061833322048187256,-0.024767430499196053,1.979521632194519,1016.43726,
2021.02.11 16:39:44,34.0,25.0,-30.96,-15.299999,-32.399998,0.16520496,0.50998056,9.5794935,0.008461705,-0.008864877,-0.029799229,-0.053178589791059494,-0.01724397763609886,1.989526629447937,1016.43677,
2021.02.11 16:39:44,34.0,25.0,-31.14,-15.059999,-32.46,0.102953814,0.4764607,9.411894,-0.0025338691,-3.12763E-4,-0.042627398,-0.05057705566287041,-0.010938256047666073,1.980886459350586,1016.43677,
2021.02.11 16:39:44,34.0,25.0,-30.66,-14.94,-32.64,0.24421602,0.38308397,9.567522,-0.05506828,-0.0058105504,-0.022468846,-0.0400056429207325,-0.02551998384296894,1.9984935522079468,1016.4341,
2021.02.11 16:39:44,34.0,25.0,-30.599998,-15.0,-32.76,0.011971374,0.27055305,10.125388,-0.057511743,-0.002756224,-0.019414518,-0.026713890954852104,-0.001182312029413879,2.0035669803619385,1016.4341,
2021.02.11 16:39:44,34.0,25.0,-31.019999,-15.179999,-32.82,0.20111908,0.5602603,9.361614,-0.05262482,-0.03146689,0.041672006,-0.059761494398117065,-0.021480070427060127,1.9802573919296265,1016.4343,
2021.02.11 16:39:44,34.0,25.0,-30.84,-15.48,-32.579998,0.34716985,0.69673395,9.562734,-0.024525018,0.0015198328,0.06427402,-0.07268305867910385,-0.03628851845860481,1.9839717149734497,1016.4358,
2021.02.11 16:39:44,34.0,25.0,-31.14,-15.299999,-32.64,0.10055954,0.50998056,9.761458,-0.044072703,-0.009475742,0.023956914,-0.052194081246852875,-0.010301327332854271,1.9854867458343506,1016.4358,
2021.02.11 16:39:44,34.0,25.0,-31.199999,-15.36,-32.7,0.19633053,0.50040346,9.6585045,-0.0061990605,-0.0033670892,0.015404799,-0.051752667874097824,-0.02032442018389702,1.9903050661087036,1016.4302,
2021.02.11 16:39:44,34.0,25.0,-31.019999,-15.059999,-32.88,0.19393626,0.6057515,9.656111,-0.013529444,0.034506556,0.03311989,-0.06263774633407593,-0.02008160389959812,1.9736003875732422,1016.4302,
2021.02.11 16:39:45,34.0,25.0,-30.84,-14.58,-33.0,-0.06943397,0.5554718,9.464568,0.028620258,0.039393477,0.020902587,-0.05862078815698624,0.007336069364100695,1.956903338432312,1016.43555,
2021.02.11 16:39:45,34.0,25.0,-30.66,-14.759999,-33.0,0.15083931,0.24182175,9.543579,0.028620258,0.021678386,0.030065564,-0.02533010020852089,-0.015804002061486244,2.00317645072937,1016.438,
2021.02.11 16:39:45,34.0,25.0,-30.96,-14.759999,-32.76,0.18675344,-0.13647367,9.881172,-0.023914153,-0.055290636,0.015404799,0.013808141462504864,-0.018897678703069687,2.0357937812805176,1016.438,
2021.02.11 16:39:45,34.0,25.0,-31.08,-14.7,-32.82,0.45730647,1.1061549,8.942616,-0.0061990605,-0.01986045,0.05633277,-0.12291064858436584,-0.05109337717294693,1.910466194152832,1016.4441,
2021.02.11 16:39:45,34.0,25.0,-31.439999,-14.88,-32.82,-0.08858817,0.9241901,9.905115,-0.07095078,-0.016806124,-0.05606643,-0.09303127229213715,0.008943440392613411,1.9266189336776733,1016.4441,
2021.02.11 16:39:45,34.0,25.0,-31.56,-14.94,-33.0,-0.4644893,0.016759925,10.084685,-0.017194636,-0.01741699,-0.07194893,-0.0016601569950580597,0.04602634906768799,1.9940893650054932,1016.4385,
2021.02.11 16:39:45,34.0,25.0,-31.32,-15.0,-33.6,0.13647367,0.36392978,9.27542,0.043281026,0.027787039,0.09726074,-0.03921157866716385,-0.014712413772940636,1.987789511680603,1016.42944,
2021.02.11 16:39:45,34.0,25.0,-31.32,-14.94,-33.36,0.2753416,0.62251145,9.565128,0.0023530528,-0.002756224,0.088708624,-0.06496285647153854,-0.028778035193681717,1.9667270183563232,1016.42944,
2021.02.11 16:39:45,34.0,25.0,-31.439999,-15.059999,-33.12,0.09577099,0.6943397,9.976943,-0.025746748,-0.0045888196,0.012961339,-0.06947921216487885,-0.009598936885595322,1.9583536386489868,1016.4321,
2021.02.11 16:39:45,34.0,25.0,-31.38,-14.4,-32.88,-0.07901107,0.24421602,9.529214,0.015181223,0.018013194,-0.005975484,-0.025621650740504265,0.008291266858577728,1.9755460023880005,1016.4321,
2021.02.11 16:39:45,34.0,25.0,-31.38,-14.099999,-32.64,0.062251143,0.33759275,9.464568,-9.040806E-5,0.0057958895,0.052056715,-0.03565322607755661,-0.006577188149094582,1.9638080596923828,1016.43726,
2021.02.11 16:39:45,34.0,25.0,-30.96,-14.099999,-32.76,0.2083019,0.6296943,9.778218,-0.032466266,0.0064067547,0.055721905,-0.06429430097341537,-0.021299421787261963,1.946221947669983,1016.4336,
2021.02.11 16:39:45,34.0,25.0,-30.9,-14.099999,-32.82,0.14605077,0.44054657,9.785401,0.013348627,0.022900116,1.3316862E-4,-0.044985413551330566,-0.014924265444278717,1.963336706161499,1016.4336,
2021.02.11 16:39:45,34.0,25.0,-30.96,-14.16,-32.94,0.083799616,0.34716985,9.562734,0.036561508,0.014348002,-0.011473271,-0.03628712520003319,-0.008762920275330544,1.9702072143554688,1016.4319,
2021.02.11 16:39:45,34.0,25.0,-31.019999,-13.98,-32.88,0.026337024,0.65124273,9.646533,0.011516031,0.007628485,0.0050200904,-0.0674080178141594,-0.0027301993686705828,1.9332202672958374,1016.4319,
2021.02.11 16:39:45,34.0,25.0,-31.26,-14.16,-33.3,0.011971374,0.45012367,9.6585045,0.010294301,0.007628485,-0.012695001,-0.04657013341784477,-0.0012394639197736979,1.954202651977539,1016.42993,
2021.02.11 16:39:45,34.0,25.0,-31.199999,-13.799999,-33.6,0.045491222,0.48843205,9.555551,0.014570358,9.089675E-4,-0.017581923,-0.05106997862458229,-0.004760676063597202,1.9413586854934692,1016.42676,
2021.02.11 16:39:46,34.0,25.0,-31.08,-14.099999,-33.66,-0.05027977,0.4740664,9.665688,-0.0019230038,0.00823935,-0.011473271,-0.049006387591362,0.00520183565095067,1.9496536254882812,1016.42676,
2021.02.11 16:39:46,34.0,25.0,-31.14,-14.58,-33.899998,-0.12929083,0.42378664,9.75667,-0.009253386,-0.002756224,-0.018803654,-0.04340448975563049,0.01325075700879097,1.9643007516860962,1016.42896,
2021.02.11 16:39:46,34.0,25.0,-31.26,-14.58,-33.6,0.05027977,0.5243462,9.644139,0.004796514,0.0033524283,0.006241821,-0.054315194487571716,-0.005213458091020584,1.9593695402145386,1016.42896,
2021.02.11 16:39:46,34.0,25.0,-31.32,-14.82,-33.3,-0.014365649,0.50758624,9.778218,-0.009253386,2.9810224E-4,-4.7769662E-4,-0.051863282918930054,0.001469146809540689,1.965745449066162,1016.4331,
2021.02.11 16:39:46,34.0,25.0,-31.019999,-14.759999,-33.239998,-0.05506832,0.45012367,9.675264,0.008461705,9.089675E-4,0.006241821,-0.046488869935274124,0.005691599566489458,1.971142292022705,1016.43945,
2021.02.11 16:39:46,34.0,25.0,-30.72,-14.34,-33.42,-0.04070267,0.5770202,9.3831625,0.009683436,0.003963294,0.012961339,-0.0614173598587513,0.004337814170867205,1.9491784572601318,1016.43945,
2021.02.11 16:39:46,34.0,25.0,-30.779999,-13.92,-33.12,-0.10055954,0.46209505,9.826104,-0.0178055,-0.0033670892,0.0074635516,-0.04699021205306053,0.01023356057703495,1.9489967823028564,1016.437,
2021.02.11 16:39:46,34.0,25.0,-30.66,-13.86,-32.88,0.0,0.56744313,9.500483,0.020068146,-0.006421415,0.03311989,-0.05965695157647133,1.0E-6,1.940317153930664,1016.437,
2021.02.11 16:39:46,34.0,25.0,-31.14,-13.98,-32.94,0.035914123,0.53392327,9.687236,0.019457279,-0.0033670892,0.038617678,-0.05506007745862007,-0.003707348369061947,1.9438501596450806,1016.437,
2021.02.11 16:39:46,34.0,25.0,-31.08,-13.98,-32.52,0.0071828244,0.53392327,9.775824,-7.012733E-4,-0.002756224,0.022124317,-0.05456247925758362,-7.347537903115153E-4,1.9446793794631958,1016.4409,
2021.02.11 16:39:46,34.0,25.0,-30.84,-14.28,-32.579998,0.083799616,0.57462597,9.522031,0.014570358,-0.002756224,0.034341622,-0.060271572321653366,-0.008800376206636429,1.9528396129608154,1016.4409,
2021.02.11 16:39:46,34.0,25.0,-30.84,-14.04,-33.18,0.06464542,0.54828894,9.720756,-0.0019230038,-0.010086607,0.019680856,-0.05634300038218498,-0.006650147959589958,1.948209524154663,1016.43164,
2021.02.11 16:39:46,34.0,25.0,-30.84,-14.5199995,-33.059998,0.098165266,0.55307746,9.471751,0.024344202,-0.007032281,0.022735182,-0.0583229586482048,-0.010363632813096046,1.9611973762512207,1016.43164,
2021.02.11 16:39:46,34.0,25.0,-30.84,-14.58,-33.239998,0.0670397,0.53392327,9.742304,-0.0031447343,-0.019249586,0.00379836,-0.05474855750799179,-0.0068811895325779915,1.9648427963256836,1016.4309,
2021.02.11 16:39:46,34.0,25.0,-30.84,-14.7,-33.12,0.13886794,0.5650489,9.593859,0.012737762,-0.008254011,7.440339E-4,-0.05882282555103302,-0.014473659917712212,1.967060923576355,1016.43164,
2021.02.11 16:39:46,34.0,25.0,-30.96,-15.12,-32.579998,0.062251143,0.57223165,9.644139,0.0035747832,-0.005199685,-0.012084136,-0.059263937175273895,-0.006454726215451956,1.9749680757522583,1016.43164,
2021.02.11 16:39:47,34.0,25.0,-30.539999,-14.7,-32.64,0.04070267,0.5698374,9.507666,-9.040806E-5,0.0051850243,-0.031020958,-0.05986236780881882,-0.004281010944396257,1.9668890237808228,1016.4253,
2021.02.11 16:39:47,34.0,25.0,-30.539999,-14.88,-32.64,0.043096945,0.5602603,9.780613,-0.017194636,-0.0045888196,-0.03468615,-0.057219650596380234,-0.004406335763633251,1.9744237661361694,1016.4253,
2021.02.11 16:39:47,34.0,25.0,-30.72,-14.82,-32.82,0.18914771,0.6153286,9.584282,0.013959493,-0.006421415,-0.032853555,-0.06410140544176102,-0.019732637330889702,1.969014286994934,1016.42676,
2021.02.11 16:39:47,34.0,25.0,-30.48,-14.639999,-33.12,0.014365649,0.5219519,9.656111,0.0011313224,-0.0021453588,-0.057288166,-0.05400143936276436,-0.001487725181505084,1.9697550535202026,1016.43335,
2021.02.11 16:39:47,34.0,25.0,-31.14,-14.759999,-32.94,-0.09577099,0.5650489,9.749487,0.010294301,-0.015584394,-0.044459995,-0.05788923054933548,0.009822865948081017,1.958472728729248,1016.43335,
2021.02.11 16:39:47,34.0,25.0,-30.96,-14.759999,-32.88,-0.035914123,0.49800915,9.703996,0.017013818,-0.005199685,-0.024301441,-0.05127467215061188,0.0037009455263614655,1.9686182737350464,1016.43335,
2021.02.11 16:39:47,34.0,25.0,-30.84,-14.94,-32.7,0.016759925,0.51955765,9.536397,0.009683436,-0.011919203,0.0050200904,-0.054427653551101685,-0.0017574673984199762,1.974137306213379,1016.43335,
2021.02.11 16:39:47,34.0,25.0,-31.019999,-15.059999,-32.219997,0.071828246,0.600963,9.7135725,-0.0025338691,-0.0058105504,0.01418307,-0.061787936836481094,-0.0073944926261901855,1.971172571182251,1016.43384,
2021.02.11 16:39:47,34.0,25.0,-30.66,-15.0,-32.52,-0.016759925,0.50040346,9.627379,0.00785084,-0.007643146,-4.7769662E-4,-0.05193030834197998,0.001740858773700893,1.9792661666870117,1016.43604,
2021.02.11 16:39:47,34.0,25.0,-31.019999,-15.179999,-32.579998,0.0023942748,0.52913475,9.577099,0.011516031,-0.008864877,0.01418307,-0.055193886160850525,-2.4999998277053237E-4,1.9775488376617432,1016.43604,
2021.02.11 16:39:47,34.0,25.0,-30.96,-14.94,-32.76,0.057462595,0.53392327,9.670476,-7.012733E-4,-0.002756224,0.03983941,-0.0551547147333622,-0.005941994953900576,1.9733877182006836,1016.4419,
2021.02.11 16:39:47,34.0,25.0,-30.96,-14.88,-33.239998,0.08619389,0.60335726,9.598648,0.006018244,0.0051850243,0.041672006,-0.0627734437584877,-0.008979554288089275,1.964836835861206,1016.4419,
2021.02.11 16:39:47,34.0,25.0,-30.539999,-14.7,-33.36,-0.15083931,0.5889916,10.132571,-0.0037555995,-0.009475742,0.02701124,-0.0580567866563797,0.014885478653013706,1.9610663652420044,1016.43115,
2021.02.11 16:39:47,34.0,25.0,-30.3,-14.5199995,-33.36,0.15323359,0.64166564,9.481328,0.04511362,0.0057958895,0.045948062,-0.0675649344921112,-0.016160208731889725,1.9599367380142212,1016.4292,
2021.02.11 16:39:47,34.0,25.0,-30.48,-14.7,-33.6,0.16041641,0.6105401,9.498088,-0.0031447343,-0.0039779544,0.014793935,-0.06418287009000778,-0.016887731850147247,1.9661625623703003,1016.4292,
2021.02.11 16:39:47,34.0,25.0,-30.599998,-14.7,-33.54,0.13886794,0.50998056,9.809344,-0.019638095,-0.014973529,-0.004753753,-0.051937296986579895,-0.014155754819512367,1.9758892059326172,1016.42065,
2021.02.11 16:39:47,34.0,25.0,-30.779999,-14.88,-33.3,0.14605077,0.5818088,9.799767,-0.0037555995,-0.011308338,-0.00902981,-0.059293482452631,-0.014902391470968723,1.972231149673462,1016.42065,
2021.02.11 16:39:48,34.0,25.0,-30.9,-14.7,-33.059998,-0.0071828244,0.5794145,9.763853,-0.019027231,-0.030245159,-0.036518745,-0.05927328020334244,7.356545538641512E-4,1.9609488248825073,1016.42163,
2021.02.11 16:39:48,34.0,25.0,-30.72,-14.759999,-32.94,0.057462595,0.56265455,9.593859,0.00785084,-0.0045888196,-0.004753753,-0.0585792176425457,-0.005989447236061096,1.967759609222412,1016.4197,
2021.02.11 16:39:48,34.0,25.0,-30.48,-14.88,-32.94,0.07901107,0.57462597,9.703996,-0.011696848,-0.002756224,-0.01025154,-0.05914437770843506,-0.008141936734318733,1.9741438627243042,1016.4197,
2021.02.11 16:39:48,34.0,25.0,-30.66,-14.639999,-33.3,0.102953814,0.63208854,9.601042,-0.0055881953,-0.013140933,-4.7769662E-4,-0.06573677808046341,-0.010722780600190163,1.959214448928833,1016.4204,
2021.02.11 16:39:48,34.0,25.0,-30.84,-14.58,-33.36,0.08140534,0.54828894,9.560339,-0.0068099257,-0.015584394,-0.004753753,-0.05728554353117943,-0.008514695800840855,1.9627937078475952,1016.4204,
2021.02.11 16:39:48,34.0,25.0,-31.019999,-14.4,-33.059998,0.0670397,0.5650489,9.632168,-0.012307713,0.003963294,-0.0029211575,-0.058594122529029846,-0.006959868129342794,1.9544072151184082,1016.4253,
2021.02.11 16:39:48,34.0,25.0,-31.08,-14.219999,-33.18,0.028731298,0.6249057,9.62259,-0.012307713,9.089675E-4,1.3316862E-4,-0.06485018134117126,-0.0029858085326850414,1.9412893056869507,1016.4238,
2021.02.11 16:39:48,34.0,25.0,-31.08,-14.46,-32.7,0.023942748,0.5411061,9.718362,-0.014751174,-0.007643146,0.0013548991,-0.05562113970518112,-0.002463656011968851,1.9572888612747192,1016.4238,
2021.02.11 16:39:48,34.0,25.0,-31.14,-14.759999,-32.76,0.14126222,0.57462597,9.598648,0.0011313224,-0.012530067,0.011739608,-0.05978747829794884,-0.014715824276208878,1.9649271965026855,1016.42725,
2021.02.11 16:39:48,34.0,25.0,-31.019999,-14.759999,-33.059998,0.16281068,0.6273,9.581888,0.0029639183,-0.0039779544,0.019069992,-0.06536456197500229,-0.016989868134260178,1.9612665176391602,1016.42725,
2021.02.11 16:39:48,34.0,25.0,-31.14,-15.059999,-32.7,0.047885496,0.53392327,9.763853,-0.0031447343,0.0015198328,0.00379836,-0.05462859943509102,-0.004904325120151043,1.9747858047485352,1016.43066,
2021.02.11 16:39:48,34.0,25.0,-31.26,-14.94,-32.82,0.10055954,0.5554718,9.560339,0.017013818,-0.0045888196,0.011739608,-0.058033231645822525,-0.010518019087612629,1.9686665534973145,1016.4358,
2021.02.11 16:39:48,34.0,25.0,-31.14,-14.94,-32.64,0.076616794,0.5458947,9.680053,5.204572E-4,0.003963294,0.0068526864,-0.056332338601350784,-0.007914748974144459,1.9710330963134766,1016.4358,
2021.02.11 16:39:48,34.0,25.0,-31.26,-14.94,-32.219997,0.11971374,0.600963,9.543579,0.009072571,0.0015198328,0.009296147,-0.0628824308514595,-0.01254324521869421,1.965743899345398,1016.4385,
2021.02.11 16:39:48,34.0,25.0,-31.199999,-14.88,-32.64,0.045491222,0.5219519,9.711179,-0.011696848,0.002130698,-0.0010885618,-0.05369528383016586,-0.0046843839809298515,1.9700473546981812,1016.4385,
2021.02.11 16:39:48,34.0,25.0,-31.32,-14.94,-32.82,0.07422252,0.6153286,9.603436,-9.040806E-5,-9.236283E-4,0.008074417,-0.06398441642522812,-0.007728592026978731,1.9615089893341064,1016.4375,
2021.02.11 16:39:48,34.0,25.0,-31.439999,-15.12,-33.059998,-0.04070267,0.45970076,9.598648,-0.0459053,0.056497704,-0.003532023,-0.04785524308681488,0.004240433219820261,1.9755100011825562,1016.43506,
2021.02.11 16:39:49,34.0,25.0,-31.199999,-14.88,-33.18,0.11492519,0.6368771,9.47654,-0.0074207913,-0.013140933,0.022124317,-0.06709983944892883,-0.012126742862164974,1.9590736627578735,1016.43506,
2021.02.11 16:39:49,34.0,25.0,-31.38,-14.88,-32.82,0.03351985,0.4740664,9.660899,-7.012733E-4,-0.0033670892,0.0056309556,-0.049031008034944534,-0.0034696266520768404,1.9715887308120728,1016.4297,
2021.02.11 16:39:49,34.0,25.0,-31.14,-14.639999,-32.76,0.11013664,0.61293435,9.543579,0.004796514,0.0027415634,0.013572204,-0.0641324371099472,-0.011539879254996777,1.9564353227615356,1016.4297,
2021.02.11 16:39:49,34.0,25.0,-31.14,-14.34,-32.64,0.09577099,0.5506832,9.797373,-0.012918578,-0.0039779544,0.0050200904,-0.056145474314689636,-0.009774859063327312,1.9552404880523682,1016.4324,
2021.02.11 16:39:49,34.0,25.0,-31.32,-14.5199995,-32.94,0.10774237,0.54828894,9.598648,0.008461705,-0.0039779544,0.0044092257,-0.05705587938427925,-0.011224272660911083,1.9573802947998047,1016.4346,
2021.02.11 16:39:49,34.0,25.0,-31.32,-14.04,-33.3,-0.03351985,0.56265455,9.857229,0.0011313224,0.010682812,0.0068526864,-0.05701819807291031,0.0034005213528871536,1.9389660358428955,1016.4346,
2021.02.11 16:39:49,34.0,25.0,-31.32,-14.219999,-33.36,0.04070267,0.5650489,9.799767,0.0011313224,0.0064067547,0.00379836,-0.057595156133174896,-0.0041534085758030415,1.9456547498703003,1016.43066,
2021.02.11 16:39:49,34.0,25.0,-31.199999,-14.28,-33.3,0.0670397,0.5698374,9.512454,0.013348627,0.00823935,0.0056309556,-0.059831369668245316,-0.007047454360872507,1.9475200176239014,1016.43066,
2021.02.11 16:39:49,34.0,25.0,-30.9,-14.219999,-33.239998,0.009577099,0.52674043,9.775824,-0.019638095,-3.12763E-4,-0.004753753,-0.053829871118068695,-9.79671604000032E-4,1.9530432224273682,1016.43164,
2021.02.11 16:39:49,34.0,25.0,-30.84,-14.099999,-32.88,0.14605077,0.6344828,9.550762,0.010905167,0.002130698,0.016015666,-0.06632748246192932,-0.015290861949324608,1.9434711933135986,1016.4209,
2021.02.11 16:39:49,34.0,25.0,-30.9,-14.16,-32.579998,-0.016759925,0.53392327,9.665688,-0.015362039,-3.12763E-4,-0.006586349,-0.05518287792801857,0.001733959186822176,1.9502407312393188,1016.4209,
2021.02.11 16:39:49,34.0,25.0,-30.779999,-14.16,-33.12,0.043096945,0.6105401,9.596253,0.006018244,0.0015198328,0.01662653,-0.06353648006916046,-0.0044909873977303505,1.9447388648986816,1016.42773,
2021.02.11 16:39:49,34.0,25.0,-31.199999,-13.86,-33.0,0.023942748,0.60335726,9.627379,-0.008642522,0.002130698,0.015404799,-0.06258892267942429,-0.002486938377842307,1.932233452796936,1016.42773,
2021.02.11 16:39:49,34.0,25.0,-31.32,-14.46,-33.0,0.06943397,0.59378016,9.613013,-0.0055881953,-3.12763E-4,0.006241821,-0.0616883859038353,-0.0072227888740599155,1.949966311454773,1016.42554,
2021.02.11 16:39:49,34.0,25.0,-31.619999,-14.46,-33.18,0.052674048,0.54350036,9.636956,-0.00497733,-0.0015344934,7.440339E-4,-0.05633699148893356,-0.0054657841101288795,1.9508588314056396,1016.4214,
2021.02.11 16:39:49,34.0,25.0,-31.8,-14.34,-32.82,0.13886794,0.6201172,9.58907,-0.009864252,9.089675E-4,7.440339E-4,-0.06457249075174332,-0.014480886049568653,1.9411959648132324,1016.4214,
2021.02.11 16:39:50,34.0,25.0,-31.8,-14.7,-33.18,0.0670397,0.5411061,9.715967,-0.0178055,-3.12763E-4,-0.010862405,-0.05563367158174515,-0.006899841595441103,1.9565346240997314,1016.4309,
2021.02.11 16:39:50,34.0,25.0,-31.74,-14.46,-33.42,0.12929083,0.600963,9.569917,0.0011313224,-0.010697473,-0.013916732,-0.0627090334892273,-0.013509309850633144,1.9456766843795776,1016.4309,
2021.02.11 16:39:50,34.0,25.0,-31.38,-14.4,-33.3,0.105348095,0.5698374,9.660899,5.204572E-4,-0.009475742,-0.019414518,-0.05891213193535805,-0.010904152877628803,1.9509785175323486,1016.42993,
2021.02.11 16:39:50,34.0,25.0,-31.14,-14.58,-33.239998,-0.031125572,0.5123748,9.727939,0.0011313224,-0.007032281,-0.044459995,-0.05262155085802078,0.00319959525950253,1.960052251815796,1016.43726,
2021.02.11 16:39:50,34.0,25.0,-30.96,-14.639999,-32.94,0.019154198,0.58420306,9.569917,0.02067901,-0.005199685,-0.03346442,-0.0609700046479702,-0.0020014983601868153,1.958101511001587,1016.43726,
2021.02.11 16:39:50,34.0,25.0,-30.779999,-14.88,-33.059998,-0.038308397,0.5027977,9.651321,0.0011313224,-0.0021453588,-0.030410094,-0.05204879865050316,0.003969217650592327,1.9729162454605103,1016.4331,
2021.02.11 16:39:50,34.0,25.0,-30.9,-14.94,-32.94,0.05027977,0.600963,9.567522,0.017013818,0.0015198328,-0.0053646187,-0.06272953748703003,-0.0052552069537341595,1.9664970636367798,1016.4331,
2021.02.11 16:39:50,34.0,25.0,-30.66,-14.94,-32.88,-0.045491222,0.50040346,9.711179,-0.0025338691,-0.002756224,-0.016360193,-0.051482509821653366,0.0046843839809298515,1.976503610610962,1016.43555,
2021.02.11 16:39:50,34.0,25.0,-30.72,-14.88,-32.7,-0.016759925,0.54350036,9.601042,0.0017421878,0.0015198328,0.006241821,-0.056548040360212326,0.0017456342466175556,1.970763087272644,1016.4402,
2021.02.11 16:39:50,34.0,25.0,-30.84,-14.88,-32.46,0.038308397,0.5865973,9.720756,-0.0074207913,0.0057958895,0.0105178775,-0.06027127429842949,-0.003940866328775883,1.9681885242462158,1016.4402,
2021.02.11 16:39:50,34.0,25.0,-30.66,-14.759999,-32.7,0.0071828244,0.5243462,10.558752,0.06893736,0.06077376,0.0074635516,-0.04961908608675003,-6.80272001773119E-4,1.9753698110580444,1016.43286,
2021.02.11 16:39:50,34.0,25.0,-30.72,-14.94,-32.76,-0.07422252,0.6440599,9.14613,0.14163032,0.09559308,0.03189816,-0.07030048966407776,0.008115005679428577,1.9575637578964233,1016.43286,
2021.02.11 16:39:50,34.0,25.0,-30.48,-15.12,-32.88,-0.13168511,0.6081458,9.387952,0.04755708,0.0442804,0.039228547,-0.06468265503644943,0.014026113785803318,1.968339443206787,1016.4358,
2021.02.11 16:39:50,34.0,25.0,-30.3,-15.0,-32.88,0.18196489,0.8092649,9.486116,0.028009394,0.046112996,0.055721905,-0.0850888192653656,-0.019179878756403923,1.9581706523895264,1016.4326,
2021.02.11 16:39:50,34.0,25.0,-30.359999,-15.48,-33.0,0.17717634,0.87151605,9.720756,-0.0019230038,0.012515408,0.006241821,-0.08940134197473526,-0.018224583938717842,1.9663212299346924,1016.4326,
2021.02.11 16:39:50,34.0,25.0,-30.48,-15.24,-33.239998,-0.36392978,0.89545876,7.90829,0.026176797,0.04183694,-0.03712961,-0.11263196915388107,0.04598632827401161,1.9179455041885376,1016.42896,
2021.02.11 16:39:50,34.0,25.0,-30.359999,-15.059999,-33.48,-0.24900457,0.36632404,10.362421,-0.09538538,-0.04796025,-0.048125185,-0.03532629832625389,0.024024952203035355,1.990288496017456,1016.42896,
