Time,X-cord,Y-cord,Mag_x,Mag_y,Mag_z,Acc_x,Acc_y,Acc_z,Gyro_x,Gyro_y,Gyro_z,Orn_x,Orn_y,Orn_z,Pressure,
2021.02.11 16:45:57,10.0,14.0,-3.1799998,-33.239998,-26.699999,0.27055305,0.57462597,10.336084,-0.026357615,0.094982214,-0.054233838,-0.0555180162191391,-0.026169609278440475,3.0635175704956055,1016.42847,
2021.02.11 16:45:57,10.0,14.0,-2.8799999,-33.0,-26.88,0.31365,0.52913475,9.395134,-0.016583769,-0.043684196,-0.059120763,-0.056229397654533386,-0.033371906727552414,3.0786354541778564,1016.4292,
2021.02.11 16:45:58,10.0,14.0,-2.76,-32.82,-27.119999,0.12450229,0.33519846,9.624985,-0.08927673,-0.07422745,-0.037740476,-0.03480888903141022,-0.012934600934386253,3.066112995147705,1016.4292,
2021.02.11 16:45:58,10.0,14.0,-2.7,-32.64,-27.3,0.10055954,0.49082634,9.692024,-0.0758377,-0.03146689,0.0074635516,-0.05059634521603584,-0.010375122539699078,3.064331293106079,1016.42944,
2021.02.11 16:45:58,10.0,14.0,-2.3999999,-32.76,-26.939999,0.18196489,0.5123748,9.866806,-0.061787795,-0.024747374,0.0050200904,-0.051873739808797836,-0.018440037965774536,3.080906629562378,1016.42944,
2021.02.11 16:45:58,10.0,14.0,-2.6399999,-33.0,-27.06,0.23942748,0.45012367,9.754275,0.0017421878,-0.036964677,-0.013916732,-0.046099718660116196,-0.024540971964597702,3.0793941020965576,1016.43286,
2021.02.11 16:45:58,10.0,14.0,-2.9399998,-32.82,-26.58,0.32083282,0.32801566,9.842864,-9.040806E-5,-0.056512367,-0.014527597,-0.033295225352048874,-0.03258393704891205,3.0767438411712646,1016.43604,
2021.02.11 16:45:58,10.0,14.0,-3.1799998,-32.399998,-26.58,0.18675344,0.44772938,10.525232,0.04755708,0.002130698,-0.016971057,-0.04250635579228401,-0.01774154044687748,3.055123805999756,1016.43604,
2021.02.11 16:45:58,10.0,14.0,-2.9399998,-32.399998,-26.82,0.009577099,0.76137936,8.506859,0.12819129,0.07360193,-0.004142888,-0.089263916015625,-0.001125808572396636,3.0445151329040527,1016.4287,
2021.02.11 16:45:58,10.0,14.0,-2.8799999,-32.1,-26.279999,-0.0047885496,0.18435916,9.196409,0.0011313224,-3.12763E-4,-0.03468615,-0.020044177770614624,5.2069773664698E-4,3.0501797199249268,1016.4287,
2021.02.11 16:45:58,10.0,14.0,-2.6399999,-32.1,-26.22,0.07901107,0.2944958,9.596253,-0.027579343,0.022900116,0.012350474,-0.030677953734993935,-0.008233346976339817,3.0642526149749756,1016.43335,
2021.02.11 16:45:58,10.0,14.0,-2.34,-32.28,-26.099998,0.15802214,0.65363705,9.534002,-0.027579343,0.0742128,0.049002387,-0.06844203174114227,-0.016573067754507065,3.078974962234497,1016.4302,
2021.02.11 16:45:58,10.0,14.0,-2.7,-32.16,-26.099998,0.12689656,0.46927786,10.032011,-0.022692423,0.022289252,0.036785085,-0.04674023762345314,-0.012648490257561207,3.065063953399658,1016.4302,
2021.02.11 16:45:58,10.0,14.0,-2.28,-32.64,-26.16,0.13886794,0.3328042,9.907509,0.03350718,0.059552033,0.0105178775,-0.033575188368558884,-0.014015517197549343,3.081394672393799,1016.4326,
2021.02.11 16:45:58,10.0,14.0,-2.34,-32.7,-26.4,0.31365,0.56265455,9.268238,0.04755708,0.041226074,0.019069992,-0.06059880182147026,-0.03382847458124161,3.0950448513031006,1016.4326,
2021.02.11 16:45:58,10.0,14.0,-2.46,-32.88,-26.58,0.019154198,0.4644893,9.72315,-0.020859826,-0.030245159,-0.015749328,-0.047735098749399185,-0.0019699556287378073,3.065486192703247,1016.438,
2021.02.11 16:45:58,10.0,14.0,-2.46,-33.239998,-26.699999,-0.1699935,0.31125572,9.850046,-0.014751174,-0.020471316,-0.004753753,-0.03158421069383621,0.01725642941892147,3.0516505241394043,1016.4402,
2021.02.11 16:45:58,10.0,14.0,-2.8799999,-33.059998,-26.88,0.08140534,0.50998056,9.416683,0.017013818,0.013126272,0.05266758,-0.05410226434469223,-0.008644584566354752,3.057891368865967,1016.4402,
2021.02.11 16:45:58,10.0,14.0,-2.9399998,-33.239998,-26.76,0.12450229,0.45970076,9.799767,-0.012307713,0.0051850243,0.025178645,-0.04687121883034706,-0.01270393468439579,3.0603952407836914,1016.4409,
2021.02.11 16:45:59,10.0,14.0,-3.06,-33.36,-26.58,0.098165266,0.53871185,9.63935,-0.0068099257,0.015569733,0.0025766296,-0.05582577735185623,-0.010183454491198063,3.0541703701019287,1016.4409,
2021.02.11 16:45:59,10.0,14.0,-3.0,-33.18,-26.4,0.035914123,0.4860378,9.72315,0.0017421878,-0.008864877,-4.7769662E-4,-0.04994577169418335,-0.003693654667586088,3.0506293773651123,1016.4336,
2021.02.11 16:45:59,10.0,14.0,-3.36,-33.059998,-26.46,0.047885496,0.49800915,9.634562,0.0011313224,-0.0015344934,0.0044092257,-0.051643259823322296,-0.00497013796120882,3.0399370193481445,1016.43774,
2021.02.11 16:45:59,10.0,14.0,-3.48,-33.0,-26.46,-0.035914123,0.5363176,9.629773,0.004796514,-0.008254011,0.01662653,-0.05563582479953766,0.0037294707726687193,3.0283923149108887,1016.43774,
2021.02.11 16:45:59,10.0,14.0,-3.1799998,-32.7,-26.58,0.043096945,0.50998056,9.778218,0.016402954,-0.023525642,0.024567777,-0.052107036113739014,-0.004407414700835943,3.0439581871032715,1016.43896,
2021.02.11 16:45:59,10.0,14.0,-3.24,-32.579998,-26.88,0.15562786,0.531529,9.5483675,0.026176797,-0.014362663,0.01784826,-0.055602241307497025,-0.01629745401442051,3.0515615940093994,1016.43896,
2021.02.11 16:45:59,10.0,14.0,-2.52,-32.7,-26.88,0.12210801,0.505192,9.5244255,0.012737762,-0.009475742,0.008074417,-0.0529877208173275,-0.012819808907806873,3.0720512866973877,1016.44336,
2021.02.11 16:45:59,10.0,14.0,-2.34,-32.82,-27.24,0.14365649,0.5698374,9.656111,-0.00497733,-0.020471316,0.019680856,-0.058938268572092056,-0.014876164495944977,3.0795817375183105,1016.4407,
2021.02.11 16:45:59,10.0,14.0,-2.58,-33.059998,-27.24,0.16520496,0.6656084,9.6585045,0.010294301,-0.024747374,0.012350474,-0.06879541277885437,-0.017102941870689392,3.073744535446167,1016.4407,
2021.02.11 16:45:59,10.0,14.0,-2.1599998,-33.36,-26.939999,0.11253092,0.5698374,9.519637,0.010294301,-0.012530067,7.440339E-4,-0.05978364124894142,-0.011820374988019466,3.083549737930298,1016.4409,
2021.02.11 16:45:59,10.0,14.0,-2.58,-33.78,-26.88,0.083799616,0.56265455,9.809344,0.00785084,-0.016806124,-0.0010885618,-0.057294175028800964,-0.008542628027498722,3.0686960220336914,1016.4409,
2021.02.11 16:45:59,10.0,14.0,-2.1,-33.42,-26.519999,0.14365649,0.58420306,9.505271,-7.012733E-4,-0.014362663,-0.018192789,-0.061376750469207764,-0.015112200751900673,3.0880959033966064,1016.4426,
2021.02.11 16:45:59,10.0,14.0,-1.74,-33.18,-26.64,0.14126222,0.55307746,9.696813,-0.0025338691,-0.011919203,-0.00902981,-0.05696927383542061,-0.014566871337592602,3.0988521575927734,1016.43774,
2021.02.11 16:45:59,10.0,14.0,-2.28,-33.18,-26.82,0.18435916,0.6081458,9.438231,-0.011696848,-0.016806124,-4.7769662E-4,-0.06433310359716415,-0.019530748948454857,3.0857067108154297,1016.43774,
2021.02.11 16:45:59,10.0,14.0,-2.52,-33.0,-27.0,0.08858817,0.5554718,9.763853,-0.021470692,-0.01619526,-0.015138462,-0.05682704597711563,-0.009072825312614441,3.069296360015869,1016.4363,
2021.02.11 16:45:59,10.0,14.0,-3.12,-33.239998,-27.3,0.20351335,0.5889916,9.620196,-0.013529444,9.089675E-4,-0.0023102923,-0.061134517192840576,-0.021151646971702576,3.0610878467559814,1016.4363,
2021.02.11 16:46:00,10.0,14.0,-3.12,-33.12,-27.119999,-0.014365649,0.50758624,9.941029,-0.034298863,-0.015584394,-0.008418945,-0.051015373319387436,0.0014450857415795326,3.042243719100952,1016.437,
2021.02.11 16:46:00,10.0,14.0,-3.24,-33.12,-27.0,0.38068968,0.82123625,9.2419,0.059163522,0.044891264,0.030676432,-0.08855261653661728,-0.041168440133333206,3.0722098350524902,1016.4326,
2021.02.11 16:46:00,10.0,14.0,-3.1799998,-32.82,-26.76,0.15323359,0.5889916,9.77343,0.024344202,0.012515408,-0.030410094,-0.06018439307808876,-0.015677304938435555,3.0532116889953613,1016.4326,
2021.02.11 16:46:00,10.0,14.0,-3.06,-33.0,-26.519999,0.2561874,0.7996878,9.783007,0.022511607,-0.0033670892,0.0056309556,-0.08153337985277176,-0.026180997490882874,3.064779758453369,1016.4326,
2021.02.11 16:46:00,10.0,14.0,-3.6,-33.18,-26.64,0.10055954,0.5554718,9.457385,0.04144843,0.009461081,-0.034075286,-0.05866347625851631,-0.010632511228322983,3.036885976791382,1016.4326,
2021.02.11 16:46:00,10.0,14.0,-3.06,-33.0,-26.82,-0.105348095,0.41181526,9.608225,0.00662911,9.089675E-4,-0.017581923,-0.0428319126367569,0.0109639260917902,3.036588668823242,1016.42944,
2021.02.11 16:46:00,10.0,14.0,-3.06,-33.36,-26.939999,0.057462595,0.6464542,9.759064,-0.0019230038,0.004574159,0.01662653,-0.06614363938570023,-0.00588805740699172,3.0497615337371826,1016.4241,
2021.02.11 16:46:00,10.0,14.0,-3.3,-33.239998,-26.76,0.12689656,0.6392714,9.498088,0.021900741,0.014348002,0.017237397,-0.06719793379306793,-0.013359427452087402,3.0480616092681885,1016.4241,
2021.02.11 16:46:00,10.0,14.0,-2.7,-33.3,-26.58,0.105348095,0.53392327,9.574705,0.0121268965,-0.010697473,0.006241821,-0.055702876299619675,-0.011002306826412678,3.0659539699554443,1016.4304,
2021.02.11 16:46:00,10.0,14.0,-3.06,-33.42,-26.58,0.071828246,0.5889916,9.720756,-0.0074207913,-0.007643146,0.018459126,-0.060515500605106354,-0.007389028090983629,3.0516464710235596,1016.4304,
2021.02.11 16:46:00,10.0,14.0,-2.82,-33.239998,-25.92,0.13886794,0.6703969,9.601042,0.0029639183,-9.236283E-4,0.026400374,-0.06970501691102982,-0.014462832361459732,3.063768148422241,1016.4238,
2021.02.11 16:46:00,10.0,14.0,-2.52,-33.48,-26.16,0.12210801,0.57462597,9.720756,0.0017421878,-0.008254011,0.013572204,-0.059039950370788574,-0.012560916133224964,3.0729594230651855,1016.4243,
2021.02.11 16:46:00,10.0,14.0,-2.8799999,-33.239998,-26.34,0.18196489,0.67757976,9.541185,-7.012733E-4,0.010682812,0.017237397,-0.07088443636894226,-0.019069205969572067,3.065758228302002,1016.4243,
2021.02.11 16:46:00,10.0,14.0,-2.7,-33.48,-26.16,0.11253092,0.5698374,9.632168,-0.0074207913,-0.010697473,-4.7769662E-4,-0.059086933732032776,-0.011682292446494102,3.0666208267211914,1016.4287,
2021.02.11 16:46:00,10.0,14.0,-2.6399999,-33.48,-26.64,0.09577099,0.6177229,9.701602,-0.008642522,-0.008254011,0.0050200904,-0.06358333677053452,-0.009871347807347775,3.066793918609619,1016.4287,
2021.02.11 16:46:00,10.0,14.0,-2.58,-33.54,-26.82,0.1699935,0.600963,9.526819,-0.0013121385,-3.12763E-4,-4.7769662E-4,-0.06298770755529404,-0.01784178428351879,3.075580358505249,1016.4236,
2021.02.11 16:46:00,10.0,14.0,-2.46,-34.079998,-26.64,0.105348095,0.6201172,9.732727,-0.0178055,-0.0021453588,-0.014527597,-0.06362491101026535,-0.010823685675859451,3.074496269226074,1016.4219,
2021.02.11 16:46:01,10.0,14.0,-2.52,-33.719997,-26.76,0.1340794,0.65363705,9.569917,-0.00497733,9.089675E-4,-0.005975484,-0.0681886374950409,-0.014009591192007065,3.074280023574829,1016.4219,
2021.02.11 16:46:01,10.0,14.0,-3.0,-33.84,-26.88,0.09577099,0.57223165,9.694419,-0.012307713,-0.0015344934,-0.015138462,-0.058955635875463486,-0.00987866148352623,3.056867837905884,1016.4319,
2021.02.11 16:46:01,10.0,14.0,-3.1799998,-33.899998,-26.34,0.15083931,0.6201172,9.596253,-0.008642522,-0.006421415,-0.017581923,-0.06452309340238571,-0.015717267990112305,3.055722951889038,1016.4319,
2021.02.11 16:46:01,10.0,14.0,-3.0,-33.42,-26.279999,0.06943397,0.5794145,9.794978,-0.014140309,-0.0021453588,-0.016971057,-0.059083905071020126,-0.007088612765073776,3.0533671379089355,1016.4358,
2021.02.11 16:46:01,10.0,14.0,-3.1799998,-33.42,-26.279999,0.14126222,0.6177229,9.648928,-0.0019230038,-0.0021453588,-0.004753753,-0.06392576545476913,-0.014639153145253658,3.0535686016082764,1016.4424,
2021.02.11 16:46:01,10.0,14.0,-3.3,-33.18,-26.46,0.105348095,0.57223165,9.61062,-0.00497733,-0.013140933,-0.01025154,-0.05946781858801842,-0.010961194522678852,3.046473741531372,1016.4424,
2021.02.11 16:46:01,10.0,14.0,-3.24,-32.76,-26.699999,0.043096945,0.56265455,9.711179,-0.012307713,-3.12763E-4,-0.010862405,-0.05787358805537224,-0.004437840543687344,3.041749954223633,1016.43726,
2021.02.11 16:46:01,10.0,14.0,-3.6599998,-32.88,-26.88,0.10055954,0.5865973,9.634562,-0.009253386,0.0051850243,0.0025766296,-0.06080632284283638,-0.010436996817588806,3.033647060394287,1016.43726,
2021.02.11 16:46:01,10.0,14.0,-3.24,-32.88,-27.3,0.16520496,0.56265455,9.77343,-0.011696848,-0.014973529,0.0031874948,-0.05749814584851265,-0.01690186932682991,3.052936315536499,1016.42847,
2021.02.11 16:46:01,10.0,14.0,-3.0,-33.0,-27.48,0.17957062,0.5889916,9.5483675,0.009072571,-9.236283E-4,0.015404799,-0.06159612908959389,-0.01880420371890068,3.0622923374176025,1016.4258,
2021.02.11 16:46:01,10.0,14.0,-2.8799999,-33.059998,-27.48,0.11013664,0.5219519,9.627379,-9.040806E-5,-0.0058105504,-0.0010885618,-0.054158806800842285,-0.01143944077193737,3.0603859424591064,1016.4258,
2021.02.11 16:46:01,10.0,14.0,-2.6399999,-33.3,-27.66,0.05506832,0.531529,9.751882,0.007239975,-0.0033670892,0.008074417,-0.05445053055882454,-0.0056468830443918705,3.063509225845337,1016.4236,
2021.02.11 16:46:01,10.0,14.0,-2.58,-33.48,-27.06,0.17478207,0.60335726,9.505271,0.010905167,0.014348002,0.020291721,-0.06338033825159073,-0.018385836854577065,3.075998306274414,1016.4236,
2021.02.11 16:46:01,10.0,14.0,-2.04,-33.54,-26.699999,0.11253092,0.54828894,9.694419,0.0041856486,0.010682812,0.009907013,-0.05649318918585777,-0.011607282795011997,3.0875465869903564,1016.42847,
2021.02.11 16:46:01,10.0,14.0,-2.28,-33.66,-26.76,0.07422252,0.53392327,9.574705,0.011516031,0.00823935,0.0086852815,-0.05570457503199577,-0.007751782890409231,3.0771522521972656,1016.4336,
2021.02.11 16:46:01,10.0,14.0,-2.04,-33.18,-26.64,0.10774237,0.5794145,9.63935,-0.009253386,-0.0015344934,0.024567777,-0.06003331020474434,-0.011176882311701775,3.0863795280456543,1016.4336,
2021.02.11 16:46:01,10.0,14.0,-2.1599998,-32.94,-26.699999,0.102953814,0.6344828,9.550762,-0.0019230038,0.00823935,0.021513453,-0.06633137166500092,-0.010779226198792458,3.081462860107422,1016.4297,
2021.02.11 16:46:02,10.0,14.0,-2.76,-32.88,-26.88,0.11971374,0.54828894,9.737515,-0.0037555995,-0.0033670892,0.011739608,-0.056243229657411575,-0.012293455190956593,3.0641703605651855,1016.4297,
2021.02.11 16:46:02,10.0,14.0,-2.76,-32.94,-26.58,0.15562786,0.6153286,9.63935,-9.040806E-5,-0.006421415,0.01662653,-0.06374029815196991,-0.01614365540444851,3.0669798851013184,1016.4304,
2021.02.11 16:46:02,10.0,14.0,-2.7,-33.12,-26.4,0.1340794,0.62251145,9.711179,-0.0013121385,-0.014973529,0.011128743,-0.06400889158248901,-0.013805828988552094,3.0672659873962402,1016.4314,
2021.02.11 16:46:02,10.0,14.0,-3.1799998,-33.42,-26.699999,0.08619389,0.55786604,9.61062,-0.0025338691,2.9810224E-4,0.00379836,-0.05797944217920303,-0.008968368172645569,3.0494322776794434,1016.4314,
2021.02.11 16:46:02,10.0,14.0,-3.3,-33.239998,-26.519999,0.076616794,0.57462597,9.7135725,0.004796514,-0.010697473,0.009907013,-0.05908631533384323,-0.00788743793964386,3.0441393852233887,1016.4309,
2021.02.11 16:46:02,10.0,14.0,-3.24,-33.18,-26.939999,0.15802214,0.6081458,9.663293,0.009072571,-0.007032281,0.011739608,-0.06284232437610626,-0.01635136641561985,3.0527398586273193,1016.4309,
2021.02.11 16:46:02,10.0,14.0,-3.8999999,-33.239998,-27.06,0.09337672,0.5602603,9.6896305,5.204572E-4,-0.009475742,-0.004142888,-0.05775362253189087,-0.009636469185352325,3.0270113945007324,1016.4287,
2021.02.11 16:46:02,10.0,14.0,-3.4199998,-33.3,-26.699999,0.098165266,0.62251145,9.474146,0.009072571,0.0015198328,0.009296147,-0.06560850888490677,-0.010361013002693653,3.0420618057250977,1016.4219,
2021.02.11 16:46:02,10.0,14.0,-3.48,-33.6,-26.76,0.07901107,0.5650489,9.840469,-0.0043664644,-0.0045888196,0.0050200904,-0.057356096804142,-0.008029024116694927,3.0399413108825684,1016.4219,
2021.02.11 16:46:02,10.0,14.0,-3.3,-33.36,-27.0,0.17478207,0.6368771,9.39274,0.021289876,-0.0021453588,0.021513453,-0.0676899328827858,-0.01860606111586094,3.0528981685638428,1016.41846,
2021.02.11 16:46:02,10.0,14.0,-2.9399998,-33.66,-27.48,0.05985687,0.54828894,9.70639,-7.012733E-4,-0.006421415,0.0068526864,-0.056426383554935455,-0.0061666700057685375,3.055379629135132,1016.41846,
2021.02.11 16:46:02,10.0,14.0,-3.12,-33.84,-27.24,0.13886794,0.6296943,9.62259,0.004796514,0.00701762,0.019680856,-0.06533920764923096,-0.014430450275540352,3.05655574798584,1016.4109,
2021.02.11 16:46:02,10.0,14.0,-2.82,-34.26,-27.06,0.19393626,0.61293435,9.644139,0.006018244,-0.0058105504,0.008074417,-0.0634569525718689,-0.020106524229049683,3.071634292602539,1016.4177,
2021.02.11 16:46:02,10.0,14.0,-3.12,-34.26,-26.58,0.12450229,0.57462597,9.57231,-0.0019230038,0.0033524283,0.0025766296,-0.059953007847070694,-0.013005769811570644,3.0567126274108887,1016.4177,
2021.02.11 16:46:02,10.0,14.0,-2.8799999,-33.84,-25.98,0.16041641,0.66321415,9.608225,-0.009253386,0.010682812,0.0013548991,-0.06890678405761719,-0.016694186255335808,3.065230131149292,1016.4209,
2021.02.11 16:46:02,10.0,14.0,-2.8799999,-33.6,-26.699999,0.21069619,0.6153286,9.627379,-0.019638095,-3.12763E-4,-0.021247115,-0.06381238996982574,-0.02188161015510559,3.06960129737854,1016.4209,
2021.02.11 16:46:03,10.0,14.0,-2.6399999,-33.0,-27.24,0.076616794,0.6344828,9.73991,-0.00497733,-0.0033670892,-0.03224269,-0.06504865735769272,-0.007866110652685165,3.0638999938964844,1016.427,
2021.02.11 16:46:03,10.0,14.0,-2.34,-32.94,-27.599998,0.16281068,0.5961744,9.598648,0.011516031,2.9810224E-4,-0.040183935,-0.06202166900038719,-0.016960209235548973,3.081608295440674,1016.42773,
2021.02.11 16:46:03,10.0,14.0,-2.58,-33.0,-27.48,0.014365649,0.50998056,9.838076,0.02312247,0.016791465,-0.031020958,-0.05179101601243019,-0.0014602080918848515,3.0612196922302246,1016.42773,
2021.02.11 16:46:03,10.0,14.0,-2.28,-33.0,-26.88,0.06464542,0.5818088,9.581888,0.013348627,0.0057958895,-0.01025154,-0.06064380705356598,-0.006746524013578892,3.074664831161499,1016.43164,
2021.02.11 16:46:03,10.0,14.0,-2.7,-33.0,-26.88,0.052674048,0.5650489,9.749487,-0.013529444,0.009461081,-0.02185798,-0.057891178876161575,-0.005402698181569576,3.0603811740875244,1016.43164,
2021.02.11 16:46:03,10.0,14.0,-2.8799999,-33.239998,-26.58,0.11253092,0.6943397,9.507666,0.0035747832,0.014348002,-0.004142888,-0.07289496064186096,-0.011835256591439247,3.059593915939331,1016.43994,
2021.02.11 16:46:03,10.0,14.0,-2.82,-33.239998,-27.119999,0.0047885496,0.5458947,9.79019,-0.0068099257,-0.013140933,-0.020025386,-0.05570166930556297,-4.891171120107174E-4,3.053222894668579,1016.4409,
2021.02.11 16:46:03,10.0,14.0,-3.12,-33.48,-27.119999,0.08858817,0.66321415,9.57231,-0.0061990605,-9.236283E-4,0.01418307,-0.06917115300893784,-0.009254363365471363,3.050834894180298,1016.4409,
2021.02.11 16:46:03,10.0,14.0,-3.1799998,-33.3,-26.82,0.05985687,0.6464542,9.653716,-0.011085982,-9.236283E-4,0.006241821,-0.06686317920684814,-0.006200317293405533,3.0460076332092285,1016.4375,
2021.02.11 16:46:03,10.0,14.0,-2.8799999,-33.239998,-26.76,0.076616794,0.6177229,9.684841,-0.0043664644,0.007628485,0.0044092257,-0.06369417905807495,-0.0079108364880085,3.0570032596588135,1016.4375,
2021.02.11 16:46:03,10.0,14.0,-3.12,-33.42,-26.519999,0.05027977,0.6656084,9.457385,0.012737762,-0.0015344934,0.0013548991,-0.07026290148496628,-0.0053164055570960045,3.047226905822754,1016.4441,
2021.02.11 16:46:03,10.0,14.0,-2.82,-33.3,-26.34,0.023942748,0.45251793,9.402317,0.048167948,-0.0021453588,0.011128743,-0.04809107258915901,-0.002546467585489154,3.0557618141174316,1016.44946,
2021.02.11 16:46:03,10.0,14.0,-2.76,-33.66,-25.859999,0.29210153,0.72546524,9.514848,0.028620258,-0.02902343,0.018459126,-0.07606266438961029,-0.030689910054206848,3.0794677734375,1016.44946,
2021.02.11 16:46:03,10.0,14.0,-2.76,-33.239998,-25.92,0.09577099,0.54828894,9.651321,-7.012733E-4,-0.023525642,-0.045681726,-0.05674594268202782,-0.009922770783305168,3.0628445148468018,1016.4429,
2021.02.11 16:46:03,10.0,14.0,-2.52,-33.36,-25.8,-0.03351985,0.6249057,9.830893,-0.010475118,-0.0033670892,-0.029799229,-0.06347973644733429,0.0034096313174813986,3.0593957901000977,1016.4429,
2021.02.11 16:46:03,10.0,14.0,-2.58,-33.12,-25.74,0.0670397,0.64166564,9.526819,5.204572E-4,0.010682812,-0.011473271,-0.06725037097930908,-0.007036828901618719,3.0651376247406006,1016.43726,
2021.02.11 16:46:03,10.0,14.0,-2.58,-33.0,-25.8,0.098165266,0.6344828,9.694419,-0.0031447343,-0.0033670892,-0.013305867,-0.065351702272892,-0.01012561097741127,3.0675158500671387,1016.43677,
2021.02.11 16:46:04,10.0,14.0,-2.58,-33.239998,-25.619999,0.105348095,0.68236834,9.581888,-0.0031447343,-0.010697473,-0.025523173,-0.07109008729457855,-0.010994059033691883,3.0683798789978027,1016.43677,
2021.02.11 16:46:04,10.0,14.0,-2.58,-33.18,-25.8,-0.05027977,0.5770202,9.730332,-0.012307713,-0.0021453588,-0.029188365,-0.05923102796077728,0.005167277064174414,3.05592679977417,1016.4302,
2021.02.11 16:46:04,10.0,14.0,-2.8799999,-33.18,-26.16,0.062251143,0.6656084,9.644139,-9.040806E-5,9.089675E-4,0.0068526864,-0.06890618056058884,-0.006454726215451956,3.0551888942718506,1016.4302,
2021.02.11 16:46:04,10.0,14.0,-2.58,-33.3,-26.34,0.12210801,0.66321415,9.651321,-7.012733E-4,-0.0021453588,0.0031874948,-0.06860411167144775,-0.012651272118091583,3.0701992511749268,1016.4336,
2021.02.11 16:46:04,10.0,14.0,-2.58,-33.3,-26.46,0.031125572,0.6296943,9.624985,-0.0043664644,0.0051850243,1.3316862E-4,-0.06532944738864899,-0.0032338195014744997,3.0625722408294678,1016.42554,
2021.02.11 16:46:04,10.0,14.0,-2.34,-33.18,-26.16,0.15562786,0.7206767,9.672871,-0.0074207913,0.0015198328,-0.003532023,-0.07435795664787292,-0.016087718307971954,3.080054759979248,1016.42554,
2021.02.11 16:46:04,10.0,14.0,-2.04,-33.12,-26.279999,0.045491222,0.5698374,9.715967,-0.011085982,-0.011308338,-0.029188365,-0.05858183279633522,-0.00468207523226738,3.0808587074279785,1016.43115,
2021.02.11 16:46:04,10.0,14.0,-2.22,-33.18,-26.46,0.0,0.62251145,9.644139,-0.0074207913,0.008850216,-0.014527597,-0.06445874273777008,1.0E-6,3.0710244178771973,1016.43115,
2021.02.11 16:46:04,10.0,14.0,-2.22,-33.18,-25.98,0.076616794,0.5985687,9.577099,0.012737762,9.089675E-4,-0.0010885618,-0.06241682171821594,-0.007999829947948456,3.0777907371520996,1016.4365,
2021.02.11 16:46:04,10.0,14.0,-2.04,-33.0,-26.039999,0.0071828244,0.60335726,9.718362,0.0041856486,0.0027415634,-0.006586349,-0.062004659324884415,-7.39098119083792E-4,3.0771684646606445,1016.4253,
2021.02.11 16:46:04,10.0,14.0,-1.9799999,-33.18,-25.859999,0.03351985,0.67279124,9.617802,0.0023530528,0.007628485,-0.005975484,-0.0698385089635849,-0.003485174151137471,3.081275463104248,1016.4253,
2021.02.11 16:46:04,10.0,14.0,-1.68,-33.12,-25.619999,0.062251143,0.65842557,9.577099,-0.008031656,0.010682812,-0.010862405,-0.06864054501056671,-0.006499908398836851,3.0932531356811523,1016.42725,
2021.02.11 16:46:04,10.0,14.0,-1.74,-33.36,-25.859999,-0.0023942748,0.6440599,9.696813,-0.009864252,-0.008864877,-0.012084136,-0.06632233411073685,2.469135797582567E-4,3.086336135864258,1016.42725,
2021.02.11 16:46:04,10.0,14.0,-1.86,-33.48,-26.099998,-0.011971374,0.63208854,9.687236,0.0041856486,-0.0039779544,-0.003532023,-0.0651572197675705,0.0012357878731563687,3.081989049911499,1016.4353,
2021.02.11 16:46:04,10.0,14.0,-1.74,-33.6,-25.74,0.07422252,0.6440599,9.677659,0.013959493,0.012515408,0.009907013,-0.06645127385854721,-0.007669319864362478,3.093147039413452,1016.4409,
2021.02.11 16:46:04,10.0,14.0,-1.92,-33.78,-25.92,0.009577099,0.63208854,9.526819,0.017624684,2.9810224E-4,0.01418307,-0.06625119596719742,-0.00100527738686651,3.0824570655822754,1016.4409,
2021.02.11 16:46:04,10.0,14.0,-1.9799999,-33.78,-26.46,0.08858817,0.7350424,9.6896305,0.011516031,-0.0058105504,0.0031874948,-0.07571050524711609,-0.009142320603132248,3.086786985397339,1016.4287,
2021.02.11 16:46:05,10.0,14.0,-1.92,-33.719997,-26.099998,0.035914123,0.69673395,9.624985,0.008461705,2.9810224E-4,-0.018803654,-0.0722615197300911,-0.003731326200067997,3.0842456817626953,1016.4287,
2021.02.11 16:46:05,10.0,14.0,-2.04,-33.66,-26.22,-0.03351985,0.71588814,9.711179,0.00785084,-0.009475742,-0.012084136,-0.07358440011739731,0.0034516630694270134,3.0743625164031982,1016.4302,
2021.02.11 16:46:05,10.0,14.0,-2.22,-33.18,-26.099998,-0.011971374,0.70631105,9.591465,0.022511607,0.004574159,-0.004753753,-0.07350680232048035,0.0012481271987780929,3.0694594383239746,1016.42773,
2021.02.11 16:46:05,10.0,14.0,-1.86,-33.18,-25.98,-0.011971374,0.6751855,9.438231,0.012737762,0.0027415634,-0.00780808,-0.07141557335853577,0.0012683910317718983,3.0810763835906982,1016.42773,
2021.02.11 16:46:05,10.0,14.0,-1.86,-33.42,-26.16,-0.47167215,0.69673395,8.152506,-0.0318554,-0.15913773,-0.005975484,-0.08511374890804291,0.05779166892170906,3.033679485321045,1016.4243,
2021.02.11 16:46:05,10.0,14.0,-1.74,-33.48,-26.22,0.12929083,0.67279124,10.170879,-0.101494044,-0.1719659,0.027622106,-0.06604723632335663,-0.012711179442703724,3.097215414047241,1016.4243,
2021.02.11 16:46:05,10.0,14.0,-1.56,-33.54,-26.099998,0.05027977,0.64166564,9.905115,0.069548234,0.09070616,0.023956914,-0.0646900162100792,-0.005076098255813122,3.096707820892334,1016.4265,
