Time,X-cord,Y-cord,Mag_x,Mag_y,Mag_z,Acc_x,Acc_y,Acc_z,Gyro_x,Gyro_y,Gyro_z,Orn_x,Orn_y,Orn_z,Pressure,
2021.02.11 16:40:55,27.0,25.0,-34.14,-11.28,-32.94,-0.29689008,0.63208854,8.58587,0.16606495,0.18172508,-0.06889461,-0.07344331592321396,0.03456514701247215,1.8186043500900269,1016.4104,
2021.02.11 16:40:55,27.0,25.0,-33.54,-11.04,-32.7,0.026337024,0.70870537,9.565128,0.1544585,0.17744902,0.011128743,-0.07395720481872559,-0.0027534349355846643,1.8220775127410889,1016.4104,
2021.02.11 16:40:55,27.0,25.0,-33.36,-11.04,-32.64,-0.117319465,0.67279124,9.603436,0.013348627,-0.013140933,0.02701124,-0.06993786245584488,0.012215796858072281,1.8247238397598267,1016.41895,
2021.02.11 16:40:55,27.0,25.0,-33.059998,-11.099999,-32.82,0.05985687,0.7398309,9.596253,0.013959493,-0.025358237,0.053889308,-0.07694211602210999,-0.006237444002181292,1.8247766494750977,1016.41895,
2021.02.11 16:40:55,27.0,25.0,-33.239998,-11.04,-33.059998,-0.08140534,0.5554718,9.677659,0.012737762,-0.01986045,0.034341622,-0.05733240023255348,0.00841147918254137,1.837120771408081,1016.42944,
2021.02.11 16:40:55,27.0,25.0,-33.12,-10.98,-33.18,0.18914771,0.6751855,9.943423,0.006018244,-0.040629867,0.058776233,-0.06778642535209656,-0.01902010105550289,1.831484079360962,1016.4265,
2021.02.11 16:40:55,27.0,25.0,-33.0,-11.099999,-32.76,0.062251143,0.50040346,9.42626,0.02984199,-0.018638719,0.031287298,-0.05303516983985901,-0.006603917106986046,1.8482414484024048,1016.4265,
2021.02.11 16:40:55,27.0,25.0,-33.239998,-11.219999,-32.399998,0.12689656,0.12450229,9.490906,-0.015972905,-0.023525642,0.011739608,-0.013116137124598026,-0.013369535095989704,1.8885267972946167,1016.427,
2021.02.11 16:40:55,27.0,25.0,-33.42,-11.46,-31.92,0.46927786,0.4956149,10.36721,-0.048348762,-0.0681188,0.023956914,-0.04772084206342697,-0.04523470625281334,1.8700190782546997,1016.427,
2021.02.11 16:40:55,27.0,25.0,-33.6,-11.759999,-31.619999,0.10774237,0.82602483,9.306546,0.015792089,-9.236283E-4,-0.035297018,-0.08851952850818634,-0.011576534248888493,1.8320345878601074,1016.4209,
2021.02.11 16:40:55,27.0,25.0,-33.54,-11.82,-31.859999,-0.27055305,0.4644893,8.959376,-0.0013121385,0.0302305,-0.054233838,-0.05177399888634682,0.030188582837581635,1.8585940599441528,1016.41675,
2021.02.11 16:40:55,27.0,25.0,-33.36,-12.12,-32.219997,-0.45491222,0.22506183,9.684841,-0.11982,0.036950015,0.038617678,-0.023208806291222572,0.04693707451224327,1.887228012084961,1016.41675,
2021.02.11 16:40:56,27.0,25.0,-33.239998,-12.0,-32.1,0.50998056,0.6201172,9.864412,-0.114322215,0.0057958895,0.13452353,-0.06269794702529907,-0.05165304243564606,1.8738127946853638,1016.41187,
2021.02.11 16:40:56,27.0,25.0,-33.239998,-11.4,-32.46,0.5219519,0.5961744,9.77343,-0.085611545,0.01862406,0.08321084,-0.060837533324956894,-0.05335450917482376,1.8582206964492798,1016.41187,
2021.02.11 16:40:56,27.0,25.0,-33.66,-11.16,-32.64,0.15083931,0.6344828,10.312141,-0.10088317,-0.024747374,0.011739608,-0.061443720012903214,-0.014626307412981987,1.8386142253875732,1016.4153,
2021.02.11 16:40:56,27.0,25.0,-33.66,-10.559999,-32.7,-0.3902668,0.53871185,9.244295,-0.008642522,-3.12763E-4,-0.038962208,-0.0581575408577919,0.04219198599457741,1.8150584697723389,1016.42163,
2021.02.11 16:40:56,27.0,25.0,-33.66,-10.26,-32.94,0.25139886,0.3304099,9.399923,0.0017421878,9.089675E-4,0.0294547,-0.03512326255440712,-0.026738403365015984,1.8407152891159058,1016.42163,
2021.02.11 16:40:56,27.0,25.0,-33.66,-10.38,-32.94,0.31604427,-0.11492519,9.821315,-0.034909725,-0.041851602,-4.7769662E-4,0.011695022694766521,-0.032168325036764145,1.8902229070663452,1016.4204,
2021.02.11 16:40:56,27.0,25.0,-33.66,-10.5,-32.76,0.37111259,0.9624985,8.719949,-0.0055881953,0.003963294,-0.003532023,-0.10983528196811676,-0.04253336787223816,1.7754830121994019,1016.4204,
2021.02.11 16:40:56,27.0,25.0,-33.36,-10.5,-32.7,-0.17478207,0.8547561,10.252285,-0.12104172,-0.014973529,-0.16113526,-0.08316785842180252,0.017046457156538963,1.7967246770858765,1016.4099,
2021.02.11 16:40:56,27.0,25.0,-33.3,-10.44,-32.82,-0.61293435,0.16281068,10.513261,-0.06728558,0.0015198328,-0.17946121,-0.015458737500011921,0.05823514983057976,1.8469462394714355,1016.42065,
2021.02.11 16:40:56,27.0,25.0,-33.12,-10.62,-32.82,-0.15562786,0.20111908,9.517242,0.10497842,0.010071946,0.04472633,-0.02112610638141632,0.016350744292140007,1.8578909635543823,1016.42065,
2021.02.11 16:40:56,27.0,25.0,-32.82,-10.559999,-33.36,0.27055305,0.48124924,8.772623,0.1104762,0.0027415634,0.10825632,-0.054777152836322784,-0.030830837786197662,1.8369601964950562,1016.42163,
2021.02.11 16:40:56,27.0,25.0,-33.12,-10.74,-33.36,-0.0047885496,0.68236834,10.13736,-0.061176933,-0.018638719,-0.013916732,-0.0672108381986618,4.7236651880666614E-4,1.8212321996688843,1016.42163,
2021.02.11 16:40:56,27.0,25.0,-33.18,-10.8,-33.36,-0.15323359,0.54350036,9.895537,-0.008642522,-0.009475742,-0.029188365,-0.054862093180418015,0.015483882278203964,1.8313482999801636,1016.42285,
2021.02.11 16:40:56,27.0,25.0,-33.42,-10.44,-33.42,-0.038308397,0.2466103,9.567522,0.066493906,2.9810224E-4,0.034952488,-0.02576986327767372,0.004003982525318861,1.848879098892212,1016.41626,
2021.02.11 16:40:56,27.0,25.0,-33.54,-10.26,-33.12,0.20351335,0.64166564,9.45978,0.045724485,-0.008254011,0.070993535,-0.06771156191825867,-0.02151022106409073,1.8083723783493042,1016.41626,
2021.02.11 16:40:56,27.0,25.0,-33.66,-10.38,-32.94,-0.045491222,0.52674043,9.840469,-0.010475118,0.011293677,-0.0010885618,-0.05347637087106705,0.004622838459908962,1.8202193975448608,1016.4204,
2021.02.11 16:40:56,27.0,25.0,-33.54,-10.44,-32.94,-0.06943397,0.4764607,9.593859,0.014570358,0.0064067547,0.0013548991,-0.04962103068828583,0.007237208541482687,1.8258086442947388,1016.4204,
2021.02.11 16:40:57,27.0,25.0,-33.54,-10.559999,-32.64,0.09577099,0.5889916,9.514848,0.009072571,-0.0039779544,0.02823297,-0.06182035431265831,-0.01006508618593216,1.8214377164840698,1016.41016,
2021.02.11 16:40:57,27.0,25.0,-33.66,-10.92,-32.52,0.026337024,0.5818088,9.593859,-7.012733E-4,-0.009475742,0.011128743,-0.06056947261095047,-0.0027451892383396626,1.830667495727539,1016.4121,
2021.02.11 16:40:57,27.0,25.0,-33.66,-10.86,-32.399998,-0.04070267,0.54350036,9.761458,-0.0019230038,-0.011308338,-0.010862405,-0.055620282888412476,0.0041697085835039616,1.8324456214904785,1016.4121,
2021.02.11 16:40:57,27.0,25.0,-33.719997,-10.98,-32.399998,-0.019154198,0.4764607,9.550762,0.035339776,-0.024136508,-4.7769662E-4,-0.04984576627612114,0.002005512360483408,1.8409379720687866,1016.4114,
2021.02.11 16:40:57,27.0,25.0,-33.78,-11.28,-32.64,0.05506832,0.5770202,9.682447,0.004796514,-0.025969103,0.01784826,-0.059523098170757294,-0.0056873769499361515,1.8410611152648926,1016.4114,
2021.02.11 16:40:57,27.0,25.0,-33.42,-11.16,-32.579998,0.11253092,0.6273,9.63935,0.008461705,-0.013140933,0.0050200904,-0.06498095393180847,-0.01167358923703432,1.8366389274597168,1016.4131,
2021.02.11 16:40:57,27.0,25.0,-33.12,-10.74,-32.52,0.052674048,0.5554718,9.670476,0.0035747832,-0.015584394,-0.00902981,-0.057376064360141754,-0.005446838680654764,1.833169937133789,1016.41455,
2021.02.11 16:40:57,27.0,25.0,-33.239998,-10.679999,-32.46,0.019154198,0.5554718,9.668081,0.011516031,-0.014362663,0.0050200904,-0.05739098787307739,-0.0019811762031167746,1.8299888372421265,1016.41455,
2021.02.11 16:40:57,27.0,25.0,-33.42,-10.559999,-32.04,0.04070267,0.5961744,9.560339,0.009072571,-0.0058105504,0.012350474,-0.06227792426943779,-0.004257424734532833,1.8218672275543213,1016.4204,
2021.02.11 16:40:57,27.0,25.0,-33.78,-10.38,-31.98,0.05506832,0.5698374,9.61062,-0.0074207913,-0.0045888196,0.019069992,-0.05922216922044754,-0.005729882512241602,1.8174134492874146,1016.4204,
2021.02.11 16:40:57,27.0,25.0,-34.14,-10.98,-32.16,0.105348095,0.600963,9.660899,-0.0068099257,-0.014973529,0.025178645,-0.06212196499109268,-0.010904152877628803,1.8294447660446167,1016.417,
2021.02.11 16:40:57,27.0,25.0,-34.2,-10.8,-31.98,0.14605077,0.6392714,9.603436,0.0029639183,-0.010697473,0.017237397,-0.06646121293306351,-0.015207004733383656,1.821088433265686,1016.4087,
2021.02.11 16:40:57,27.0,25.0,-33.78,-10.86,-32.04,0.09577099,0.5794145,9.732727,-0.00497733,-0.007032281,0.0019657644,-0.059459540992975235,-0.009839780628681183,1.8312227725982666,1016.4087,
2021.02.11 16:40:57,27.0,25.0,-33.36,-10.86,-32.28,0.117319465,0.59378016,9.596253,0.012737762,-0.005199685,0.0031874948,-0.061792854219675064,-0.012224939651787281,1.8322688341140747,1016.41064,
2021.02.11 16:40:57,27.0,25.0,-33.059998,-10.38,-32.04,0.13647367,0.5770202,9.58907,0.0017421878,9.089675E-4,-0.0023102923,-0.06009623780846596,-0.014231249690055847,1.8232296705245972,1016.41064,
2021.02.11 16:40:57,27.0,25.0,-32.82,-10.2,-32.16,0.057462595,0.6273,9.663293,-0.011696848,0.0057958895,-0.018192789,-0.06482366472482681,-0.005946411285549402,1.813629388809204,1016.4099,
2021.02.11 16:40:57,27.0,25.0,-33.18,-9.78,-32.64,0.057462595,0.56265455,9.624985,-0.0037555995,0.0033524283,-0.018803654,-0.058390211313962936,-0.005970078054815531,1.8043550252914429,1016.4065,
2021.02.11 16:40:58,27.0,25.0,-33.36,-10.0199995,-32.7,0.057462595,0.5602603,9.735122,0.0017421878,-0.0039779544,-0.009640676,-0.05748600885272026,-0.005902538541704416,1.8107119798660278,1016.4065,
2021.02.11 16:40:58,27.0,25.0,-33.36,-10.44,-33.059998,0.1987248,0.67279124,9.5244255,0.020068146,-0.011919203,1.3316862E-4,-0.07050607353448868,-0.020861729979515076,1.8120477199554443,1016.4148,
2021.02.11 16:40:58,27.0,25.0,-33.66,-10.8,-32.88,-0.045491222,0.5554718,9.663293,-0.0019230038,-0.009475742,-0.034075286,-0.057418834418058395,0.004707596730440855,1.8282829523086548,1016.4148,
2021.02.11 16:40:58,27.0,25.0,-33.66,-11.28,-32.34,-0.0047885496,0.55307746,9.567522,0.0023530528,-0.020471316,-0.015138462,-0.057743530720472336,5.005004932172596E-4,1.8428810834884644,1016.41797,
2021.02.11 16:40:58,27.0,25.0,-33.84,-10.86,-32.04,0.117319465,0.5889916,9.737515,-0.011696848,-0.027801698,0.009296147,-0.06040886789560318,-0.012047610245645046,1.8303093910217285,1016.41895,
2021.02.11 16:40:58,27.0,25.0,-34.14,-10.92,-31.8,0.15083931,0.71828246,9.785401,-0.009253386,-0.041240733,0.01662653,-0.07326339185237885,-0.015413508750498295,1.8189424276351929,1016.41895,
2021.02.11 16:40:58,27.0,25.0,-33.96,-10.86,-32.16,0.021548472,0.6273,9.553157,0.025565932,0.017402329,0.0025766296,-0.06556986272335052,-0.002255635103210807,1.8227779865264893,1016.41797,
2021.02.11 16:40:58,27.0,25.0,-34.079998,-10.92,-32.399998,0.20590763,0.54350036,9.7135725,0.021900741,0.0161806,0.0068526864,-0.055881865322589874,-0.021194756031036377,1.8356037139892578,1016.41797,
2021.02.11 16:40:58,27.0,25.0,-33.54,-11.04,-32.219997,0.28731298,0.7039168,9.1628895,0.032896318,0.03389569,0.012961339,-0.0766344666481018,-0.03134588524699211,1.8253953456878662,1016.4219,
2021.02.11 16:40:58,27.0,25.0,-33.18,-11.099999,-32.46,-0.071828246,0.6751855,10.034406,-0.034909725,0.022900116,-0.02307971,-0.06718405336141586,0.00715807406231761,1.8314565420150757,1016.4238,
2021.02.11 16:40:58,27.0,25.0,-33.36,-10.98,-32.219997,-0.06464542,0.5961744,9.634562,0.008461705,-0.002756224,0.0013548991,-0.061798542737960815,0.006709640379995108,1.8322210311889648,1016.4238,
2021.02.11 16:40:58,27.0,25.0,-32.94,-10.679999,-32.219997,0.04070267,0.5219519,9.490906,0.028620258,-0.010697473,0.030676432,-0.05493910238146782,-0.0042885709553956985,1.8353742361068726,1016.4226,
2021.02.11 16:40:58,27.0,25.0,-33.42,-10.86,-32.46,0.21309046,0.6464542,9.608225,-0.0061990605,-0.0015344934,0.047169793,-0.0671636238694191,-0.02217428758740425,1.8282530307769775,1016.4226,
2021.02.11 16:40:58,27.0,25.0,-33.3,-10.62,-32.399998,0.09337672,0.6560313,9.725544,-0.021470692,0.009461081,0.028843835,-0.06734933704137802,-0.009600887075066566,1.8199701309204102,1016.4138,
2021.02.11 16:40:58,27.0,25.0,-32.94,-10.86,-32.46,0.028731298,0.5889916,9.703996,-0.00497733,-9.236283E-4,0.0019657644,-0.060621146112680435,-0.0029607610777020454,1.8345019817352295,1016.4116,
2021.02.11 16:40:58,27.0,25.0,-32.94,-10.86,-32.64,-0.03351985,0.531529,9.751882,-0.0031447343,-0.0045888196,-0.0029211575,-0.05445107817649841,0.0034372564405202866,1.8387229442596436,1016.4116,
2021.02.11 16:40:59,27.0,25.0,-33.059998,-11.16,-32.76,0.10774237,0.6153286,9.419077,0.021900741,9.089675E-4,0.04411547,-0.06523095816373825,-0.011438241228461266,1.8388338088989258,1016.407,
2021.02.11 16:40:59,27.0,25.0,-33.6,-11.28,-32.46,0.0670397,0.5698374,9.905115,0.0035747832,0.0051850243,0.03739595,-0.057464949786663055,-0.006768086459487677,1.8448549509048462,1016.407,
2021.02.11 16:40:59,27.0,25.0,-33.899998,-11.219999,-32.28,0.10774237,0.6081458,9.715967,0.019457279,0.003963294,0.022124317,-0.0625070258975029,-0.011088752187788486,1.8373550176620483,1016.4138,
2021.02.11 16:40:59,27.0,25.0,-33.96,-11.099999,-32.399998,0.009577099,0.5602603,9.644139,0.0023530528,0.011293677,1.3316862E-4,-0.05802809074521065,-9.93048306554556E-4,1.8356012105941772,1016.4126,
2021.02.11 16:40:59,27.0,25.0,-34.2,-10.8,-32.04,0.05985687,0.61293435,9.531608,0.007239975,0.00701762,0.012350474,-0.0642157718539238,-0.006279746536165476,1.8215360641479492,1016.4126,
2021.02.11 16:40:59,27.0,25.0,-34.079998,-10.74,-32.7,0.009577099,0.57462597,9.715967,-0.009253386,0.002130698,0.01662653,-0.05907359719276428,-9.857069235295057E-4,1.8234107494354248,1016.4099,
2021.02.11 16:40:59,27.0,25.0,-33.899998,-10.559999,-32.76,0.10055954,0.6368771,9.632168,0.0011313224,0.0027415634,0.023346048,-0.06602012366056442,-0.01043959055095911,1.81475031375885,1016.4099,
2021.02.11 16:40:59,27.0,25.0,-34.079998,-10.8,-32.46,0.035914123,0.5865973,9.665688,-0.0037555995,-0.0021453588,0.00379836,-0.06061387434601784,-0.0037156131584197283,1.8245245218276978,1016.41064,
2021.02.11 16:40:59,27.0,25.0,-33.78,-10.8,-32.7,0.08140534,0.65124273,9.641745,-0.0025338691,0.0064067547,0.008074417,-0.0674392506480217,-0.008442808873951435,1.8207422494888306,1016.417,
2021.02.11 16:40:59,27.0,25.0,-33.78,-10.559999,-32.399998,0.014365649,0.6440599,9.632168,-0.0031447343,0.0051850243,-0.0010885618,-0.06676606088876724,-0.0014914231142029166,1.8140608072280884,1016.417,
2021.02.11 16:40:59,27.0,25.0,-33.899998,-10.62,-32.76,0.009577099,0.6344828,9.814133,-0.008031656,-3.12763E-4,-0.0010885618,-0.06456003338098526,-9.75847418885678E-4,1.8161979913711548,1016.41675,
2021.02.11 16:40:59,27.0,25.0,-33.84,-10.559999,-32.46,0.07422252,0.65363705,9.61062,0.011516031,-0.005199685,0.0105178775,-0.06790536642074585,-0.007722815498709679,1.8134872913360596,1016.41675,
2021.02.11 16:40:59,27.0,25.0,-34.26,-10.44,-32.52,0.014365649,0.6368771,9.711179,0.0017421878,-0.0021453588,0.0013548991,-0.06548800319433212,-0.0014792887959629297,1.8084217309951782,1016.4155,
2021.02.11 16:40:59,27.0,25.0,-33.96,-10.74,-32.579998,0.083799616,0.69912827,9.534002,0.013348627,0.0051850243,0.006241821,-0.07319615036249161,-0.00878932699561119,1.8126649856567383,1016.4231,
2021.02.11 16:40:59,27.0,25.0,-33.84,-10.62,-32.28,0.011971374,0.5889916,9.718362,0.0041856486,2.9810224E-4,-0.0016994271,-0.060531970113515854,-0.001231829752214253,1.8212028741836548,1016.4231,
2021.02.11 16:40:59,27.0,25.0,-33.78,-10.86,-32.52,0.083799616,0.7015225,9.653716,0.010294301,-0.005199685,0.0025766296,-0.07253841310739517,-0.00868033803999424,1.8180015087127686,1016.42285,
2021.02.11 16:40:59,27.0,25.0,-33.48,-11.34,-32.34,0.08619389,0.61293435,9.644139,0.006018244,0.0051850243,-0.012084136,-0.06346722692251205,-0.008937199600040913,1.842519998550415,1016.42285,
2021.02.11 16:41:00,27.0,25.0,-33.54,-11.16,-32.04,0.016759925,0.6847626,9.60583,0.009072571,-0.0039779544,-0.020025386,-0.07116565108299255,-0.001744764158502221,1.8291749954223633,1016.4241,
2021.02.11 16:41:00,27.0,25.0,-33.78,-11.28,-32.04,0.014365649,0.6296943,9.701602,0.007239975,2.9810224E-4,-0.015749328,-0.0648152306675911,-0.0014807491097599268,1.8364431858062744,1016.4182,
2021.02.11 16:41:00,27.0,25.0,-34.02,-11.219999,-32.16,-0.0023942748,0.6368771,9.624985,0.008461705,-0.0033670892,-0.016360193,-0.06607282906770706,2.4875623057596385E-4,1.8313599824905396,1016.4182,
2021.02.11 16:41:00,27.0,25.0,-33.48,-10.92,-32.28,0.026337024,0.66321415,9.672871,0.0029639183,9.089675E-4,-0.01025154,-0.0684569701552391,-0.002722765551880002,1.8251142501831055,1016.4136,
2021.02.11 16:41:00,27.0,25.0,-33.42,-11.04,-32.34,0.052674048,0.6703969,9.660899,-0.0074207913,0.0057958895,-0.004142888,-0.0692807212471962,-0.005452238488942385,1.828513503074646,1016.4136,
2021.02.11 16:41:00,27.0,25.0,-33.36,-10.98,-32.16,-0.038308397,0.66321415,9.644139,-0.012307713,-0.0033670892,-0.009640676,-0.06865998357534409,0.003972173668444157,1.8265658617019653,1016.4192,
2021.02.11 16:41:00,27.0,25.0,-33.18,-11.16,-32.16,0.08858817,0.6656084,9.663293,0.0029639183,-0.0058105504,0.008074417,-0.06876857578754425,-0.009167236275970936,1.8351978063583374,1016.42017,
2021.02.11 16:41:00,27.0,25.0,-33.66,-11.219999,-31.8,-0.043096945,0.6296943,9.737515,-7.012733E-4,0.0051850243,0.0013548991,-0.06457629054784775,0.004425838124006987,1.8352811336517334,1016.42017,
2021.02.11 16:41:00,27.0,25.0,-33.84,-11.219999,-32.04,0.08140534,0.7350424,9.490906,-0.0013121385,0.010071946,0.0056309556,-0.07728990167379379,-0.008576983585953712,1.82414972782135,1016.4104,
2021.02.11 16:41:00,27.0,25.0,-33.54,-11.04,-32.16,0.0,0.60335726,9.747093,-0.0074207913,-3.12763E-4,0.0013548991,-0.06182236596941948,1.0E-6,1.8338457345962524,1016.4104,
2021.02.11 16:41:00,27.0,25.0,-33.6,-10.86,-32.28,0.03351985,0.67279124,9.608225,0.010294301,-0.002756224,0.0019657644,-0.06990789622068405,-0.0034886477515101433,1.8213521242141724,1016.4114,
2021.02.11 16:41:00,27.0,25.0,-33.12,-10.559999,-32.52,-0.05027977,0.7829279,9.399923,0.017624684,0.014348002,0.00379836,-0.0830978974699974,0.005348904523998499,1.8020381927490234,1016.41626,
2021.02.11 16:41:00,27.0,25.0,-33.059998,-10.62,-32.399998,0.05985687,0.6847626,9.488511,0.0011313224,-9.236283E-4,0.0013548991,-0.07204122841358185,-0.006308268755674362,1.816680908203125,1016.41626,
2021.02.11 16:41:00,27.0,25.0,-33.18,-10.5,-32.52,0.0,0.65842557,9.684841,-0.015362039,-0.007032281,-0.00902981,-0.06788071244955063,1.0E-6,1.8150666952133179,1016.4065,
2021.02.11 16:41:00,27.0,25.0,-33.239998,-10.559999,-32.28,-0.016759925,0.5794145,9.687236,0.006018244,-0.0033670892,-0.010862405,-0.05974089726805687,0.0017301022307947278,1.8240500688552856,1016.4065,
2021.02.11 16:41:00,27.0,25.0,-33.719997,-10.62,-32.28,-0.014365649,0.6847626,9.545974,-9.040806E-5,-0.0033670892,-0.00902981,-0.07161038368940353,0.0015048898058012128,1.81144118309021,1016.4209,
2021.02.11 16:41:00,27.0,25.0,-33.84,-11.04,-32.28,-0.028731298,0.6440599,9.684841,-0.009864252,2.9810224E-4,-0.011473271,-0.06640377640724182,0.0029666167683899403,1.8267408609390259,1016.4182,
2021.02.11 16:41:01,27.0,25.0,-33.719997,-11.16,-32.579998,-0.05506832,0.6368771,9.742304,-0.0019230038,-0.0039779544,-0.012695001,-0.06527840346097946,0.005652434658259153,1.830915927886963,1016.4182,
2021.02.11 16:41:01,27.0,25.0,-33.66,-11.16,-32.64,0.06943397,0.6608198,9.526819,0.012737762,-9.236283E-4,-0.0016994271,-0.0692513957619667,-0.007288134656846523,1.8298742771148682,1016.42163,
2021.02.11 16:41:01,27.0,25.0,-33.48,-11.219999,-32.7,-0.009577099,0.6608198,9.672871,-0.013529444,2.9810224E-4,-0.013305867,-0.06821081042289734,9.900986915454268E-4,1.8322558403015137,1016.42163,
2021.02.11 16:41:01,27.0,25.0,-33.48,-10.92,-32.34,0.021548472,0.71588814,9.603436,-0.0061990605,0.0033524283,-0.00902981,-0.0744071900844574,-0.002243825700134039,1.8193851709365845,1016.42334,
2021.02.11 16:41:01,27.0,25.0,-33.719997,-10.98,-32.219997,-0.083799616,0.6105401,9.8548355,-0.0025338691,-0.012530067,-0.012695001,-0.06187204271554947,0.008503195829689503,1.8291951417922974,1016.42773,
2021.02.11 16:41:01,27.0,25.0,-34.02,-11.16,-32.52,-0.05985687,0.65363705,9.584282,0.016402954,-9.236283E-4,0.0031874948,-0.06809209287166595,0.006245234981179237,1.8262085914611816,1016.42773,
2021.02.11 16:41:01,27.0,25.0,-33.78,-11.34,-32.64,0.04070267,0.65842557,9.682447,0.00785084,-0.0033670892,0.011739608,-0.06789684295654297,-0.004203733988106251,1.8346836566925049,1016.42456,
2021.02.11 16:41:01,27.0,25.0,-33.36,-11.46,-33.059998,0.04070267,0.68715686,9.660899,0.00785084,0.0057958895,0.0044092257,-0.07100741565227509,-0.004213110078126192,1.837483286857605,1016.42456,
2021.02.11 16:41:01,27.0,25.0,-33.18,-11.7,-32.94,-0.011971374,0.68715686,9.648928,0.007239975,0.0033524283,0.0019657644,-0.0710957944393158,0.001240694196894765,1.8446871042251587,1016.4199,
2021.02.11 16:41:01,27.0,25.0,-32.579998,-11.4,-32.7,-0.019154198,0.6201172,9.603436,0.004796514,0.014958868,0.0025766296,-0.06448277831077576,0.001994512276723981,1.8475712537765503,1016.4192,
2021.02.11 16:41:01,27.0,25.0,-32.82,-11.4,-32.76,-0.0071828244,0.6943397,9.5483675,-0.0025338691,0.017402329,1.3316862E-4,-0.07259036600589752,7.522566593252122E-4,1.8381296396255493,1016.4192,
2021.02.11 16:41:01,27.0,25.0,-33.54,-11.5199995,-32.7,0.04070267,0.71828246,9.498088,-0.0019230038,0.010071946,-0.003532023,-0.07547953724861145,-0.0042853280901908875,1.834303379058838,1016.4221,
2021.02.11 16:41:01,27.0,25.0,-33.239998,-11.5199995,-32.64,-0.12689656,0.84039044,9.608225,0.06343958,0.0442804,-4.7769662E-4,-0.08723613619804382,0.013206308707594872,1.8228591680526733,1016.4221,
2021.02.11 16:41:01,27.0,25.0,-33.239998,-11.7,-32.52,-0.076616794,0.8092649,9.469357,0.07015909,0.004574159,0.009907013,-0.08525151759386063,0.008090848103165627,1.8307745456695557,1016.4221,
2021.02.11 16:41:01,27.0,25.0,-33.18,-11.7,-32.1,-0.12689656,0.7685622,9.641745,0.038394105,0.03389569,0.0019657644,-0.07953689247369766,0.013160401955246925,1.836604118347168,1016.4219,
2021.02.11 16:41:01,27.0,25.0,-32.76,-11.639999,-31.98,-0.023942748,0.89067024,9.668081,0.0402267,0.03511742,0.0086852815,-0.09186523407697678,0.0024764686822891235,1.8287687301635742,1016.4219,
2021.02.11 16:41:02,27.0,25.0,-33.12,-11.82,-32.16,0.021548472,0.85954463,9.591465,0.02312247,0.023510981,-0.0053646187,-0.08937659859657288,-0.0022466261871159077,1.8337405920028687,1016.4199,
2021.02.11 16:41:02,27.0,25.0,-33.12,-11.639999,-32.64,0.04070267,0.6392714,10.149331,0.005407379,2.9810224E-4,-0.020025386,-0.06290295720100403,-0.004010357894003391,1.8527764081954956,1016.4199,
