Time,X-cord,Y-cord,Mag_x,Mag_y,Mag_z,Acc_x,Acc_y,Acc_z,Gyro_x,Gyro_y,Gyro_z,Orn_x,Orn_y,Orn_z,Pressure,
2021.02.11 16:43:38,11.0,25.0,-32.34,-20.4,-31.019999,-0.2083019,0.48124924,9.541185,0.08909592,0.13652106,-0.09699441,-0.05038445442914963,0.02182839997112751,2.089606285095215,1016.42993,
2021.02.11 16:43:38,11.0,25.0,-32.1,-20.4,-31.679998,-0.08858817,0.30167863,9.234718,0.06343958,0.04855646,-0.05179038,-0.032654762268066406,0.009592653252184391,2.1094770431518555,1016.44556,
2021.02.11 16:43:38,11.0,25.0,-32.76,-20.4,-31.56,-0.0047885496,0.46927786,9.598648,-0.045294438,-0.023525642,0.055721905,-0.04885109141469002,4.988774308003485E-4,2.0923848152160645,1016.44556,
2021.02.11 16:43:38,11.0,25.0,-32.94,-20.1,-31.5,0.22985038,0.5961744,9.785401,-0.02941194,-0.043684196,0.06855008,-0.0608329251408577,-0.023484792560338974,2.0830373764038086,1016.4441,
2021.02.11 16:43:38,11.0,25.0,-33.18,-20.22,-31.26,0.15083931,0.4668836,9.708784,-0.011696848,-0.03635381,0.030065564,-0.04804597049951553,-0.015535126440227032,2.089724063873291,1016.4441,
2021.02.11 16:43:38,11.0,25.0,-32.94,-20.4,-30.72,0.25139886,0.38787252,9.778218,-0.014140309,-0.021082181,0.030065564,-0.0396331250667572,-0.025704428553581238,2.107774496078491,1016.4365,
2021.02.11 16:43:38,11.0,25.0,-33.0,-20.58,-30.66,0.27294734,0.20111908,9.651321,-0.0178055,-0.023525642,-0.005975484,-0.0208271611481905,-0.028273288160562515,2.125868797302246,1016.43384,
2021.02.11 16:43:38,11.0,25.0,-32.7,-20.64,-30.599998,0.20351335,0.1699935,9.514848,-0.038574915,-0.010086607,1.3316862E-4,-0.01786014437675476,-0.021385766565799713,2.1306066513061523,1016.43384,
2021.02.11 16:43:38,11.0,25.0,-32.7,-20.64,-30.84,0.34716985,0.3040729,9.732727,-0.07522683,-0.06384274,-0.040183935,-0.03121231496334076,-0.03565524145960808,2.126986265182495,1016.4287,
2021.02.11 16:43:38,11.0,25.0,-33.0,-20.279999,-30.96,0.36392978,0.36392978,9.507666,-0.060566068,-0.04796025,-0.04873605,-0.03823086619377136,-0.038258835673332214,2.1102778911590576,1016.4297,
2021.02.11 16:43:38,11.0,25.0,-32.64,-20.52,-31.32,0.1699935,0.2561874,9.900327,-0.053235684,-0.055290636,-0.07622498,-0.025867078453302383,-0.017168808728456497,2.1210126876831055,1016.4297,
2021.02.11 16:43:38,11.0,25.0,-32.76,-20.34,-31.32,0.3328042,0.44533512,9.960183,-0.033687998,-0.037575543,-0.05240124,-0.044656891375780106,-0.03340103477239609,2.1078684329986572,1016.42773,
2021.02.11 16:43:38,11.0,25.0,-32.88,-20.4,-31.26,-0.29928434,0.038308397,10.618608,-0.045294438,-0.010086607,-0.09943786,-0.003606218844652176,0.028177430853247643,2.112128973007202,1016.42773,
2021.02.11 16:43:38,11.0,25.0,-33.3,-20.64,-31.5,-0.12689656,0.7805336,8.650515,0.07382429,0.10109086,0.014793935,-0.08997642993927002,0.014668197371065617,2.0553359985351562,1016.426,
2021.02.11 16:43:38,11.0,25.0,-33.6,-20.58,-31.26,0.3423813,0.36871833,9.153313,-0.02024896,-0.0021453588,0.0050200904,-0.04023262485861778,-0.037387747317552567,2.106929063796997,1016.426,
2021.02.11 16:43:39,11.0,25.0,-33.12,-20.58,-31.14,-0.19393626,-0.12929083,10.218765,-0.04224011,-0.008254011,-0.00780808,0.01264934241771698,0.01897616498172283,2.127230405807495,1016.4297,
2021.02.11 16:43:39,11.0,25.0,-33.0,-20.76,-31.14,0.3232271,1.036721,9.002473,0.01823555,0.0583303,0.12719314,-0.11458133906126022,-0.03588884323835373,2.059231996536255,1016.4265,
2021.02.11 16:43:39,11.0,25.0,-32.76,-20.4,-31.32,-0.11253092,0.55786604,10.161303,-0.020859826,0.034506556,0.0435046,-0.054842621088027954,0.01107400469481945,2.0843563079833984,1016.4265,
2021.02.11 16:43:39,11.0,25.0,-32.34,-20.52,-31.32,-0.047885496,0.1987248,9.687236,0.06588304,0.04672386,0.079545654,-0.0205109603703022,0.004943113308399916,2.119769334793091,1016.4319,
2021.02.11 16:43:39,11.0,25.0,-32.579998,-20.52,-31.38,0.035914123,0.16281068,9.574705,0.057330925,0.01862406,0.10825632,-0.017002493143081665,-0.0037509200628846884,2.122558355331421,1016.4319,
2021.02.11 16:43:39,11.0,25.0,-32.28,-19.92,-31.199999,0.18675344,0.49082634,9.488511,-0.02024896,0.0027415634,0.105812855,-0.05167243257164955,-0.019679518416523933,2.0936999320983887,1016.42505,
2021.02.11 16:43:39,11.0,25.0,-32.219997,-19.98,-31.08,0.052674048,0.6703969,9.816526,-0.034298863,-0.018638719,0.075269595,-0.06818582862615585,-0.005365802440792322,2.077826976776123,1016.4363,
2021.02.11 16:43:39,11.0,25.0,-32.399998,-19.56,-31.08,0.047885496,0.37590113,9.890749,0.013348627,-0.040019006,0.0435046,-0.037986595183610916,-0.004841404967010021,2.0883402824401855,1016.4363,
2021.02.11 16:43:39,11.0,25.0,-32.52,-19.199999,-31.199999,0.14126222,0.45251793,9.469357,0.015792089,-0.007032281,0.050834984,-0.047745976597070694,-0.014916719868779182,2.0745487213134766,1016.43945,
2021.02.11 16:43:39,11.0,25.0,-32.88,-19.68,-31.38,0.13886794,0.4740664,9.608225,-0.02696848,-0.03818641,0.02701124,-0.049294523894786835,-0.014452021569013596,2.079632043838501,1016.43945,
2021.02.11 16:43:39,11.0,25.0,-33.18,-19.56,-31.199999,0.043096945,0.4070267,9.79019,0.004796514,-0.011919203,0.030065564,-0.04155062139034271,-0.004402025602757931,2.0752129554748535,1016.4414,
2021.02.11 16:43:39,11.0,25.0,-33.18,-19.5,-31.439999,0.06943397,0.39266106,9.433443,-0.0037555995,-0.008254011,0.01418307,-0.04159922152757645,-0.007360273040831089,2.0746705532073975,1016.43677,
2021.02.11 16:43:39,11.0,25.0,-33.18,-19.5,-31.32,0.04070267,0.29210153,9.871595,-0.048348762,-0.020471316,0.039228547,-0.029581218957901,-0.0041231876239180565,2.0824990272521973,1016.43677,
2021.02.11 16:43:39,11.0,25.0,-33.36,-19.38,-31.32,0.41181526,0.7302538,9.821315,-0.02024896,-0.025969103,0.047169793,-0.07415247708559036,-0.041906218975782394,2.056570053100586,1016.43164,
2021.02.11 16:43:39,11.0,25.0,-33.059998,-19.56,-31.679998,-0.0670397,0.31365,9.620196,0.026176797,0.025954442,-0.038962208,-0.03259095177054405,0.006968528497964144,2.0787205696105957,1016.4348,
2021.02.11 16:43:39,11.0,25.0,-33.0,-19.56,-31.14,0.12929083,0.22745611,9.656111,-0.019638095,0.014348002,-0.013916732,-0.02354920096695423,-0.013388735242187977,2.094414472579956,1016.4348,
2021.02.11 16:43:39,11.0,25.0,-33.36,-19.74,-31.14,0.23463893,0.38547826,9.632168,0.009683436,0.028397903,0.0013548991,-0.039986688643693924,-0.02435511350631714,2.085848093032837,1016.4358,
2021.02.11 16:43:40,11.0,25.0,-33.059998,-19.8,-31.019999,0.098165266,0.46209505,9.344854,-0.015362039,0.022289252,-0.016360193,-0.049406178295612335,-0.010504353791475296,2.0788791179656982,1016.4358,
2021.02.11 16:43:40,11.0,25.0,-33.18,-19.8,-30.9,0.10055954,0.32562137,9.61062,-0.0055881953,-3.12763E-4,-0.013916732,-0.033866602927446365,-0.010462996549904346,2.088942527770996,1016.43555,
2021.02.11 16:43:40,11.0,25.0,-33.719997,-19.619999,-31.619999,0.15323359,0.5123748,9.641745,-0.016583769,0.0015198328,-0.026744902,-0.053084664046764374,-0.015891386196017265,2.0647919178009033,1016.43555,
2021.02.11 16:43:40,11.0,25.0,-33.36,-19.32,-31.92,0.06464542,0.409421,9.794978,0.008461705,0.029619634,-0.040794805,-0.04177384451031685,-0.006599757354706526,2.0673460960388184,1016.4358,
2021.02.11 16:43:40,11.0,25.0,-33.3,-18.84,-31.8,-0.098165266,0.26097596,10.199611,0.0011313224,-0.03268862,-0.016360193,-0.025580089539289474,0.009624116122722626,2.063213348388672,1016.44385,
2021.02.11 16:43:40,11.0,25.0,-33.48,-18.72,-31.619999,0.1699935,0.42378664,9.881172,0.09703717,0.0583303,0.012961339,-0.04285569489002228,-0.01720208302140236,2.0550715923309326,1016.44385,
2021.02.11 16:43:40,11.0,25.0,-33.3,-19.199999,-31.5,0.22745611,0.48843205,9.0838785,0.06282871,0.058941167,-0.025523173,-0.053700581192970276,-0.025034306570887566,2.0632286071777344,1016.44727,
2021.02.11 16:43:40,11.0,25.0,-33.719997,-19.8,-31.56,-0.04070267,0.37111259,9.857229,-0.03552059,-0.03452122,-0.022468846,-0.037630677223205566,0.004129196982830763,2.0733304023742676,1016.44727,
2021.02.11 16:43:40,11.0,25.0,-33.899998,-20.34,-31.679998,-0.090982445,0.2681588,9.77343,-0.0025338691,-0.03391035,0.0105178775,-0.02742946520447731,0.009308894164860249,2.088465929031372,1016.4487,
2021.02.11 16:43:40,11.0,25.0,-33.54,-20.4,-31.92,0.17478207,0.36632404,9.244295,-0.0043664644,0.015569733,0.025789509,-0.03959924355149269,-0.01890476606786251,2.096282482147217,1016.4402,
2021.02.11 16:43:40,11.0,25.0,-33.6,-20.4,-31.74,0.18196489,0.28970724,9.814133,-0.041629247,-0.027801698,0.015404799,-0.02950575388967991,-0.018538981676101685,2.1030004024505615,1016.4402,
2021.02.11 16:43:40,11.0,25.0,-33.42,-19.74,-31.8,0.2083019,0.5506832,10.1206,0.030452855,-0.044295058,0.020902587,-0.054347023367881775,-0.02057906612753868,2.0719804763793945,1016.4392,
2021.02.11 16:43:40,11.0,25.0,-33.239998,-19.56,-32.1,0.19633053,0.45970076,9.6896305,0.051833138,-0.027801698,-0.016971057,-0.04739728942513466,-0.020259149372577667,2.075169086456299,1016.4392,
2021.02.11 16:43:40,11.0,25.0,-33.6,-19.619999,-31.619999,0.047885496,0.3902668,9.828498,0.046946216,-0.011919203,-0.040183935,-0.039686355739831924,-0.0048720682971179485,2.072455644607544,1016.4458,
2021.02.11 16:43:40,11.0,25.0,-33.54,-19.5,-31.439999,0.17238778,0.5889916,9.512454,0.050611407,0.004574159,-0.03346442,-0.06182887405157089,-0.01812034100294113,2.058427095413208,1016.43604,
2021.02.11 16:43:40,11.0,25.0,-33.48,-20.22,-31.26,-0.014365649,0.5219519,9.534002,0.021289876,0.011293677,-0.05240124,-0.05469169840216637,0.0015067793428897858,2.0746426582336426,1016.43604,
2021.02.11 16:43:40,11.0,25.0,-33.54,-20.22,-31.019999,-0.16759923,0.11492519,9.464568,0.008461705,0.014958868,-0.03712961,-0.012140177190303802,0.017706219106912613,2.0981457233428955,1016.43506,
2021.02.11 16:43:41,11.0,25.0,-33.6,-19.98,-31.439999,0.2083019,0.26337022,9.536397,-0.0318554,-0.0015344934,0.06793921,-0.027603771537542343,-0.021839357912540436,2.096367597579956,1016.43506,
2021.02.11 16:43:41,11.0,25.0,-33.6,-20.46,-31.74,0.42139238,0.9217958,9.536397,-0.07095078,0.017402329,0.06060883,-0.09626807272434235,-0.044159069657325745,2.061227560043335,1016.43774,
2021.02.11 16:43:41,11.0,25.0,-33.719997,-20.279999,-31.56,-0.090982445,0.4956149,10.149331,-0.05018136,-0.024747374,-0.032853555,-0.0487915575504303,0.008964138105511665,2.074329376220703,1016.4363,
2021.02.11 16:43:41,11.0,25.0,-33.78,-20.4,-31.56,0.19154198,0.3519584,9.44302,0.017013818,-9.236283E-4,0.01662653,-0.037246908992528915,-0.020281195640563965,2.0956614017486572,1016.4363,
2021.02.11 16:43:41,11.0,25.0,-33.54,-20.58,-31.38,0.339987,0.37350687,9.534002,-0.03552059,-0.013751798,0.035563353,-0.03913142532110214,-0.035645365715026855,2.107814073562622,1016.4353,
2021.02.11 16:43:41,11.0,25.0,-33.239998,-20.16,-31.26,0.1987248,0.51955765,9.821315,-0.041629247,-0.022914778,0.012961339,-0.05284096673130989,-0.020231271162629128,2.085691452026367,1016.4353,
2021.02.11 16:43:41,11.0,25.0,-33.059998,-19.74,-31.38,0.15083931,0.46927786,9.816526,0.028620258,-0.010086607,-0.02185798,-0.047762878239154816,-0.015364645048975945,2.0802032947540283,1016.4387,
2021.02.11 16:43:41,11.0,25.0,-33.12,-19.74,-31.199999,-0.035914123,0.2681588,9.684841,0.018846415,-0.0015344934,0.0019657644,-0.027681244537234306,0.003708265023306012,2.0872299671173096,1016.4392,
2021.02.11 16:43:41,11.0,25.0,-33.0,-19.56,-31.32,0.20590763,0.42139238,9.63935,0.028620258,-0.0058105504,0.040450275,-0.04367808625102043,-0.021357903257012367,2.082275867462158,1016.4392,
2021.02.11 16:43:41,11.0,25.0,-33.42,-19.26,-31.26,0.19154198,0.46209505,9.529214,0.027398527,-0.0015344934,0.006241821,-0.04844474047422409,-0.020097794011235237,2.06563401222229,1016.4297,
2021.02.11 16:43:41,11.0,25.0,-33.3,-19.56,-31.26,0.14844504,0.4189981,9.77343,0.024955066,-0.018638719,-0.0010885618,-0.04283997043967247,-0.015187465585768223,2.0766754150390625,1016.4297,
2021.02.11 16:43:41,11.0,25.0,-33.239998,-19.68,-31.56,0.12210801,0.44533512,9.732727,0.024344202,0.003963294,-0.006586349,-0.04572097212076187,-0.012545467354357243,2.0767955780029297,1016.42676,
2021.02.11 16:43:41,11.0,25.0,-33.3,-19.92,-31.32,0.13886794,0.44772938,9.634562,0.031063719,-0.009475742,0.008074417,-0.046432945877313614,-0.01441252138465643,2.0819647312164307,1016.437,
2021.02.11 16:43:41,11.0,25.0,-33.12,-20.4,-31.5,0.17238778,0.5027977,9.562734,0.009683436,-0.0033670892,-0.004753753,-0.052521977573633194,-0.01802508719265461,2.0919992923736572,1016.437,
2021.02.11 16:43:41,11.0,25.0,-33.18,-20.52,-31.439999,0.15323359,0.4740664,9.598648,-0.0068099257,0.009461081,-0.012695001,-0.04934249445796013,-0.015962723642587662,2.0956361293792725,1016.4397,
2021.02.11 16:43:41,11.0,25.0,-33.059998,-20.58,-31.199999,0.19633053,0.6249057,9.680053,0.014570358,0.007628485,-0.015138462,-0.06445334851741791,-0.020279189571738243,2.088987112045288,1016.4397,
2021.02.11 16:43:42,11.0,25.0,-33.239998,-20.82,-31.38,0.10055954,0.48843205,9.699207,0.017624684,-0.0045888196,-0.028577497,-0.05031273141503334,-0.010367438197135925,2.0988497734069824,1016.4468,
2021.02.11 16:43:42,11.0,25.0,-33.18,-20.46,-31.32,0.047885496,0.45251793,9.557945,0.004796514,0.0015198328,-0.023690576,-0.04730876907706261,-0.005009977612644434,2.091721534729004,1016.4492,
2021.02.11 16:43:42,11.0,25.0,-33.18,-20.22,-31.32,0.08619389,0.54350036,9.510059,5.204572E-4,0.009461081,-0.00902981,-0.057085614651441574,-0.009063196368515491,2.0804035663604736,1016.4492,
2021.02.11 16:43:42,11.0,25.0,-33.12,-20.34,-31.199999,0.105348095,0.51716334,9.727939,0.0041856486,0.010071946,-0.0016994271,-0.05310957506299019,-0.010829013772308826,2.0877456665039062,1016.449,
2021.02.11 16:43:42,11.0,25.0,-33.059998,-19.98,-31.38,0.14844504,0.5770202,9.680053,0.0017421878,0.0033524283,-0.003532023,-0.059531766921281815,-0.015333945862948895,2.0767321586608887,1016.449,
2021.02.11 16:43:42,11.0,25.0,-33.239998,-20.279999,-30.84,0.10055954,0.49082634,9.672871,-0.0068099257,-3.12763E-4,-0.008418945,-0.05069635435938835,-0.010395664721727371,2.0868144035339355,1016.4436,
2021.02.11 16:43:42,11.0,25.0,-34.02,-20.58,-30.42,0.08619389,0.49800915,9.601042,5.204572E-4,9.089675E-4,-0.0016994271,-0.05182179808616638,-0.008977314457297325,2.0827138423919678,1016.4424,
2021.02.11 16:43:42,11.0,25.0,-34.32,-20.4,-30.539999,0.22506183,0.61293435,9.627379,0.0017421878,-9.236283E-4,-0.00780808,-0.06356261670589447,-0.023373011499643326,2.071126937866211,1016.4424,
2021.02.11 16:43:42,11.0,25.0,-34.26,-20.52,-30.48,-0.031125572,0.4644893,9.8237095,-0.013529444,-0.0045888196,-0.024301441,-0.04724705219268799,0.003168402472510934,2.0773563385009766,1016.4414,
2021.02.11 16:43:42,11.0,25.0,-34.5,-20.46,-30.779999,0.12450229,0.51955765,9.711179,0.009683436,-0.0045888196,0.018459126,-0.053445640951395035,-0.012819809839129448,2.0737881660461426,1016.4414,
2021.02.11 16:43:42,11.0,25.0,-33.84,-20.16,-31.26,0.17238778,0.5961744,9.538791,0.013348627,-0.0045888196,0.01418307,-0.06240864843130112,-0.018070321530103683,2.06982421875,1016.44995,
2021.02.11 16:43:42,11.0,25.0,-33.6,-19.92,-31.019999,-0.023942748,0.45012367,9.909904,-0.0025338691,-0.005199685,-0.003532023,-0.04539027065038681,0.0024160377215594053,2.0730576515197754,1016.4431,
2021.02.11 16:43:42,11.0,25.0,-33.54,-20.16,-31.14,0.105348095,0.5219519,9.632168,0.014570358,0.0057958895,0.016015666,-0.054132238030433655,-0.01093667559325695,2.077500104904175,1016.4431,
2021.02.11 16:43:42,11.0,25.0,-33.0,-20.1,-31.5,0.12689656,0.54350036,9.641745,0.006018244,2.9810224E-4,0.01662653,-0.05630504712462425,-0.013160401955246925,2.081866979598999,1016.4407,
2021.02.11 16:43:42,11.0,25.0,-33.059998,-19.92,-31.32,0.12689656,0.531529,9.641745,-0.0068099257,0.008850216,0.011739608,-0.055067386478185654,-0.013160401955246925,2.0780370235443115,1016.4407,
2021.02.11 16:43:42,11.0,25.0,-33.42,-20.1,-31.56,0.13647367,0.5243462,9.670476,0.005407379,-9.236283E-4,0.0056309556,-0.05416291952133179,-0.014111467637121677,2.0783400535583496,1016.4346,
2021.02.11 16:43:42,11.0,25.0,-33.719997,-19.98,-31.199999,0.1340794,0.51955765,9.6585045,0.004796514,-9.236283E-4,0.0031874948,-0.053735800087451935,-0.013881112448871136,2.0723564624786377,1016.4346,
2021.02.11 16:43:43,11.0,25.0,-34.079998,-20.22,-30.96,0.12929083,0.5411061,9.75667,-0.0043664644,-0.0021453588,-0.013916732,-0.05539850890636444,-0.01325075700879097,2.072113513946533,1016.4346,
2021.02.11 16:43:43,11.0,25.0,-33.6,-20.64,-31.199999,0.11971374,0.4764607,9.70639,-0.0025338691,0.004574159,-0.017581923,-0.04904422536492348,-0.012332871556282043,2.091909170150757,1016.4319,
2021.02.11 16:43:43,11.0,25.0,-33.3,-20.4,-31.019999,0.052674048,0.50998056,9.656111,-0.0074207913,0.0027415634,-0.0071972143,-0.05276447534561157,-0.0054549421183764935,2.0852532386779785,1016.4319,
2021.02.11 16:43:43,11.0,25.0,-32.94,-20.34,-31.019999,0.13168511,0.5411061,9.534002,-0.0019230038,0.003963294,-0.0010885618,-0.05668918043375015,-0.013811275362968445,2.088733673095703,1016.4309,
2021.02.11 16:43:43,11.0,25.0,-32.579998,-20.1,-30.9,0.12689656,0.5794145,9.531608,0.017013818,0.014958868,-0.0023102923,-0.0607086643576622,-0.013312451541423798,2.0848097801208496,1016.43555,
2021.02.11 16:43:43,11.0,25.0,-32.94,-20.039999,-30.9,0.052674048,0.56744313,9.483723,-0.0043664644,0.0027415634,-0.009640676,-0.059761203825473785,-0.005554096307605505,2.0765745639801025,1016.43555,
2021.02.11 16:43:43,11.0,25.0,-32.88,-20.1,-30.96,0.09577099,0.51955765,9.847652,-0.0074207913,-0.010697473,-0.008418945,-0.052708182483911514,-0.009724955074489117,2.0855019092559814,1016.43335,
2021.02.11 16:43:43,11.0,25.0,-32.7,-19.859999,-30.96,0.07422252,0.56265455,9.538791,0.0041856486,0.0015198328,-0.00902981,-0.058915894478559494,-0.0077809677459299564,2.076843023300171,1016.43335,
2021.02.11 16:43:43,11.0,25.0,-32.76,-19.98,-30.84,-0.09337672,0.4644893,9.644139,-0.0055881953,-3.12763E-4,-0.017581923,-0.04812341183423996,0.00968192145228386,2.0807478427886963,1016.43726,
2021.02.11 16:43:43,11.0,25.0,-32.399998,-20.039999,-30.96,0.047885496,0.4860378,9.766247,0.0023530528,-0.007032281,0.031287298,-0.049725476652383804,-0.004903123248368502,2.0909042358398438,1016.4292,
2021.02.11 16:43:43,11.0,25.0,-32.46,-20.16,-31.08,0.17717634,0.5865973,9.553157,-0.0025338691,-0.0058105504,0.019069992,-0.06131599470973015,-0.018544239923357964,2.0891144275665283,1016.4292,
2021.02.11 16:43:43,11.0,25.0,-32.52,-20.279999,-31.08,0.031125572,0.47167215,9.656111,-0.0074207913,9.089675E-4,0.0074635516,-0.048807963728904724,-0.0032233954407274723,2.0947859287261963,1016.4387,
2021.02.11 16:43:43,11.0,25.0,-32.64,-20.46,-31.38,0.15323359,0.53392327,9.682447,-0.018416364,-9.236283E-4,0.009296147,-0.05508074164390564,-0.015824593603610992,2.0971333980560303,1016.4387,
2021.02.11 16:43:43,11.0,25.0,-33.0,-20.82,-30.96,0.12450229,0.56265455,9.718362,0.007239975,-0.0039779544,0.0050200904,-0.057826731353998184,-0.012810335494577885,2.0978293418884277,1016.43555,
2021.02.11 16:43:43,11.0,25.0,-32.88,-20.699999,-30.96,0.12450229,0.45970076,9.620196,0.0023530528,0.0027415634,-0.013305867,-0.04774465784430504,-0.012941038236021996,2.1042282581329346,1016.4282,
2021.02.11 16:43:43,11.0,25.0,-33.3,-20.76,-31.14,0.009577099,0.44294083,9.780613,-0.009253386,-9.236283E-4,-0.016360193,-0.04525668919086456,-9.791918564587831E-4,2.0971028804779053,1016.4282,
2021.02.11 16:43:43,11.0,25.0,-33.66,-20.76,-31.019999,0.14844504,0.5865973,9.505271,0.00785084,0.0064067547,-0.0010885618,-0.06162717938423157,-0.015615860000252724,2.085906982421875,1016.4331,
2021.02.11 16:43:44,11.0,25.0,-33.719997,-20.279999,-31.26,0.0670397,0.4668836,9.677659,-7.012733E-4,0.0064067547,-0.008418945,-0.04820491373538971,-0.006927153095602989,2.0807719230651855,1016.4331,
2021.02.11 16:43:44,11.0,25.0,-33.96,-20.4,-30.9,0.08140534,0.5363176,9.63935,0.006018244,-9.236283E-4,-0.008418945,-0.05557907000184059,-0.008444905281066895,2.075967311859131,1016.4275,
2021.02.11 16:43:44,11.0,25.0,-33.66,-20.46,-30.48,-0.031125572,0.42378664,9.730332,-0.0031447343,-0.0045888196,-0.015138462,-0.04352542757987976,0.0031988080590963364,2.0861194133758545,1016.42676,
2021.02.11 16:43:44,11.0,25.0,-33.42,-20.52,-30.3,0.090982445,0.5027977,9.703996,-7.012733E-4,-0.0015344934,0.008074417,-0.05176491290330887,-0.0093754967674613,2.089364767074585,1016.42676,
2021.02.11 16:43:44,11.0,25.0,-33.48,-20.64,-30.179998,0.10774237,0.53871185,9.677659,0.012737762,-0.0021453588,0.00379836,-0.055604685097932816,-0.01113264262676239,2.089304208755493,1016.4282,
2021.02.11 16:43:44,11.0,25.0,-33.3,-21.0,-30.539999,0.0670397,0.47167215,9.684841,0.006018244,-0.0015344934,0.00379836,-0.04866248741745949,-0.00692201592028141,2.1028568744659424,1016.4282,
2021.02.11 16:43:44,11.0,25.0,-33.66,-21.06,-31.14,0.090982445,0.5889916,9.677659,0.004796514,0.0051850243,0.0025766296,-0.06078329682350159,-0.009401009418070316,2.090940237045288,1016.4282,
2021.02.11 16:43:44,11.0,25.0,-33.48,-20.939999,-30.96,0.026337024,0.4189981,9.749487,0.0029639183,0.009461081,-0.00902981,-0.04294983670115471,-0.0027013688813894987,2.101243495941162,1016.4321,
2021.02.11 16:43:44,11.0,25.0,-33.18,-20.939999,-31.08,0.0670397,0.52913475,9.450203,0.02067901,0.015569733,0.013572204,-0.05593208223581314,-0.007093876600265503,2.097302198410034,1016.4321,
2021.02.11 16:43:44,11.0,25.0,-33.18,-20.939999,-30.9,0.026337024,0.42139238,9.330489,-0.012918578,0.039393477,1.3316862E-4,-0.045132096856832504,-0.0028226766735315323,2.103733777999878,1016.4358,
2021.02.11 16:43:44,11.0,25.0,-32.88,-20.46,-30.779999,-0.13886794,0.44772938,10.0439825,-0.025746748,0.040004347,0.01662653,-0.04454313591122627,0.013825103640556335,2.091289758682251,1016.4358,
2021.02.11 16:43:44,11.0,25.0,-33.0,-20.279999,-31.38,0.105348095,0.531529,9.799767,0.020068146,0.029008768,0.038006812,-0.05418272688984871,-0.01074964739382267,2.086899757385254,1016.43823,
2021.02.11 16:43:44,11.0,25.0,-32.64,-20.4,-31.32,0.04070267,0.5411061,9.536397,0.021900741,0.0051850243,0.009907013,-0.0566798560321331,-0.004268113058060408,2.090179681777954,1016.43555,
2021.02.11 16:43:44,11.0,25.0,-32.46,-20.34,-31.14,-0.11013664,0.4836435,9.715967,0.009683436,-0.0021453588,-0.003532023,-0.049733974039554596,0.01133514754474163,2.090771198272705,1016.43555,
2021.02.11 16:43:44,11.0,25.0,-32.16,-20.64,-31.08,-0.5123748,0.4956149,7.881953,-0.00497733,-0.035742946,0.012350474,-0.06266511976718903,0.06491474062204361,2.074275493621826,1016.4319,
