Time,X-cord,Y-cord,Mag_x,Mag_y,Mag_z,Acc_x,Acc_y,Acc_z,Gyro_x,Gyro_y,Gyro_z,Orn_x,Orn_y,Orn_z,Pressure,
2021.02.11 16:40:45,28.0,25.0,-33.719997,-11.94,-34.44,-0.2466103,0.6751855,9.143736,0.1648432,0.17195123,-0.029799229,-0.07368084043264389,0.026963872835040092,1.8368849754333496,1016.4158,
2021.02.11 16:40:45,28.0,25.0,-33.18,-11.88,-34.44,-0.019154198,0.63208854,9.715967,-0.05506828,-0.012530067,-0.0010885618,-0.06496500223875046,0.0019714117515832186,1.852540373802185,1016.4158,
2021.02.11 16:40:45,28.0,25.0,-33.059998,-12.059999,-34.44,0.043096945,0.6847626,9.608225,-0.041629247,-0.01986045,0.008074417,-0.0711473673582077,-0.004485392011702061,1.8538446426391602,1016.4226,
2021.02.11 16:40:45,28.0,25.0,-32.88,-11.58,-34.559998,-0.14126222,0.600963,9.42626,-0.030633671,-0.021082181,-0.038351342,-0.06366083025932312,0.014984908513724804,1.8448914289474487,1016.4226,
2021.02.11 16:40:45,28.0,25.0,-32.399998,-10.98,-34.26,-0.14126222,0.5889916,9.883567,-0.04224011,-0.030245159,-0.050568644,-0.05951656028628349,0.014291662722826004,1.836524248123169,1016.4133,
2021.02.11 16:40:45,28.0,25.0,-32.28,-10.62,-33.84,-0.25379312,0.57462597,9.732727,-0.026357615,-0.042462464,-0.042627398,-0.05895214155316353,0.026070352643728256,1.8262580633163452,1016.41455,
2021.02.11 16:40:46,28.0,25.0,-32.34,-10.8,-33.96,-0.22506183,0.51955765,9.653716,0.015792089,-0.042462464,0.0044092257,-0.053752996027469635,0.023309269919991493,1.8361306190490723,1016.41455,
2021.02.11 16:40:46,28.0,25.0,-32.04,-11.5199995,-34.02,-0.16520496,0.36392978,9.794978,-0.0031447343,-0.03391035,0.009296147,-0.03713236749172211,0.01686469279229641,1.8758862018585205,1016.41895,
2021.02.11 16:40:46,28.0,25.0,-32.399998,-11.759999,-34.2,0.045491222,0.49800915,9.486116,0.0035747832,-0.015584394,0.023956914,-0.05244998633861542,-0.004795521032065153,1.869977593421936,1016.41895,
2021.02.11 16:40:46,28.0,25.0,-32.52,-12.12,-34.26,0.16041641,0.34716985,9.897932,-0.015972905,-0.058344964,-0.0016994271,-0.035056013613939285,-0.016205644235014915,1.899288535118103,1016.4182,
2021.02.11 16:40:46,28.0,25.0,-32.76,-12.0,-34.2,0.11971374,0.6081458,9.751882,0.013959493,-0.04307333,-0.03224269,-0.062276557087898254,-0.01227534655481577,1.8657127618789673,1016.41797,
2021.02.11 16:40:46,28.0,25.0,-33.18,-11.7,-33.899998,-0.15802214,0.5363176,9.253872,0.011516031,-0.011919203,-0.059120763,-0.05788284167647362,0.017074666917324066,1.8520609140396118,1016.41797,
2021.02.11 16:40:46,28.0,25.0,-32.82,-11.82,-33.84,0.019154198,0.5219519,10.252285,-0.05262482,-0.040629867,-0.048125185,-0.050866782665252686,-0.0018682836089283228,1.8693515062332153,1016.42017,
2021.02.11 16:40:46,28.0,25.0,-33.059998,-11.88,-33.66,0.05985687,0.81165916,9.14613,0.023733336,2.9810224E-4,-0.044459995,-0.0885097086429596,-0.006544408854097128,1.8337290287017822,1016.42017,
2021.02.11 16:40:46,28.0,25.0,-32.88,-12.0,-33.6,-0.14365649,0.72785956,10.032011,-0.042850975,0.036339153,-0.10310306,-0.07241939753293991,0.014318831264972687,1.8502296209335327,1016.4158,
2021.02.11 16:40:46,28.0,25.0,-32.88,-11.88,-33.6,-0.37111259,0.90982443,9.2419,0.021289876,0.04855646,-0.089053154,-0.09805089235305786,0.04013387858867645,1.818939447402954,1016.40967,
2021.02.11 16:40:46,28.0,25.0,-33.18,-11.94,-33.48,-0.66321415,0.34477556,9.486116,-0.0031447343,0.0051850243,-0.03957307,-0.03624090179800987,0.06980060786008835,1.8667936325073242,1016.40967,
2021.02.11 16:40:46,28.0,25.0,-33.12,-11.88,-33.6,-0.29210153,0.10055954,9.462174,-0.021470692,0.00701762,0.019069992,-0.010622069239616394,0.030860645696520805,1.8965781927108765,1016.4133,
2021.02.11 16:40:46,28.0,25.0,-33.48,-11.639999,-33.6,0.14126222,1.2091088,9.25866,-0.08194635,0.047334723,0.10092594,-0.1298423707485199,-0.015256122685968876,1.7836966514587402,1016.4133,
2021.02.11 16:40:46,28.0,25.0,-33.42,-11.639999,-33.6,-0.25139886,1.0774237,10.513261,-0.099050574,-0.012530067,0.040450275,-0.10209683328866959,0.023907992988824844,1.8070600032806396,1016.41626,
2021.02.11 16:40:46,28.0,25.0,-33.42,-11.58,-33.6,-0.36632404,0.38308397,9.70639,0.050611407,0.003963294,0.0025766296,-0.03941868245601654,0.037722598761320114,1.8595638275146484,1016.4197,
2021.02.11 16:40:46,28.0,25.0,-33.6,-11.46,-33.54,0.17717634,0.6081458,9.225141,0.05000054,0.003963294,0.058776233,-0.06581530719995499,-0.01920345425605774,1.8427177667617798,1016.4197,
2021.02.11 16:40:47,28.0,25.0,-33.42,-11.4,-33.84,0.06464542,0.7733508,9.742304,-0.017194636,-0.030856026,0.0068526864,-0.07921285182237625,-0.006635439582169056,1.826246976852417,1016.41943,
2021.02.11 16:40:47,28.0,25.0,-33.42,-11.4,-33.96,-0.32562137,0.65842557,9.727939,0.0017421878,-0.02230391,-0.029188365,-0.06754318624734879,0.033460311591625214,1.8300129175186157,1016.41943,
2021.02.11 16:40:47,28.0,25.0,-33.42,-11.28,-34.02,-0.3040729,0.39505535,9.636956,0.031063719,-0.025969103,-0.015749328,-0.04095049202442169,0.031542327255010605,1.851006269454956,1016.4177,
2021.02.11 16:40:47,28.0,25.0,-33.239998,-11.219999,-34.079998,-0.083799616,0.6440599,9.419077,0.018846415,-0.01986045,0.021513453,-0.0682692751288414,0.008896563202142715,1.829862117767334,1016.4214,
2021.02.11 16:40:47,28.0,25.0,-32.94,-11.219999,-33.719997,0.04070267,0.68236834,9.869201,-0.0031447343,-0.044295058,0.041061137,-0.0690307542681694,-0.004124188330024481,1.8345615863800049,1016.4214,
2021.02.11 16:40:47,28.0,25.0,-33.239998,-11.34,-33.42,-0.05985687,0.6560313,9.395134,0.01823555,0.0064067547,0.020902587,-0.06971214711666107,0.006370964460074902,1.833595633506775,1016.4131,
2021.02.11 16:40:47,28.0,25.0,-33.18,-11.219999,-33.42,-0.12929083,0.5794145,9.699207,-0.019638095,-0.006421415,-0.008418945,-0.059662140905857086,0.013329251669347286,1.838821530342102,1016.4131,
2021.02.11 16:40:47,28.0,25.0,-33.059998,-11.04,-33.6,-0.09577099,0.67757976,9.6896305,-0.0178055,-0.025969103,0.0068526864,-0.06981129944324493,0.00988354254513979,1.8254656791687012,1016.41187,
2021.02.11 16:40:47,28.0,25.0,-33.18,-11.099999,-33.719997,-0.12929083,0.5913859,9.581888,0.017624684,-0.01619526,0.025178645,-0.06163535639643669,0.013492433354258537,1.8330951929092407,1016.4121,
2021.02.11 16:40:47,28.0,25.0,-32.88,-10.92,-33.84,0.014365649,0.63208854,9.694419,0.005407379,-0.0045888196,0.019680856,-0.06510904431343079,-0.0014818462077528238,1.8296160697937012,1016.4121,
2021.02.11 16:40:47,28.0,25.0,-32.76,-10.92,-33.66,-0.11253092,0.62251145,9.835681,-0.0068099257,-0.010086607,0.011739608,-0.06320270150899887,0.011440591886639595,1.8302125930786133,1016.407,
2021.02.11 16:40:47,28.0,25.0,-33.12,-11.04,-33.66,0.043096945,0.75659084,9.287392,0.013959493,-0.033299487,0.022124317,-0.08128393441438675,-0.004640338011085987,1.8162670135498047,1016.407,
2021.02.11 16:40:47,28.0,25.0,-33.12,-11.219999,-33.719997,-0.1340794,0.600963,9.711179,-0.0068099257,-0.01986045,-0.0071972143,-0.06179893761873245,0.013805828988552094,1.8366508483886719,1016.4099,
2021.02.11 16:40:47,28.0,25.0,-33.059998,-11.099999,-33.48,0.028731298,0.7398309,9.670476,-0.022692423,-0.018638719,0.013572204,-0.07635501772165298,-0.0029710237868130207,1.8233616352081299,1016.41724,
2021.02.11 16:40:47,28.0,25.0,-33.36,-11.46,-33.6,0.05985687,0.7039168,9.593859,0.023733336,-0.01741699,0.008074417,-0.07323894649744034,-0.006239001173526049,1.834649920463562,1016.41724,
2021.02.11 16:40:47,28.0,25.0,-33.48,-11.82,-33.12,-0.0023942748,0.6273,9.629773,0.015181223,-0.02230391,-0.016360193,-0.06504981219768524,2.4863253929652274E-4,1.851152777671814,1016.42285,
2021.02.11 16:40:47,28.0,25.0,-33.6,-11.759999,-33.239998,0.0023942748,0.7637737,9.483723,0.017013818,-0.018638719,-0.017581923,-0.08036177605390549,-2.5246149743907154E-4,1.8340442180633545,1016.42285,
2021.02.11 16:40:48,28.0,25.0,-34.079998,-12.179999,-33.3,-0.0071828244,0.66321415,9.768641,0.0017421878,-0.021082181,-0.021247115,-0.06778811663389206,7.352940156124532E-4,1.8532649278640747,1016.4253,
2021.02.11 16:40:48,28.0,25.0,-33.719997,-12.24,-33.239998,0.09577099,0.7039168,9.517242,0.028620258,-0.03635381,-0.026134036,-0.07382410764694214,-0.010062552988529205,1.8544007539749146,1016.4253,
2021.02.11 16:40:48,28.0,25.0,-33.66,-12.059999,-33.239998,0.0047885496,0.7206767,9.768641,-0.0031447343,-0.010697473,-0.026744902,-0.0736410915851593,-4.901959910057485E-4,1.8482162952423096,1016.4253,
2021.02.11 16:40:48,28.0,25.0,-33.78,-11.82,-32.64,0.0047885496,0.75659084,9.213169,0.015181223,-0.0045888196,-0.019414518,-0.08193670958280563,-5.197505233809352E-4,1.8342725038528442,1016.42236,
2021.02.11 16:40:48,28.0,25.0,-33.66,-11.7,-32.64,-0.08858817,0.6440599,9.586677,-0.0178055,-0.021693047,-0.014527597,-0.06707915663719177,0.009240495972335339,1.8437492847442627,1016.42236,
2021.02.11 16:40:48,28.0,25.0,-33.78,-11.58,-32.82,0.014365649,0.81644773,9.675264,-0.011085982,-0.03513208,0.008074417,-0.08418552577495575,-0.0014847798738628626,1.8253018856048584,1016.42114,
2021.02.11 16:40:48,28.0,25.0,-33.6,-11.82,-33.18,0.16520496,0.7326481,9.696813,0.015792089,-0.023525642,7.440339E-4,-0.07540137320756912,-0.017035389319062233,1.8436881303787231,1016.4292,
2021.02.11 16:40:48,28.0,25.0,-33.66,-12.059999,-33.54,0.15802214,0.75180227,9.61062,0.019457279,-0.008864877,-0.005975484,-0.0780567079782486,-0.016440968960523605,1.8464916944503784,1016.4292,
2021.02.11 16:40:48,28.0,25.0,-33.78,-12.12,-33.6,-0.026337024,0.70631105,9.759064,0.0017421878,-0.008864877,-0.019414518,-0.07224864512681961,0.0026987178716808558,1.848883867263794,1016.4287,
2021.02.11 16:40:48,28.0,25.0,-33.78,-12.12,-33.719997,0.083799616,0.7446195,9.708784,0.015181223,-0.007643146,-0.0071972143,-0.07654275000095367,-0.008631104603409767,1.84677255153656,1016.4287,
2021.02.11 16:40:48,28.0,25.0,-34.02,-12.36,-33.12,0.021548472,0.7733508,10.041589,0.026787663,-0.010086607,0.009907013,-0.0768628865480423,-0.002145919483155012,1.8511384725570679,1016.4258,
2021.02.11 16:40:48,28.0,25.0,-33.719997,-12.36,-32.94,0.10774237,0.7877164,9.543579,0.049389675,0.0064067547,0.009296147,-0.08234699070453644,-0.01128903403878212,1.8504847288131714,1016.417,
2021.02.11 16:40:48,28.0,25.0,-33.6,-12.599999,-32.52,0.031125572,0.7877164,9.601042,0.006018244,-0.007032281,-0.012084136,-0.08186110109090805,-0.003241883823648095,1.8579044342041016,1016.417,
2021.02.11 16:40:48,28.0,25.0,-33.42,-12.599999,-32.219997,-0.021548472,0.81644773,9.624985,0.0017421878,-0.005199685,-0.01025154,-0.08462308347225189,0.002238802146166563,1.8564997911453247,1016.4133,
2021.02.11 16:40:48,28.0,25.0,-33.239998,-12.42,-32.399998,0.014365649,0.7637737,9.512454,0.008461705,-0.0039779544,-0.0010885618,-0.08012000471353531,-0.0015101926401257515,1.857429027557373,1016.4133,
2021.02.11 16:40:48,28.0,25.0,-33.6,-12.78,-32.399998,0.026337024,0.81165916,9.632168,-0.013529444,0.008850216,0.008074417,-0.08406655490398407,-0.0027342711109668016,1.8609721660614014,1016.4153,
2021.02.11 16:40:48,28.0,25.0,-33.78,-12.78,-32.88,0.057462595,0.8547561,9.4932995,-0.0178055,0.0051850243,0.025178645,-0.08979406207799911,-0.00605288939550519,1.8536981344223022,1016.42236,
2021.02.11 16:40:49,28.0,25.0,-33.78,-12.54,-32.94,0.04070267,0.7541966,9.814133,-0.028801074,2.9810224E-4,0.024567777,-0.07669660449028015,-0.004147329367697239,1.8588567972183228,1016.42236,
2021.02.11 16:40:49,28.0,25.0,-33.78,-12.24,-32.94,0.1340794,0.80208206,9.502876,5.204572E-4,0.003963294,0.02823297,-0.08419620990753174,-0.014108411967754364,1.8454564809799194,1016.4175,
2021.02.11 16:40:49,28.0,25.0,-33.84,-12.12,-32.94,0.047885496,0.7589851,9.6896305,-0.015362039,0.0057958895,0.01662653,-0.07816904783248901,-0.0049418918788433075,1.8456816673278809,1016.4175,
2021.02.11 16:40:49,28.0,25.0,-33.78,-11.759999,-32.82,0.090982445,0.7398309,9.720756,-0.017194636,-9.236283E-4,0.012961339,-0.07595861703157425,-0.009359333664178848,1.8393574953079224,1016.42236,
2021.02.11 16:40:49,28.0,25.0,-34.14,-11.94,-32.88,0.11971374,0.81644773,9.526819,-0.0043664644,0.0015198328,0.018459126,-0.0854843258857727,-0.012565310113132,1.8330475091934204,1016.42993,
2021.02.11 16:40:49,28.0,25.0,-34.02,-12.0,-33.12,0.09337672,0.71828246,9.715967,-0.008642522,-0.0015344934,0.0025766296,-0.07379040122032166,-0.009610350243747234,1.8456090688705444,1016.42993,
2021.02.11 16:40:49,28.0,25.0,-33.96,-12.24,-33.12,0.090982445,0.749408,9.529214,0.0041856486,0.010682812,-0.004142888,-0.0784781202673912,-0.009547448717057705,1.8482282161712646,1016.426,
2021.02.11 16:40:49,28.0,25.0,-33.84,-12.36,-33.12,0.071828246,0.72785956,9.624985,-0.0061990605,0.003963294,-0.009640676,-0.07547613978385925,-0.007462548557668924,1.854886770248413,1016.426,
2021.02.11 16:40:49,28.0,25.0,-33.84,-12.66,-33.18,0.10055954,0.7805336,9.699207,-0.0074207913,0.0051850243,-0.004753753,-0.08029661327600479,-0.0103674391284585,1.8590061664581299,1016.4143,
2021.02.11 16:40:49,28.0,25.0,-33.899998,-12.599999,-33.48,0.052674048,0.7541966,9.598648,0.0017421878,0.004574159,-0.02185798,-0.07841093093156815,-0.005487597547471523,1.8570618629455566,1016.4236,
2021.02.11 16:40:49,28.0,25.0,-33.66,-12.42,-33.3,-0.03351985,0.69194543,9.665688,-0.0025338691,9.089675E-4,-0.029799229,-0.07146546989679337,0.0034679078962653875,1.8591614961624146,1016.4236,
2021.02.11 16:40:49,28.0,25.0,-33.54,-12.599999,-33.239998,0.035914123,0.7685622,9.627379,-0.0025338691,0.003963294,-0.011473271,-0.07966139167547226,-0.003730397904291749,1.858961582183838,1016.4263,
2021.02.11 16:40:49,28.0,25.0,-33.6,-12.24,-33.239998,0.08858817,0.7733508,9.648928,-0.014140309,0.009461081,-0.010862405,-0.07997456938028336,-0.009180882945656776,1.8493298292160034,1016.4263,
2021.02.11 16:40:49,28.0,25.0,-33.899998,-12.42,-32.82,-0.10774237,0.67757976,9.627379,-0.015362039,-0.0033670892,-0.026134036,-0.07026025652885437,0.011190778575837612,1.8577635288238525,1016.42285,
2021.02.11 16:40:49,28.0,25.0,-33.719997,-12.179999,-32.88,0.05027977,0.70870537,9.555551,-0.009864252,9.089675E-4,-0.006586349,-0.0740303099155426,-0.005261790473014116,1.8523156642913818,1016.4199,
2021.02.11 16:40:49,28.0,25.0,-33.6,-11.88,-33.059998,-0.009577099,0.7039168,9.787795,-0.026357615,-0.009475742,0.008074417,-0.07179417461156845,9.784733410924673E-4,1.8455474376678467,1016.4199,
2021.02.11 16:40:50,28.0,25.0,-33.48,-12.12,-32.94,0.045491222,0.69194543,9.464568,0.013959493,0.007628485,0.011128743,-0.07297835499048233,-0.004806439392268658,1.853360652923584,1016.42114,
2021.02.11 16:40:50,28.0,25.0,-33.36,-11.88,-32.88,0.0670397,0.62251145,9.754275,-0.009253386,-0.002756224,0.006241821,-0.06373140960931778,-0.006872744299471378,1.8569085597991943,1016.42114,
2021.02.11 16:40:50,28.0,25.0,-33.6,-11.639999,-32.76,0.062251143,0.70870537,9.4932995,-0.0031447343,-0.005199685,0.012961339,-0.07451339811086655,-0.006557282526046038,1.8383777141571045,1016.41895,
2021.02.11 16:40:50,28.0,25.0,-33.36,-11.639999,-32.46,0.016759925,0.67757976,9.775824,-0.015362039,-0.015584394,0.0056309556,-0.06920100748538971,-0.001714424230158329,1.844877004623413,1016.41724,
2021.02.11 16:40:50,28.0,25.0,-33.36,-11.58,-32.28,0.023942748,0.65842557,9.660899,0.0121268965,-3.12763E-4,0.012350474,-0.06804820895195007,-0.002478309441357851,1.844760775566101,1016.41724,
2021.02.11 16:40:50,28.0,25.0,-33.239998,-11.58,-32.399998,0.043096945,0.64166564,9.651321,0.008461705,0.0051850243,0.013572204,-0.0663863867521286,-0.0044653634540736675,1.8474082946777344,1016.4153,
2021.02.11 16:40:50,28.0,25.0,-33.48,-11.46,-32.7,0.05027977,0.7039168,9.703996,-9.040806E-5,0.0064067547,0.013572204,-0.07241106033325195,-0.0051813009195029736,1.836128830909729,1016.4153,
2021.02.11 16:40:50,28.0,25.0,-33.78,-11.099999,-32.94,0.05027977,0.67757976,9.5794935,0.00785084,0.0027415634,0.0105178775,-0.07061374187469482,-0.005248639732599258,1.8251099586486816,1016.4226,
2021.02.11 16:40:50,28.0,25.0,-33.96,-10.92,-33.0,0.071828246,0.6847626,9.632168,0.004796514,-0.0039779544,1.3316862E-4,-0.0709698498249054,-0.007456982973963022,1.8187413215637207,1016.42163,
2021.02.11 16:40:50,28.0,25.0,-34.02,-10.98,-33.12,0.014365649,0.69673395,9.567522,0.0029639183,0.008850216,-0.0053646187,-0.07269442081451416,-0.0015015003737062216,1.8171380758285522,1016.42163,
2021.02.11 16:40:50,28.0,25.0,-33.54,-11.16,-33.18,-0.047885496,0.6608198,9.73991,-0.00497733,-0.014973529,-0.00902981,-0.06774196773767471,0.00491638109087944,1.8289660215377808,1016.42236,
2021.02.11 16:40:50,28.0,25.0,-33.84,-11.5199995,-33.36,0.13168511,0.7039168,9.531608,0.013959493,0.0027415634,0.0086852815,-0.07370996475219727,-0.013814744539558887,1.834125280380249,1016.42236,
2021.02.11 16:40:50,28.0,25.0,-33.6,-11.639999,-33.66,0.0047885496,0.69912827,9.720756,-0.015972905,0.0033524283,-0.014527597,-0.07179755717515945,-4.926107940264046E-4,1.8380204439163208,1016.4265,
2021.02.11 16:40:50,28.0,25.0,-33.899998,-11.7,-33.36,0.016759925,0.7110996,9.478934,0.011516031,0.007628485,-0.004142888,-0.07487856596708298,-0.0017681214958429337,1.8353358507156372,1016.4131,
2021.02.11 16:40:50,28.0,25.0,-33.84,-11.7,-33.239998,0.0047885496,0.6440599,9.783007,-0.013529444,-0.002756224,-0.004142888,-0.06573967635631561,-4.894762532785535E-4,1.8443363904953003,1016.4131,
2021.02.11 16:40:50,28.0,25.0,-33.899998,-12.0,-33.36,0.117319465,0.81165916,9.5794935,0.010294301,0.002130698,0.0074635516,-0.084520623087883,-0.012246325612068176,1.8362903594970703,1016.4192,
2021.02.11 16:40:50,28.0,25.0,-33.84,-12.0,-33.239998,0.0047885496,0.7134939,9.6896305,0.0041856486,0.00701762,-0.030410094,-0.07350213080644608,-4.941931692883372E-4,1.8453056812286377,1016.4192,
2021.02.11 16:40:51,28.0,25.0,-33.719997,-12.179999,-33.42,-0.035914123,0.6895511,9.581888,0.02067901,0.0161806,-0.025523173,-0.07183967530727386,0.0037481084000319242,1.8515212535858154,1016.41187,
2021.02.11 16:40:51,28.0,25.0,-34.079998,-12.12,-33.42,0.038308397,0.73743665,9.651321,0.0017421878,0.00701762,-0.008418945,-0.0762590691447258,-0.003969217650592327,1.8444386720657349,1016.4175,
2021.02.11 16:40:51,28.0,25.0,-33.6,-11.82,-33.0,0.038308397,0.72546524,9.634562,0.010294301,0.0057958895,-0.00780808,-0.07515578716993332,-0.003976122476160526,1.8417987823486328,1016.4175,
2021.02.11 16:40:51,28.0,25.0,-33.719997,-11.82,-33.18,-0.03351985,0.74701375,9.603436,-0.0019230038,0.011904542,-0.015749328,-0.07762929797172546,0.003490387462079525,1.8368420600891113,1016.41724,
2021.02.11 16:40:51,28.0,25.0,-33.48,-11.58,-32.94,-0.04070267,0.71828246,9.620196,-0.0037555995,0.008850216,-0.01025154,-0.07452505826950073,0.004230935126543045,1.835303544998169,1016.41724,
2021.02.11 16:40:51,28.0,25.0,-33.36,-11.88,-33.0,-0.031125572,0.7110996,9.636956,-0.0074207913,0.010682812,-0.003532023,-0.07365494966506958,0.0032298024743795395,1.845375895500183,1016.4121,
2021.02.11 16:40:51,28.0,25.0,-33.6,-11.88,-33.12,-0.1699935,0.69673395,9.584282,-0.009253386,0.0033524283,-0.0023102923,-0.07255645841360092,0.017734836786985397,1.8416436910629272,1016.4126,
2021.02.11 16:40:51,28.0,25.0,-33.6,-12.0,-33.0,0.026337024,0.71588814,9.656111,-0.0055881953,0.010071946,0.021513453,-0.07400268316268921,-0.0027274913154542446,1.8476133346557617,1016.4126,
2021.02.11 16:40:51,28.0,25.0,-33.84,-12.12,-33.3,-0.021548472,0.73743665,9.601042,-9.040806E-5,0.011904542,0.025789509,-0.07665728777647018,0.002244385192170739,1.845005989074707,1016.4116,
2021.02.11 16:40:51,28.0,25.0,-33.84,-12.059999,-33.3,-0.11492519,0.65124273,9.534002,-0.0068099257,0.003963294,0.0019657644,-0.06819649785757065,0.012053660117089748,1.8493173122406006,1016.4116,
2021.02.11 16:40:51,28.0,25.0,-33.84,-11.82,-33.54,-0.090982445,0.67757976,9.778218,-0.0013121385,0.014348002,0.017237397,-0.06918122619390488,0.009304335340857506,1.8419830799102783,1016.4099,
2021.02.11 16:40:51,28.0,25.0,-33.54,-11.639999,-33.899998,0.10055954,0.7709565,9.656111,-9.040806E-5,0.011293677,0.01784826,-0.07966800034046173,-0.010413707233965397,1.8321908712387085,1016.40405,
2021.02.11 16:40:51,28.0,25.0,-33.42,-11.5199995,-34.079998,-0.031125572,0.73743665,9.483723,-0.011085982,0.025343576,0.0050200904,-0.07760157436132431,0.0032819875050336123,1.8288929462432861,1016.40405,
2021.02.11 16:40:51,28.0,25.0,-33.48,-11.46,-33.899998,-0.047885496,0.43096948,9.627379,-0.00497733,-0.014973529,-0.012084136,-0.044734567403793335,0.004973846022039652,1.8580365180969238,1016.4075,
2021.02.11 16:40:51,28.0,25.0,-33.3,-11.5199995,-33.78,0.090982445,0.74701375,9.553157,0.0041856486,0.027176172,0.023956914,-0.07803317159414291,-0.009523521177470684,1.8323396444320679,1016.4075,
2021.02.11 16:40:51,28.0,25.0,-33.18,-11.34,-33.36,-0.011971374,0.723071,9.835681,-0.0037555995,-0.0045888196,7.440339E-4,-0.07338302582502365,0.0012171367416158319,1.831616759300232,1016.4048,
2021.02.11 16:40:51,28.0,25.0,-33.12,-11.639999,-32.94,-0.22985038,0.7541966,9.569917,0.031674586,0.015569733,-0.015138462,-0.07862397283315659,0.024013396352529526,1.8324909210205078,1016.4104,
2021.02.11 16:40:52,28.0,25.0,-33.0,-11.58,-33.18,-0.29689008,0.6296943,9.61062,0.028620258,0.0161806,-0.005975484,-0.06539604812860489,0.030882054939866066,1.841953158378601,1016.4104,
2021.02.11 16:40:52,28.0,25.0,-32.88,-11.94,-33.239998,-0.18196489,0.7134939,9.447808,0.044502754,0.03389569,0.050834984,-0.07536251097917557,0.01925762929022312,1.8456757068634033,1016.4092,
2021.02.11 16:40:52,28.0,25.0,-33.12,-11.94,-33.48,0.031125572,0.9122187,9.694419,0.00662911,0.036339153,0.057554502,-0.09382057189941406,-0.0032106582075357437,1.8296374082565308,1016.4092,
2021.02.11 16:40:52,28.0,25.0,-33.12,-11.82,-33.48,-0.13168511,0.7398309,9.368797,0.024344202,0.0583303,-0.00902981,-0.07879626005887985,0.01405478548258543,1.8377325534820557,1016.4031,
2021.02.11 16:40:52,28.0,25.0,-33.059998,-11.88,-33.84,-0.019154198,0.57223165,10.755082,-0.028190209,-0.019249586,-0.015138462,-0.05315548926591873,0.0017809419659897685,1.8659151792526245,1016.4104,
