Time,X-cord,Y-cord,Mag_x,Mag_y,Mag_z,Acc_x,Acc_y,Acc_z,Gyro_x,Gyro_y,Gyro_z,Orn_x,Orn_y,Orn_z,Pressure,
2021.02.11 16:37:45,44.0,26.0,-5.58,-34.62,-36.42,0.0071828244,0.44533512,10.161303,0.07932208,0.17561643,-0.089053154,-0.0437985435128212,-7.068801787681878E-4,2.9748051166534424,1016.4758,
2021.02.11 16:37:45,44.0,26.0,-5.1,-34.62,-36.12,0.22027329,0.723071,9.265843,0.03472891,0.15973394,-0.0023102923,-0.07785644382238388,-0.02376813255250454,3.0086119174957275,1016.4971,
2021.02.11 16:37:45,44.0,26.0,-4.98,-34.8,-36.239998,0.28013015,0.69912827,9.5794935,-0.057511743,0.026565308,0.0031874948,-0.07282157242298126,-0.029234357178211212,3.0199756622314453,1016.4971,
2021.02.11 16:37:45,44.0,26.0,-4.74,-34.38,-36.0,0.16759923,0.531529,9.888355,-0.053235684,-0.009475742,0.0025766296,-0.05369364842772484,-0.01694752834737301,3.0148086547851562,1016.48755,
2021.02.11 16:37:45,44.0,26.0,-4.56,-34.44,-36.3,0.11971374,0.6560313,9.550762,-0.008642522,0.01862406,0.022735182,-0.06857579946517944,-0.012533813714981079,3.013495445251465,1016.48755,
2021.02.11 16:37:45,44.0,26.0,-4.92,-34.62,-36.42,0.22027329,0.679974,9.454991,-0.06239866,0.02106752,0.0025766296,-0.07177392393350601,-0.023292824625968933,3.0147247314453125,1016.4851,
2021.02.11 16:37:45,44.0,26.0,-4.8599997,-34.2,-36.6,0.22745611,0.600963,9.615408,-0.02941194,-0.014973529,0.008074417,-0.06240140274167061,-0.023650966584682465,3.016850233078003,1016.47876,
2021.02.11 16:37:45,44.0,26.0,-4.68,-34.739998,-36.66,0.35674694,0.70870537,9.507666,-0.0061990605,0.0015198328,0.0031874948,-0.07435069233179092,-0.03750443831086159,3.0384764671325684,1016.47876,
2021.02.11 16:37:45,44.0,26.0,-4.8599997,-34.739998,-36.48,0.028731298,0.63208854,9.593859,-0.034298863,0.021678386,-0.019414518,-0.06578932702541351,-0.0029947503935545683,2.9954049587249756,1016.48315,
2021.02.11 16:37:45,44.0,26.0,-4.68,-34.44,-36.6,0.08140534,0.65124273,9.682447,-0.019638095,0.022289252,0.023346048,-0.06715662032365799,-0.008407318033277988,3.005399703979492,1016.48315,
2021.02.11 16:37:45,44.0,26.0,-4.74,-34.68,-36.66,0.15323359,0.6751855,9.718362,-0.019027231,0.013126272,0.031287298,-0.06935518980026245,-0.015766123309731483,3.0124776363372803,1016.47925,
2021.02.11 16:37:45,44.0,26.0,-4.7999997,-34.5,-37.079998,0.22985038,0.6392714,9.603436,-0.009864252,0.003963294,0.050834984,-0.06644989550113678,-0.023929612711071968,3.019794225692749,1016.4785,
2021.02.11 16:37:46,44.0,26.0,-4.7999997,-34.38,-37.26,0.19393626,0.66800267,9.763853,-0.013529444,-0.029634295,0.045337196,-0.06829600781202316,-0.01986006647348404,3.0144407749176025,1016.4785,
2021.02.11 16:37:46,44.0,26.0,-4.98,-34.559998,-36.96,0.23942748,0.5147691,10.197216,0.03228545,0.0033524283,0.06549575,-0.050424642860889435,-0.02347537688910961,3.0163304805755615,1016.4861,
2021.02.11 16:37:46,44.0,26.0,-5.1,-34.2,-36.6,0.31604427,0.73743665,9.021627,0.042059295,0.025343576,0.07404786,-0.08150986582040787,-0.035017527639865875,3.019493818283081,1016.4861,
2021.02.11 16:37:46,44.0,26.0,-5.46,-34.14,-36.54,0.25139886,0.6440599,9.28021,-0.11065702,-0.002756224,0.022735182,-0.06926500797271729,-0.027083158493041992,3.0007636547088623,1016.48,
2021.02.11 16:37:46,44.0,26.0,-5.4,-33.899998,-36.42,0.27055305,0.7637737,10.096657,-0.09477452,-0.041851602,0.03311989,-0.07547540962696075,-0.026789890602231026,3.000101089477539,1016.48047,
2021.02.11 16:37:46,44.0,26.0,-5.64,-34.14,-36.48,0.20590763,0.90982443,9.720756,-7.012733E-4,0.0302305,0.009907013,-0.0933033749461174,-0.02117909863591194,2.9837982654571533,1016.48047,
2021.02.11 16:37:46,44.0,26.0,-5.4,-34.44,-36.719997,0.10055954,0.50040346,9.431048,0.0035747832,0.021678386,-0.01025154,-0.05300644040107727,-0.01066220086067915,2.988433837890625,1016.49243,
2021.02.11 16:37:46,44.0,26.0,-5.3399997,-34.26,-36.84,0.21548474,0.47885495,10.237919,0.035339776,0.010682812,0.02823297,-0.046728286892175674,-0.021044602617621422,3.0020735263824463,1016.49243,
2021.02.11 16:37:46,44.0,26.0,-5.4,-34.32,-36.84,0.51955765,0.88588166,9.490906,0.054887462,0.018013194,0.030065564,-0.09293205291032791,-0.054688096046447754,3.0321033000946045,1016.48584,
2021.02.11 16:37:46,44.0,26.0,-5.22,-34.14,-36.84,0.0023942748,0.49082634,9.864412,0.03228545,2.9810224E-4,-0.03712961,-0.0497162751853466,-2.4271843722090125E-4,2.9814767837524414,1016.4966,
2021.02.11 16:37:46,44.0,26.0,-5.16,-33.899998,-36.6,0.07422252,0.44054657,9.711179,0.015181223,0.0302305,7.440339E-4,-0.04533248394727707,-0.00764284934848547,2.9912028312683105,1016.4966,
2021.02.11 16:37:46,44.0,26.0,-5.22,-33.96,-36.3,0.27294734,0.6560313,9.553157,0.061606985,-0.01619526,0.020291721,-0.06853615492582321,-0.028563659638166428,3.0091519355773926,1016.48755,
2021.02.11 16:37:46,44.0,26.0,-4.92,-33.899998,-36.54,0.26097596,0.5913859,9.555551,0.038394105,-0.02230391,0.011128743,-0.0617874376475811,-0.02730466239154339,3.0180444717407227,1016.48755,
2021.02.11 16:37:46,44.0,26.0,-4.98,-34.02,-36.6,0.07422252,0.44054657,9.4932995,-0.010475118,-0.027801698,1.3316862E-4,-0.04637137055397034,-0.007818251848220825,2.9972212314605713,1016.4863,
2021.02.11 16:37:46,44.0,26.0,-5.3399997,-34.38,-36.66,0.016759925,0.4764607,9.399923,-0.010475118,-0.027190834,0.017237397,-0.05064430087804794,-0.0017829834250733256,2.980600118637085,1016.49243,
2021.02.11 16:37:46,44.0,26.0,-5.46,-34.8,-36.84,0.18675344,0.6177229,9.557945,-0.034909725,-3.12763E-4,0.04472633,-0.06452722102403641,-0.019536592066287994,2.996108055114746,1016.49243,
2021.02.11 16:37:47,44.0,26.0,-5.7,-34.98,-36.84,0.22745611,0.64166564,9.72315,-0.041629247,0.016791465,0.0435046,-0.06588007509708405,-0.02338898740708828,2.9937191009521484,1016.4824,
2021.02.11 16:37:47,44.0,26.0,-5.64,-34.92,-36.6,0.15802214,0.5219519,9.883567,-0.0037555995,-0.0039779544,0.032509025,-0.05275433883070946,-0.015987008810043335,2.989330530166626,1016.4824,
2021.02.11 16:37:47,44.0,26.0,-5.7599998,-34.98,-36.84,0.26097596,0.6273,9.416683,0.024955066,0.01862406,0.059997965,-0.06649208068847656,-0.027707120403647423,2.9966115951538086,1016.48413,
2021.02.11 16:37:47,44.0,26.0,-5.8199997,-34.86,-36.96,0.27294734,0.5794145,9.634562,-0.012307713,0.014348002,0.03739595,-0.060042787343263626,-0.02832244709134102,2.9961438179016113,1016.48926,
2021.02.11 16:37:47,44.0,26.0,-5.8199997,-34.92,-36.96,0.26097596,0.6057515,9.634562,-0.008031656,0.016791465,0.019680856,-0.0627671554684639,-0.027080854400992393,2.9945523738861084,1016.48926,
2021.02.11 16:37:47,44.0,26.0,-5.94,-34.86,-37.26,0.20111908,0.60335726,9.737515,5.204572E-4,0.014348002,-0.00780808,-0.06186986342072487,-0.020651109516620636,2.983773708343506,1016.4856,
2021.02.11 16:37:47,44.0,26.0,-5.94,-34.86,-37.14,0.12210801,0.49800915,9.766247,0.010905167,0.007628485,-0.012084136,-0.05094478651881218,-0.012502413243055344,2.9767820835113525,1016.4856,
2021.02.11 16:37:47,44.0,26.0,-5.22,-34.92,-36.96,0.14605077,0.55786604,9.464568,0.013348627,0.022900116,-0.0029211575,-0.05886746570467949,-0.015430093742907047,3.000281810760498,1016.48584,
2021.02.11 16:37:47,44.0,26.0,-5.1,-34.92,-36.84,0.14605077,0.6296943,9.325701,-0.0459053,0.018013194,-0.016971057,-0.0674118772149086,-0.015659824013710022,3.002711057662964,1016.47876,
2021.02.11 16:37:47,44.0,26.0,-4.8599997,-34.68,-36.899998,0.047885496,0.5985687,9.9889145,-0.0459053,-0.0045888196,-0.02063625,-0.059851035475730896,-0.004793826956301928,2.998088836669922,1016.47876,
2021.02.11 16:37:47,44.0,26.0,-4.8599997,-34.2,-36.96,0.05985687,0.5506832,9.644139,0.034118045,-0.018027855,0.020291721,-0.05703726410865784,-0.0062064738012850285,2.998044729232788,1016.4817,
2021.02.11 16:37:47,44.0,26.0,-5.22,-33.899998,-37.079998,0.10774237,0.4932206,9.452597,0.0035747832,0.00701762,0.026400374,-0.0521276593208313,-0.01139768399298191,2.9924209117889404,1016.4817,
2021.02.11 16:37:47,44.0,26.0,-5.1,-33.899998,-37.38,0.19393626,0.59378016,9.715967,-0.021470692,0.003963294,0.01418307,-0.06102580949664116,-0.019957920536398888,3.00449275970459,1016.48193,
2021.02.11 16:37:47,44.0,26.0,-5.46,-34.02,-37.26,0.23224466,0.73743665,9.744699,-0.009864252,-0.0033670892,7.440339E-4,-0.07551034539937973,-0.0238284133374691,2.9956846237182617,1016.47876,
2021.02.11 16:37:47,44.0,26.0,-5.58,-34.68,-37.26,0.05985687,0.505192,9.694419,0.025565932,-0.014973529,-0.016360193,-0.05206354334950447,-0.006174285430461168,2.9793877601623535,1016.47876,
2021.02.11 16:37:47,44.0,26.0,-6.0,-34.86,-37.2,0.11253092,0.52674043,9.490906,0.010294301,-0.011308338,-0.0010885618,-0.055438727140426636,-0.011856154538691044,2.9734249114990234,1016.4768,
2021.02.11 16:37:47,44.0,26.0,-6.06,-34.8,-37.38,0.11492519,0.6177229,9.742304,-0.014140309,-0.007032281,0.006241821,-0.06331708282232285,-0.011795963160693645,2.9696805477142334,1016.4768,
2021.02.11 16:37:48,44.0,26.0,-5.7599998,-34.8,-37.44,0.16759923,0.6177229,9.620196,0.013959493,-0.019249586,0.006241821,-0.0641133189201355,-0.017419839277863503,2.984893560409546,1016.48364,
2021.02.11 16:37:48,44.0,26.0,-5.46,-34.2,-37.68,0.14844504,0.58420306,9.471751,-0.0178055,0.0027415634,-0.0053646187,-0.06159288436174393,-0.01567111350595951,2.9897143840789795,1016.4795,
2021.02.11 16:37:48,44.0,26.0,-4.8599997,-33.899998,-37.559998,0.16281068,0.5458947,9.850046,-0.02024896,-0.021693047,-0.003532023,-0.05535633862018585,-0.01652742177248001,3.008943557739258,1016.4795,
2021.02.11 16:37:48,44.0,26.0,-5.22,-33.899998,-37.14,0.21548474,0.5961744,9.550762,0.010294301,-0.014973529,0.0056309556,-0.06232495605945587,-0.022558217868208885,3.0034632682800293,1016.4846,
2021.02.11 16:37:48,44.0,26.0,-5.1,-34.079998,-37.14,0.21787901,0.57462597,9.63935,-0.008642522,-0.010697473,-0.0010885618,-0.05952689051628113,-0.02259923331439495,3.0084564685821533,1016.4846,
2021.02.11 16:37:48,44.0,26.0,-5.3399997,-34.5,-36.899998,0.15083931,0.59378016,9.70639,-0.014140309,-0.007643146,-0.015749328,-0.06109064817428589,-0.01553895603865385,2.9945483207702637,1016.4868,
2021.02.11 16:37:48,44.0,26.0,-5.7,-34.559998,-37.26,0.16281068,0.59378016,9.560339,0.0023530528,-0.005199685,-0.01025154,-0.06202004849910736,-0.01702815666794777,2.985478401184082,1016.48975,
2021.02.11 16:37:48,44.0,26.0,-5.58,-34.62,-36.899998,0.10774237,0.5554718,9.768641,-0.009864252,-0.0058105504,-0.0016994271,-0.05679812654852867,-0.011028965003788471,2.9835944175720215,1016.48975,
2021.02.11 16:37:48,44.0,26.0,-5.52,-34.32,-36.899998,0.20111908,0.5889916,9.538791,0.006018244,0.0015198328,0.009907013,-0.06165502592921257,-0.021081214770674706,2.9943926334381104,1016.4885,
2021.02.11 16:37:48,44.0,26.0,-5.46,-34.2,-36.899998,0.20590763,0.5650489,9.553157,-0.019638095,9.089675E-4,-0.0029211575,-0.05906534940004349,-0.02155054546892643,2.9966766834259033,1016.4885,
2021.02.11 16:37:48,44.0,26.0,-5.7599998,-34.2,-36.66,0.11971374,0.54828894,9.720756,-0.025135884,-0.0015344934,-0.004142888,-0.05633997917175293,-0.012314648367464542,2.9776010513305664,1016.49023,
2021.02.11 16:37:48,44.0,26.0,-5.46,-34.079998,-37.2,0.18914771,0.600963,9.684841,-0.009253386,-0.005199685,0.00379836,-0.061960674822330475,-0.019527802243828773,2.993417739868164,1016.4829,
2021.02.11 16:37:48,44.0,26.0,-5.94,-34.079998,-37.32,0.15083931,0.48843205,9.58907,0.007239975,-9.236283E-4,-0.003532023,-0.05088605731725693,-0.015729039907455444,2.9765419960021973,1016.4829,
2021.02.11 16:37:48,44.0,26.0,-5.7599998,-33.899998,-37.2,0.18914771,0.55307746,9.603436,-0.0178055,0.007628485,-0.0023102923,-0.05751693993806839,-0.019693288952112198,2.9843392372131348,1016.47974,
2021.02.11 16:37:48,44.0,26.0,-5.58,-33.96,-37.14,0.16041641,0.50998056,9.835681,-0.023914153,-9.236283E-4,-0.0071972143,-0.05179678276181221,-0.016308194026350975,2.987340211868286,1016.47974,
2021.02.11 16:37:48,44.0,26.0,-5.52,-33.96,-37.2,0.18435916,0.5506832,9.471751,0.017013818,2.9810224E-4,0.0031874948,-0.05806318297982216,-0.019461646676063538,2.9916460514068604,1016.48145,
2021.02.11 16:37:48,44.0,26.0,-5.2799997,-34.079998,-37.5,0.2083019,0.53392327,9.653716,-0.009253386,-0.0015344934,-0.0016994271,-0.05523841455578804,-0.021574031561613083,3.0026025772094727,1016.4829,
2021.02.11 16:37:49,44.0,26.0,-5.2799997,-34.38,-37.559998,0.14365649,0.49800915,9.680053,-0.015972905,2.9810224E-4,-0.0071972143,-0.05139597877860069,-0.01483937632292509,2.9968738555908203,1016.4829,
2021.02.11 16:37:49,44.0,26.0,-5.16,-34.079998,-37.62,0.17717634,0.5961744,9.514848,-0.0013121385,-0.002756224,1.3316862E-4,-0.06256464868783951,-0.018618885427713394,3.0016627311706543,1016.4861,
2021.02.11 16:37:49,44.0,26.0,-5.2799997,-34.079998,-37.44,0.083799616,0.47167215,9.711179,-0.019027231,-0.0021453588,-0.009640676,-0.04853007569909096,-0.008628977462649345,2.9889557361602783,1016.4861,
2021.02.11 16:37:49,44.0,26.0,-5.4,-33.78,-37.02,0.19393626,0.5602603,9.526819,-0.0013121385,-0.0045888196,0.0086852815,-0.05872895568609238,-0.02035406231880188,2.995370388031006,1016.4839,
2021.02.11 16:37:49,44.0,26.0,-6.0,-33.84,-37.2,0.14605077,0.4860378,9.778218,-0.012307713,-0.007643146,0.0025766296,-0.049659762531518936,-0.014935227110981941,2.9728164672851562,1016.49414,
2021.02.11 16:37:49,44.0,26.0,-6.18,-34.02,-37.5,0.17478207,0.51955765,9.692024,-0.0013121385,0.0015198328,0.009296147,-0.05354677140712738,-0.018031643703579903,2.9710776805877686,1016.49414,
2021.02.11 16:37:49,44.0,26.0,-6.06,-33.96,-37.38,0.22027329,0.49800915,9.701602,5.204572E-4,-0.007032281,0.019680856,-0.051274463534355164,-0.02270093560218811,2.980163097381592,1016.4878,
2021.02.11 16:37:49,44.0,26.0,-5.94,-34.079998,-37.5,0.18435916,0.4740664,9.747093,0.00785084,-0.0045888196,0.0044092257,-0.04858972504734993,-0.018912015482783318,2.9806480407714844,1016.4878,
2021.02.11 16:37:49,44.0,26.0,-5.7599998,-34.079998,-37.2,0.22506183,0.5411061,9.644139,0.0121268965,9.089675E-4,0.00379836,-0.056033261120319366,-0.02333240769803524,2.989638328552246,1016.4829,
2021.02.11 16:37:49,44.0,26.0,-5.52,-34.079998,-37.02,0.14605077,0.4956149,9.6585045,0.007239975,9.089675E-4,-0.006586349,-0.05126301199197769,-0.015120316296815872,2.988459825515747,1016.48,
2021.02.11 16:37:49,44.0,26.0,-5.52,-34.079998,-37.079998,0.13886794,0.4764607,9.684841,0.0023530528,-0.002756224,-0.0053646187,-0.049151863902807236,-0.014337708242237568,2.987975597381592,1016.48,
2021.02.11 16:37:49,44.0,26.0,-5.52,-34.26,-37.079998,0.25858167,0.57462597,9.517242,0.0121268965,0.002130698,-0.00780808,-0.060281962156295776,-0.027163127437233925,3.0013585090637207,1016.4761,
2021.02.11 16:37:49,44.0,26.0,-5.4,-34.2,-37.68,0.14365649,0.4860378,9.725544,-0.0074207913,0.0051850243,-0.02185798,-0.04992840439081192,-0.01476997509598732,2.9926440715789795,1016.4761,
2021.02.11 16:37:49,44.0,26.0,-5.58,-34.2,-37.92,0.16520496,0.53871185,9.636956,0.014570358,0.007628485,-0.012084136,-0.055834315717220306,-0.017141176387667656,2.9888758659362793,1016.4719,
2021.02.11 16:37:49,44.0,26.0,-5.7599998,-34.2,-37.739998,0.11971374,0.4668836,9.747093,-0.009253386,0.00701762,-0.016971057,-0.04785958677530289,-0.01228137593716383,2.979330539703369,1016.47534,
2021.02.11 16:37:49,44.0,26.0,-5.7,-34.02,-37.739998,0.18196489,0.53871185,9.565128,0.013959493,0.0064067547,7.440339E-4,-0.05625080689787865,-0.01902148500084877,2.986401319503784,1016.47534,
2021.02.11 16:37:50,44.0,26.0,-5.4,-34.079998,-37.32,0.12210801,0.5243462,9.696813,-0.0061990605,0.007628485,-0.00902981,-0.054017193615436554,-0.012591928243637085,2.988798141479492,1016.4778,
2021.02.11 16:37:50,44.0,26.0,-5.1,-34.26,-37.02,0.1340794,0.56744313,9.624985,0.006018244,0.012515408,-0.0053646187,-0.05888136103749275,-0.013929448090493679,2.999394655227661,1016.4778,
2021.02.11 16:37:50,44.0,26.0,-5.04,-34.38,-37.38,0.11971374,0.56265455,9.670476,0.00785084,-3.12763E-4,-0.0053646187,-0.05811275914311409,-0.01237866934388876,3.0001707077026367,1016.479,
2021.02.11 16:37:50,44.0,26.0,-4.8599997,-34.5,-37.38,0.09337672,0.5219519,9.581888,0.0029639183,0.004574159,-0.004753753,-0.05441639944911003,-0.00974481925368309,3.0037786960601807,1016.48486,
2021.02.11 16:37:50,44.0,26.0,-4.92,-34.44,-37.5,0.11492519,0.5506832,9.613013,-0.0031447343,0.0064067547,0.006241821,-0.057218559086322784,-0.011954599060118198,3.0037646293640137,1016.48486,
2021.02.11 16:37:50,44.0,26.0,-5.1,-34.5,-37.559998,0.11492519,0.57462597,9.627379,-0.0013121385,0.008850216,0.0056309556,-0.05961168557405472,-0.011936761438846588,2.99812388420105,1016.48486,
2021.02.11 16:37:50,44.0,26.0,-4.92,-34.32,-37.32,0.10055954,0.52674043,9.749487,-0.010475118,-9.236283E-4,0.0050200904,-0.05397215858101845,-0.010313976556062698,3.0019114017486572,1016.48486,
2021.02.11 16:37:50,44.0,26.0,-4.7999997,-34.2,-37.44,0.15562786,0.56265455,9.677659,0.01823555,-0.0033670892,0.01784826,-0.05806666612625122,-0.01607976295053959,3.0110294818878174,1016.479,
2021.02.11 16:37:50,44.0,26.0,-5.04,-34.14,-37.38,0.21069619,0.57223165,9.586677,0.007239975,-0.007643146,0.01662653,-0.059605203568935394,-0.021974483504891396,3.0099287033081055,1016.4734,
2021.02.11 16:37:50,44.0,26.0,-4.8599997,-34.02,-37.26,0.09577099,0.5458947,9.70639,-0.008642522,0.0015198328,-0.00780808,-0.05617883801460266,-0.00986647792160511,3.001569986343384,1016.4734,
2021.02.11 16:37:50,44.0,26.0,-5.22,-34.559998,-37.5,0.14605077,0.5913859,9.526819,0.008461705,-9.236283E-4,7.440339E-4,-0.061989087611436844,-0.015329284593462944,2.998189687728882,1016.4724,
2021.02.11 16:37:50,44.0,26.0,-5.3399997,-34.68,-36.899998,0.098165266,0.50758624,9.785401,-0.014751174,-3.12763E-4,-0.005975484,-0.051822733134031296,-0.010031471028923988,2.9908597469329834,1016.4724,
2021.02.11 16:37:50,44.0,26.0,-5.3399997,-34.739998,-36.84,0.15562786,0.74222517,9.39274,0.03228545,0.019234924,0.01418307,-0.0788465142250061,-0.01656743511557579,2.9936158657073975,1016.4719,
2021.02.11 16:37:50,44.0,26.0,-5.52,-34.68,-36.66,0.062251143,0.56265455,9.565128,-0.015362039,0.010682812,-0.015138462,-0.0587545745074749,-0.006508042570203543,2.980330467224121,1016.4783,
2021.02.11 16:37:50,44.0,26.0,-5.46,-34.079998,-36.42,0.102953814,0.531529,9.63935,-0.012918578,9.089675E-4,-0.0053646187,-0.055082663893699646,-0.01068016979843378,2.9845364093780518,1016.4783,
2021.02.11 16:37:50,44.0,26.0,-5.46,-34.079998,-36.84,0.10774237,0.55786604,9.620196,-0.0074207913,-3.12763E-4,-0.0071972143,-0.057920556515455246,-0.011199134401977062,2.9846136569976807,1016.4822,
2021.02.11 16:37:50,44.0,26.0,-4.98,-34.079998,-36.48,0.062251143,0.5219519,9.577099,-0.0074207913,-9.236283E-4,-0.008418945,-0.05444498732686043,-0.006499907933175564,2.9946448802948,1016.4822,
2021.02.11 16:37:51,44.0,26.0,-5.22,-33.78,-36.48,0.083799616,0.52674043,9.737515,-0.0178055,-0.0039779544,0.0013548991,-0.054039258509874344,-0.008605639450252056,2.9883270263671875,1016.48486,
2021.02.11 16:37:51,44.0,26.0,-5.1,-34.02,-36.84,0.15562786,0.55786604,9.620196,-0.0061990605,0.002130698,0.0025766296,-0.05791661888360977,-0.01617579162120819,3.001024007797241,1016.48096,
2021.02.11 16:37:51,44.0,26.0,-4.74,-33.84,-36.78,0.12450229,0.5650489,9.648928,-0.013529444,-3.12763E-4,-0.0071972143,-0.058489132672548294,-0.012902508489787579,3.0075533390045166,1016.48096,
2021.02.11 16:37:51,44.0,26.0,-4.92,-33.84,-36.96,0.0047885496,0.4932206,9.759064,0.0023530528,-0.010697473,-0.006586349,-0.05049677565693855,-4.906771355308592E-4,2.9892683029174805,1016.4817,
2021.02.11 16:37:51,44.0,26.0,-4.5,-34.32,-36.96,0.083799616,0.5458947,9.608225,0.008461705,-0.0058105504,-0.004142888,-0.05675218626856804,-0.008721433579921722,3.0124433040618896,1016.4817,
2021.02.11 16:37:51,44.0,26.0,-4.62,-34.079998,-36.42,-0.026337024,0.45970076,9.665688,-0.009864252,0.004574159,0.0056309556,-0.04752407968044281,0.002724788850173354,2.9965662956237793,1016.4824,
2021.02.11 16:37:51,44.0,26.0,-5.04,-34.26,-36.6,0.15562786,0.5506832,9.555551,0.007239975,-0.0015344934,0.0105178775,-0.05755838006734848,-0.016285205259919167,3.0040173530578613,1016.4873,
2021.02.11 16:37:51,44.0,26.0,-5.3399997,-34.32,-37.14,0.07901107,0.4860378,9.680053,-0.012918578,-0.0021453588,-0.013916732,-0.05016643926501274,-0.008162074722349644,2.987431287765503,1016.4873,
2021.02.11 16:37:51,44.0,26.0,-5.3399997,-33.899998,-37.32,0.05506832,0.53392327,9.60583,5.204572E-4,2.9810224E-4,1.3316862E-4,-0.05552520230412483,-0.005732739344239235,2.98164963722229,1016.4802,
2021.02.11 16:37:51,44.0,26.0,-5.2799997,-34.02,-37.44,0.0023942748,0.4836435,9.627379,-0.0178055,2.9810224E-4,1.3316862E-4,-0.05019405484199524,-2.4869435583241284E-4,2.97884202003479,1016.4802,
2021.02.11 16:37:51,44.0,26.0,-5.16,-34.14,-37.68,0.11013664,0.52913475,9.735122,-0.0037555995,-0.008864877,0.012961339,-0.05429627373814583,-0.011312847025692463,2.994927167892456,1016.4758,
2021.02.11 16:37:51,44.0,26.0,-5.16,-34.14,-37.559998,0.10774237,0.47167215,9.672871,-0.00497733,0.002130698,-0.0023102923,-0.04872076213359833,-0.01113815326243639,2.9956984519958496,1016.47925,
2021.02.11 16:37:51,44.0,26.0,-5.04,-34.02,-37.559998,0.17238778,0.52913475,9.641745,-0.0043664644,-0.002756224,0.0019657644,-0.05481582507491112,-0.017877409234642982,3.0055456161499023,1016.47925,
2021.02.11 16:37:51,44.0,26.0,-5.16,-33.96,-37.68,0.043096945,0.40223816,10.041589,-0.02696848,9.089675E-4,-0.014527597,-0.04003545269370079,-0.00429181894287467,2.988643169403076,1016.4673,
2021.02.11 16:37:51,44.0,26.0,-5.1,-33.719997,-37.44,0.08140534,0.43575802,9.811738,5.204572E-4,0.0015198328,-0.0071972143,-0.044381219893693924,-0.008296540006995201,2.9931418895721436,1016.4673,
2021.02.11 16:37:51,44.0,26.0,-4.8599997,-33.719997,-37.44,0.11492519,0.4860378,9.565128,0.0011313224,0.00701762,-0.01025154,-0.05076619237661362,-0.012014440260827541,3.003685235977173,1016.4658,
2021.02.11 16:37:51,44.0,26.0,-5.22,-34.079998,-37.32,-0.052674048,0.42139238,9.747093,-0.0055881953,-0.0045888196,-0.008418945,-0.04320508614182472,0.005404024850577116,2.9759836196899414,1016.4763,
2021.02.11 16:37:52,44.0,26.0,-4.98,-34.32,-37.14,0.11253092,0.5650489,9.531608,0.0011313224,0.072991066,7.440339E-4,-0.05920817330479622,-0.01180553063750267,3.0008766651153564,1016.4763,
2021.02.11 16:37:52,44.0,26.0,-4.92,-33.899998,-37.32,-0.117319465,0.4070267,9.553157,0.0402267,-0.021082181,0.0068526864,-0.04257754981517792,0.012280084192752838,2.9765243530273438,1016.48193,
2021.02.11 16:37:52,44.0,26.0,-4.98,-33.42,-36.84,0.07422252,0.69912827,9.62259,0.026787663,0.013737137,0.02823297,-0.07252530753612518,-0.00771320890635252,2.989619255065918,1016.48193,
2021.02.11 16:37:52,44.0,26.0,-4.5,-33.3,-36.899998,0.019154198,0.5554718,9.471751,0.022511607,0.007628485,0.013572204,-0.05857788398861885,-0.0020222419407218695,3.000166177749634,1016.4785,
2021.02.11 16:37:52,44.0,26.0,-4.38,-33.0,-36.96,-0.043096945,0.47167215,9.742304,0.009683436,-0.0021453588,0.016015666,-0.048376597464084625,0.0044236620888113976,2.9968714714050293,1016.4807,
2021.02.11 16:37:52,44.0,26.0,-4.62,-33.719997,-36.84,0.011971374,0.5650489,9.57231,0.013348627,0.00701762,0.027622106,-0.05896105617284775,-0.001250624773092568,2.997352361679077,1016.4807,
2021.02.11 16:37:52,44.0,26.0,-4.74,-34.02,-36.96,0.071828246,0.5506832,9.792584,0.0121268965,0.0057958895,0.025178645,-0.05617403984069824,-0.007334831636399031,3.0023653507232666,1016.48413,
2021.02.11 16:37:52,44.0,26.0,-5.22,-34.32,-37.079998,0.0,0.43575802,9.26345,0.018846415,-0.027190834,0.01784826,-0.047005925327539444,1.0E-6,2.9825286865234375,1016.48413,
