Time,X-cord,Y-cord,Mag_x,Mag_y,Mag_z,Acc_x,Acc_y,Acc_z,Gyro_x,Gyro_y,Gyro_z,Orn_x,Orn_y,Orn_z,Pressure,
2021.02.11 16:40:15,31.0,25.0,-33.42,-12.84,-31.26,-0.014365649,0.18196489,9.115005,0.042059295,0.13285586,0.06060883,-0.019960550591349602,0.0015760428505018353,1.9207264184951782,1016.4226,
2021.02.11 16:40:15,31.0,25.0,-33.54,-12.54,-31.5,0.43575802,0.4166038,9.244295,-0.008642522,0.032063097,0.11314324,-0.04498568922281265,-0.04710317775607109,1.9028573036193848,1016.4321,
2021.02.11 16:40:15,31.0,25.0,-32.82,-12.12,-31.439999,-0.031125572,0.3232271,10.027223,-0.1601371,-0.060788423,-0.017581923,-0.032223645597696304,0.0031040969770401716,1.8961400985717773,1016.4321,
2021.02.11 16:40:15,31.0,25.0,-32.219997,-11.7,-31.38,0.009577099,0.38547826,10.027223,-0.111878745,-0.0840013,0.0056309556,-0.03842423856258392,-9.551095427013934E-4,1.8856736421585083,1016.42847,
2021.02.11 16:40:15,31.0,25.0,-31.26,-11.7,-30.9,0.023942748,0.14844504,9.668081,0.00785084,-0.024747374,0.020291721,-0.015352883376181126,-0.0024764686822891235,1.9162676334381104,1016.4138,
2021.02.11 16:40:16,31.0,25.0,-30.779999,-11.46,-30.359999,0.20111908,0.19154198,9.70639,-9.040806E-5,-0.027190834,0.019680856,-0.01972680166363716,-0.020717311650514603,1.9161888360977173,1016.4138,
2021.02.11 16:40:16,31.0,25.0,-30.779999,-11.46,-30.179998,0.27294734,0.27055305,9.799767,0.010905167,-0.029634295,0.009907013,-0.02759040705859661,-0.02784523367881775,1.9111876487731934,1016.417,
2021.02.11 16:40:16,31.0,25.0,-30.599998,-11.099999,-30.0,0.07422252,0.3902668,9.732727,0.004796514,-0.035742946,-0.02307971,-0.04007576406002045,-0.0076259286142885685,1.8853100538253784,1016.417,
2021.02.11 16:40:16,31.0,25.0,-30.599998,-11.099999,-29.82,0.019154198,0.2083019,9.411894,0.017013818,-0.0045888196,-0.049346916,-0.022128114476799965,-0.0020351028069853783,1.9000824689865112,1016.4133,
2021.02.11 16:40:16,31.0,25.0,-30.3,-11.16,-29.88,-0.052674048,0.10774237,9.352037,0.010905167,0.009461081,-0.041405667,-0.011520045809447765,0.005632300861179829,1.9119460582733154,1016.41455,
2021.02.11 16:40:16,31.0,25.0,-30.539999,-11.16,-30.179998,0.31604427,0.28252444,9.304152,-0.022081556,-0.007643146,0.041672006,-0.030338604003190994,-0.03395503759384155,1.9039703607559204,1016.41455,
2021.02.11 16:40:16,31.0,25.0,-30.48,-11.5199995,-30.599998,0.18435916,0.43336374,9.890749,-0.0862224,0.011904542,0.025178645,-0.04377945885062218,-0.01863739639520645,1.8978632688522339,1016.4204,
2021.02.11 16:40:16,31.0,25.0,-30.66,-11.759999,-30.779999,-0.03351985,0.39505535,9.883567,-0.024525018,0.015569733,-0.004142888,-0.039949432015419006,0.0033914598170667887,1.900445818901062,1016.4204,
2021.02.11 16:40:16,31.0,25.0,-30.96,-12.12,-31.14,-0.011971374,0.12929083,9.708784,0.04511362,0.029008768,0.022735182,-0.013316094875335693,0.0012330450117588043,1.9318387508392334,1016.41284,
2021.02.11 16:40:16,31.0,25.0,-30.539999,-12.36,-30.84,0.19633053,0.32083282,9.378374,0.049389675,0.034506556,0.04778066,-0.03418903797864914,-0.020931333303451538,1.9315905570983887,1016.4131,
2021.02.11 16:40:16,31.0,25.0,-31.019999,-12.24,-30.66,0.083799616,0.34477556,9.730332,-0.030633671,0.0064067547,0.0056309556,-0.03541693836450577,-0.008611992001533508,1.918236494064331,1016.4131,
2021.02.11 16:40:16,31.0,25.0,-31.199999,-12.0,-30.66,-0.08619389,0.026337024,9.785401,0.0023530528,-0.02230391,0.0074635516,-0.002691349945962429,0.008808189071714878,1.9328328371047974,1016.4187,
2021.02.11 16:40:16,31.0,25.0,-31.14,-11.7,-30.48,0.035914123,0.05506832,9.708784,0.06771564,-0.02230391,0.07588046,-0.005671910010278225,-0.003699120134115219,1.9264874458312988,1016.4187,
2021.02.11 16:40:16,31.0,25.0,-31.439999,-11.58,-30.48,0.2681588,0.5794145,9.58907,0.048778813,0.01862406,0.0856543,-0.06032756343483925,-0.02795775979757309,1.8770772218704224,1016.4226,
2021.02.11 16:40:16,31.0,25.0,-31.08,-11.58,-30.24,0.014365649,0.4644893,9.873989,-0.0031447343,0.0051850243,0.0056309556,-0.047007009387016296,-0.0014548971084877849,1.8867008686065674,1016.4241,
2021.02.11 16:40:16,31.0,25.0,-31.08,-11.58,-30.06,0.038308397,0.14365649,9.636956,0.029231124,9.089675E-4,-0.0053646187,-0.014905611984431744,-0.003975134342908859,1.9158695936203003,1016.4241,
2021.02.11 16:40:17,31.0,25.0,-31.619999,-11.58,-30.42,0.2561874,0.34477556,9.555551,0.009072571,-0.016806124,0.024567777,-0.03605259209871292,-0.02680390328168869,1.897838830947876,1016.4236,
2021.02.11 16:40:17,31.0,25.0,-31.8,-11.759999,-30.96,0.090982445,0.35674694,9.909904,-0.028801074,-0.006421415,-0.005975484,-0.035981979221105576,-0.00918070413172245,1.8960657119750977,1016.4236,
2021.02.11 16:40:17,31.0,25.0,-32.219997,-11.82,-31.14,0.045491222,0.21069619,9.387952,0.031674586,-0.007032281,-0.0053646187,-0.022439224645495415,-0.004845664836466312,1.9044337272644043,1016.42554,
2021.02.11 16:40:17,31.0,25.0,-32.399998,-11.7,-31.32,-0.0071828244,0.10774237,9.634562,0.0035747832,-0.01619526,0.0044092257,-0.011182434856891632,7.45526747778058E-4,1.90750253200531,1016.42993,
2021.02.11 16:40:17,31.0,25.0,-32.219997,-11.639999,-30.96,0.23942748,0.4189981,9.663293,-0.018416364,-0.014362663,0.045337196,-0.04331934452056885,-0.02477193810045719,1.8860383033752441,1016.42993,
2021.02.11 16:40:17,31.0,25.0,-32.579998,-11.7,-30.539999,0.23942748,0.3040729,9.869201,-0.009864252,-0.007643146,0.01662653,-0.03079148754477501,-0.024255311116576195,1.8959437608718872,1016.4236,
2021.02.11 16:40:17,31.0,25.0,-32.76,-11.88,-30.779999,0.10774237,0.22506183,9.536397,0.02067901,9.089675E-4,-0.024912305,-0.023594412952661514,-0.011297536082565784,1.9019155502319336,1016.4236,
2021.02.11 16:40:17,31.0,25.0,-32.7,-12.12,-30.66,0.06464542,0.21309046,9.677659,0.004796514,-0.0058105504,-0.024912305,-0.022014755755662918,-0.006679761689156294,1.909232497215271,1016.42334,
2021.02.11 16:40:17,31.0,25.0,-32.579998,-12.059999,-30.9,0.08858817,0.24900457,9.761458,-9.040806E-5,-0.013751798,-0.014527597,-0.025502370670437813,-0.009075051173567772,1.906263828277588,1016.4253,
2021.02.11 16:40:17,31.0,25.0,-32.16,-12.0,-30.779999,0.19393626,0.31843856,9.663293,0.013348627,-0.0021453588,-0.00902981,-0.032934874296188354,-0.020066682249307632,1.9052469730377197,1016.4253,
2021.02.11 16:40:17,31.0,25.0,-32.34,-12.059999,-30.66,0.047885496,0.20590763,9.711179,0.00785084,-3.12763E-4,-0.03468615,-0.021199719980359077,-0.004930926486849785,1.9112863540649414,1016.42725,
2021.02.11 16:40:17,31.0,25.0,-32.1,-11.7,-30.96,0.083799616,0.30886146,9.672871,0.006018244,-9.236283E-4,-0.023690576,-0.03191865235567093,-0.008663149550557137,1.8950040340423584,1016.42725,
2021.02.11 16:40:17,31.0,25.0,-31.92,-11.94,-30.779999,0.090982445,0.3304099,9.675264,0.006018244,0.003963294,-0.011473271,-0.03413518890738487,-0.009403335861861706,1.901888132095337,1016.42676,
2021.02.11 16:40:17,31.0,25.0,-32.219997,-11.759999,-30.96,-0.016759925,0.20111908,9.72315,-0.0068099257,0.008850216,-0.021247115,-0.020681580528616905,0.00172371172811836,1.902569055557251,1016.4243,
2021.02.11 16:40:17,31.0,25.0,-31.98,-11.5199995,-30.9,0.09337672,0.3304099,9.557945,0.005407379,0.003963294,0.01418307,-0.03455372899770737,-0.009769227355718613,1.8890200853347778,1016.4243,
2021.02.11 16:40:17,31.0,25.0,-32.16,-11.58,-30.66,0.090982445,0.29689008,9.727939,-0.008642522,0.004574159,0.01784826,-0.03050851821899414,-0.009352423250675201,1.8927242755889893,1016.4241,
2021.02.11 16:40:17,31.0,25.0,-32.34,-11.28,-30.539999,0.12210801,0.32083282,9.703996,-0.0061990605,0.0027415634,0.019680856,-0.033047277480363846,-0.012582606635987759,1.8812479972839355,1016.4241,
2021.02.11 16:40:18,31.0,25.0,-32.16,-11.4,-30.359999,0.12210801,0.38787252,9.742304,-0.0061990605,2.9810224E-4,0.027622106,-0.03978908434510231,-0.012533136643469334,1.8804630041122437,1016.4231,
2021.02.11 16:40:18,31.0,25.0,-32.34,-11.7,-30.66,0.047885496,0.32083282,9.70639,0.006018244,-0.011308338,0.016015666,-0.033041343092918396,-0.004933358635753393,1.8910374641418457,1016.42847,
2021.02.11 16:40:18,31.0,25.0,-32.399998,-12.0,-30.48,0.11253092,0.2657645,9.632168,0.021289876,-0.0058105504,0.024567777,-0.027582470327615738,-0.011682292446494102,1.9055192470550537,1016.42847,
2021.02.11 16:40:18,31.0,25.0,-32.219997,-12.24,-30.179998,-0.043096945,0.35914123,10.048771,-0.0043664644,-0.007032281,0.034952488,-0.03572428598999977,0.004288751166313887,1.9029755592346191,1016.42163,
2021.02.11 16:40:18,31.0,25.0,-32.28,-12.24,-30.42,0.22985038,0.35914123,9.538791,0.0035747832,-0.008864877,0.045337196,-0.03762191906571388,-0.024091724306344986,1.9080357551574707,1016.42163,
2021.02.11 16:40:18,31.0,25.0,-32.04,-12.059999,-29.939999,0.37111259,0.37590113,9.615408,5.204572E-4,0.012515408,0.039228547,-0.039044685661792755,-0.03857646510004997,1.9084299802780151,1016.4197,
2021.02.11 16:40:18,31.0,25.0,-32.16,-11.759999,-30.119999,0.12929083,0.3902668,9.747093,-0.00497733,0.002130698,-0.019414518,-0.04001440852880478,-0.013263775035738945,1.890925645828247,1016.4175,
2021.02.11 16:40:18,31.0,25.0,-32.28,-11.639999,-30.24,0.019154198,0.31125572,9.560339,0.012737762,-0.0015344934,-0.024912305,-0.03254541754722595,-0.0020035034976899624,1.8899734020233154,1016.4175,
2021.02.11 16:40:18,31.0,25.0,-31.98,-11.28,-30.179998,0.03351985,0.22985038,9.895537,-0.010475118,-0.008254011,-0.004142888,-0.02322337217628956,-0.0033873573411256075,1.8910714387893677,1016.407,
2021.02.11 16:40:18,31.0,25.0,-31.92,-11.28,-30.72,0.1987248,0.42378664,9.61062,0.009683436,0.0015198328,0.01418307,-0.04405771195888519,-0.020674681290984154,1.876965045928955,1016.407,
2021.02.11 16:40:18,31.0,25.0,-31.8,-11.28,-30.9,0.1699935,0.339987,9.79019,-0.0068099257,-0.006421415,-0.014527597,-0.034708134829998016,-0.01736191287636757,1.8856892585754395,1016.3992,
2021.02.11 16:40:18,31.0,25.0,-31.56,-11.099999,-31.08,0.06943397,0.35674694,9.794978,0.005407379,-0.0021453588,-0.02063625,-0.036404404789209366,-0.0070886132307350636,1.8783235549926758,1016.4075,
2021.02.11 16:40:18,31.0,25.0,-32.34,-11.4,-30.9,0.11971374,0.409421,9.536397,0.02312247,-9.236283E-4,-0.015138462,-0.042902734130620956,-0.012552691623568535,1.8754671812057495,1016.4075,
2021.02.11 16:40:18,31.0,25.0,-32.76,-11.34,-30.779999,0.17238778,0.38787252,9.792584,5.204572E-4,-0.040019006,-0.027355768,-0.03958198055624962,-0.017602093517780304,1.8743559122085571,1016.406,
2021.02.11 16:40:18,31.0,25.0,-32.94,-11.4,-31.019999,0.16520496,0.3974496,9.747093,-7.012733E-4,-0.018638719,-0.042627398,-0.04074779897928238,-0.01694752834737301,1.8730158805847168,1016.406,
2021.02.11 16:40:18,31.0,25.0,-33.48,-11.7,-31.14,0.06464542,0.32083282,9.629773,0.0011313224,-0.013751798,-0.04751432,-0.03330369293689728,-0.006712976843118668,1.8805729150772095,1016.41797,
2021.02.11 16:40:18,31.0,25.0,-33.239998,-11.639999,-31.199999,0.105348095,0.37111259,9.61062,0.009072571,-0.015584394,-0.02185798,-0.0385933555662632,-0.010961195454001427,1.8773748874664307,1016.416,
2021.02.11 16:40:19,31.0,25.0,-33.3,-11.88,-31.019999,0.12929083,0.40463245,9.687236,-0.0031447343,-0.0039779544,-0.021247115,-0.04174167290329933,-0.013345722109079361,1.8814421892166138,1016.416,
2021.02.11 16:40:19,31.0,25.0,-33.42,-11.88,-30.9,0.17957062,0.39266106,9.454991,-0.0061990605,-0.011919203,-0.021247115,-0.041498176753520966,-0.018989866599440575,1.8820747137069702,1016.4114,
2021.02.11 16:40:19,31.0,25.0,-33.84,-12.0,-31.08,0.045491222,0.22985038,9.835681,-0.012918578,-0.023525642,-0.027355768,-0.023364532738924026,-0.0046250890009105206,1.8934816122055054,1016.4114,
2021.02.11 16:40:19,31.0,25.0,-33.6,-11.82,-30.96,0.19154198,0.37590113,9.534002,0.006018244,0.004574159,0.0031874948,-0.03939906880259514,-0.020087704062461853,1.8808892965316772,1016.42456,
2021.02.11 16:40:19,31.0,25.0,-33.6,-11.639999,-30.779999,0.09577099,0.29210153,9.742304,-0.024525018,0.008850216,-0.010862405,-0.029972372576594353,-0.009830108843743801,1.8818023204803467,1016.4236,
2021.02.11 16:40:19,31.0,25.0,-33.66,-11.88,-30.66,0.14365649,0.31365,9.663293,-0.0074207913,-0.0015344934,0.0025766296,-0.032442908734083176,-0.014865110628306866,1.8870137929916382,1016.4236,
2021.02.11 16:40:19,31.0,25.0,-33.18,-12.059999,-30.3,0.12210801,0.3040729,9.737515,-0.012307713,9.089675E-4,7.440339E-4,-0.03121435083448887,-0.01253929827362299,1.8970154523849487,1016.4331,
2021.02.11 16:40:19,31.0,25.0,-33.36,-12.0,-31.019999,0.08619389,0.3040729,9.5794935,-0.0037555995,0.0064067547,-0.008418945,-0.03173012658953667,-0.008997507393360138,1.8918354511260986,1016.4331,
2021.02.11 16:40:19,31.0,25.0,-32.94,-12.0,-31.019999,0.105348095,0.2466103,9.909904,-0.023914153,0.0033524283,-0.015749328,-0.024878695607185364,-0.010630186647176743,1.9020795822143555,1016.42285,
2021.02.11 16:40:19,31.0,25.0,-32.76,-12.059999,-31.439999,0.28252444,0.37590113,9.687236,0.009072571,-0.0015344934,0.01418307,-0.03876783326268196,-0.029156344011425972,1.8977980613708496,1016.4209,
2021.02.11 16:40:19,31.0,25.0,-32.88,-11.7,-31.8,0.13647367,0.32083282,9.624985,0.0017421878,-0.0045888196,-0.008418945,-0.033317647874355316,-0.014178154990077019,1.8872686624526978,1016.4209,
2021.02.11 16:40:19,31.0,25.0,-32.82,-12.059999,-31.8,0.06943397,0.18435916,9.620196,0.011516031,0.0027415634,-0.013305867,-0.019160917028784752,-0.007217395585030317,1.9084988832473755,1016.4209,
2021.02.11 16:40:19,31.0,25.0,-33.239998,-12.0,-31.74,0.18675344,0.34956414,9.596253,0.021900741,0.010682812,0.011128743,-0.03640415892004967,-0.019458621740341187,1.8909310102462769,1016.4209,
2021.02.11 16:40:19,31.0,25.0,-33.239998,-12.0,-32.04,0.15083931,0.31365,9.725544,-0.008031656,-0.0021453588,-0.004142888,-0.032235074788331985,-0.015508358366787434,1.8934153318405151,1016.4187,
2021.02.11 16:40:19,31.0,25.0,-33.3,-12.36,-31.619999,0.10774237,0.339987,9.593859,0.013959493,-0.0039779544,0.0019657644,-0.03542092815041542,-0.01122987549751997,1.8990446329116821,1016.4231,
2021.02.11 16:40:19,31.0,25.0,-33.36,-12.3,-31.5,0.0670397,0.29210153,9.725544,-0.010475118,-0.0021453588,-0.004142888,-0.030024727806448936,-0.006893047597259283,1.9005249738693237,1016.4231,
2021.02.11 16:40:20,31.0,25.0,-33.36,-12.42,-31.619999,0.11492519,0.30167863,9.641745,-0.0025338691,-3.12763E-4,0.0050200904,-0.03127637505531311,-0.01191897876560688,1.9039416313171387,1016.42163,
2021.02.11 16:40:20,31.0,25.0,-33.78,-12.48,-31.199999,0.090982445,0.33759275,9.771035,-0.0178055,-0.0045888196,0.011128743,-0.03453512489795685,-0.009311174042522907,1.8984955549240112,1016.42163,
2021.02.11 16:40:20,31.0,25.0,-33.36,-12.3,-31.019999,0.19393626,0.29689008,9.557945,-0.0043664644,-0.006421415,0.012350474,-0.03104575164616108,-0.02028779685497284,1.9035736322402954,1016.42334,
2021.02.11 16:40:20,31.0,25.0,-33.3,-12.24,-31.019999,0.11253092,0.31365,9.811738,-0.025135884,-3.12763E-4,0.0056309556,-0.031953830271959305,-0.01146850734949112,1.8993583917617798,1016.4297,
2021.02.11 16:40:20,31.0,25.0,-33.12,-11.88,-30.96,0.18435916,0.34716985,9.6585045,5.204572E-4,-0.005199685,0.00379836,-0.035922467708587646,-0.019085437059402466,1.8896905183792114,1016.4297,
2021.02.11 16:40:20,31.0,25.0,-32.82,-11.88,-30.9,0.12689656,0.31604427,9.63935,0.0041856486,-0.012530067,-0.0023102923,-0.032772310078144073,-0.013163670897483826,1.8937571048736572,1016.4265,
2021.02.11 16:40:20,31.0,25.0,-32.88,-11.82,-31.56,0.11971374,0.2753416,9.75667,-0.0061990605,-0.006421415,-0.004142888,-0.02821124717593193,-0.012269321829080582,1.8948622941970825,1016.4265,
2021.02.11 16:40:20,31.0,25.0,-33.239998,-11.7,-31.199999,0.16759923,0.37350687,9.596253,0.008461705,9.089675E-4,0.0025766296,-0.038896594196558,-0.01746329478919506,1.880351185798645,1016.4214,
2021.02.11 16:40:20,31.0,25.0,-33.3,-12.0,-31.019999,0.11492519,0.2681588,9.656111,0.007239975,0.002130698,-0.006586349,-0.0277617909014225,-0.01190124824643135,1.8965651988983154,1016.42236,
2021.02.11 16:40:20,31.0,25.0,-33.18,-12.0,-31.199999,0.083799616,0.31843856,9.675264,0.004796514,0.0015198328,-4.7769662E-4,-0.032899536192417145,-0.008661005645990372,1.8922268152236938,1016.42236,
2021.02.11 16:40:20,31.0,25.0,-33.3,-12.059999,-30.72,0.11492519,0.28731298,9.663293,-0.0061990605,0.011293677,0.0074635516,-0.02972155250608921,-0.011892403475940228,1.8967119455337524,1016.4238,
2021.02.11 16:40:20,31.0,25.0,-33.3,-12.179999,-31.08,0.1699935,0.3423813,9.598648,-0.0055881953,0.002130698,0.009907013,-0.03564903885126114,-0.017708299681544304,1.8960846662521362,1016.4238,
2021.02.11 16:40:20,31.0,25.0,-33.3,-12.179999,-31.56,0.11492519,0.3232271,9.72315,-0.0061990605,-0.0021453588,0.0044092257,-0.03322848305106163,-0.011819197796285152,1.8962839841842651,1016.4238,
2021.02.11 16:40:20,31.0,25.0,-33.54,-12.12,-31.38,0.12689656,0.28252444,9.692024,-0.00497733,0.00823935,0.0044092257,-0.029139449819922447,-0.013092136941850185,1.8965020179748535,1016.42847,
2021.02.11 16:40:20,31.0,25.0,-33.66,-12.12,-31.439999,0.18435916,0.33759275,9.701602,-7.012733E-4,-9.236283E-4,0.009907013,-0.03477732092142105,-0.019000673666596413,1.8919639587402344,1016.42847,
2021.02.11 16:40:20,31.0,25.0,-33.54,-12.059999,-31.38,0.11492519,0.32801566,9.61062,-0.0013121385,0.0064067547,7.440339E-4,-0.034114859998226166,-0.01195757556706667,1.8902366161346436,1016.428,
2021.02.11 16:40:20,31.0,25.0,-33.6,-12.12,-31.32,0.028731298,0.26337022,9.732727,-9.040806E-5,-0.006421415,-0.01025154,-0.027053551748394966,-0.002952020848169923,1.8951376676559448,1016.428,
2021.02.11 16:40:21,31.0,25.0,-33.719997,-11.88,-31.199999,0.12450229,0.2944958,9.61062,0.010905167,0.009461081,0.0013548991,-0.03063059411942959,-0.012953933328390121,1.887168288230896,1016.4241,
2021.02.11 16:40:21,31.0,25.0,-33.66,-11.58,-31.32,0.08858817,0.3040729,9.794978,-0.011085982,-0.0045888196,-0.0023102923,-0.031032517552375793,-0.009043997153639793,1.878136157989502,1016.42163,
2021.02.11 16:40:21,31.0,25.0,-33.66,-11.58,-30.9,0.16520496,0.37590113,9.419077,0.005407379,-0.0015344934,1.3316862E-4,-0.03988119587302208,-0.01753760129213333,1.8727909326553345,1016.42163,
2021.02.11 16:40:21,31.0,25.0,-33.66,-11.4,-30.48,0.06464542,0.2753416,9.751882,-0.013529444,-9.236283E-4,-0.009640676,-0.028226595371961594,-0.006628922652453184,1.8756831884384155,1016.4236,
2021.02.11 16:40:21,31.0,25.0,-33.239998,-11.4,-30.84,0.07901107,0.3328042,9.500483,-0.0013121385,0.0015198328,-4.7769662E-4,-0.03501471132040024,-0.0083163408562541,1.8735913038253784,1016.4236,
2021.02.11 16:40:21,31.0,25.0,-33.3,-11.759999,-30.539999,0.014365649,0.22506183,9.768641,-0.020859826,-0.002756224,-0.0023102923,-0.023035116493701935,-0.0014705870999023318,1.8916617631912231,1016.4287,
2021.02.11 16:40:21,31.0,25.0,-33.12,-11.46,-30.96,0.12929083,0.4070267,9.510059,-0.008031656,-0.006421415,0.011739608,-0.04276954382658005,-0.013594328425824642,1.8705888986587524,1016.4302,
2021.02.11 16:40:21,31.0,25.0,-32.88,-11.58,-31.38,0.105348095,0.28252444,9.718362,-0.011696848,-0.0015344934,0.0025766296,-0.02906130626797676,-0.010839683935046196,1.8871995210647583,1016.4302,
2021.02.11 16:40:21,31.0,25.0,-32.94,-11.58,-31.14,0.098165266,0.29210153,9.627379,0.007239975,-0.0045888196,0.0019657644,-0.030329829081892967,-0.010196114890277386,1.8855398893356323,1016.4282,
2021.02.11 16:40:21,31.0,25.0,-32.94,-11.34,-31.38,0.102953814,0.3232271,9.73991,-0.0037555995,-9.236283E-4,0.00379836,-0.03317181393504143,-0.010569910518825054,1.8762497901916504,1016.4282,
2021.02.11 16:40:21,31.0,25.0,-33.0,-11.58,-31.08,0.11013664,0.30886146,9.591465,0.006018244,0.0064067547,0.009907013,-0.03218845650553703,-0.011482271365821362,1.883734107017517,1016.42236,
2021.02.11 16:40:21,31.0,25.0,-33.239998,-11.5199995,-30.96,0.102953814,0.31843856,9.730332,-0.0043664644,-3.12763E-4,0.0019657644,-0.032712873071432114,-0.010580314323306084,1.87935209274292,1016.42285,
2021.02.11 16:40:21,31.0,25.0,-33.42,-11.7,-30.72,0.057462595,0.29928434,9.586677,-0.0031447343,-0.0045888196,-0.0016994271,-0.031208083033561707,-0.005993933882564306,1.8830689191818237,1016.42285,
2021.02.11 16:40:21,31.0,25.0,-33.6,-11.58,-30.72,0.06943397,0.31365,9.61062,0.005407379,-0.002756224,7.440339E-4,-0.03262334316968918,-0.007224588189274073,1.8773226737976074,1016.4324,
2021.02.11 16:40:21,31.0,25.0,-33.36,-11.639999,-30.9,0.09337672,0.34716985,9.60583,-0.0043664644,-9.236283E-4,-4.7769662E-4,-0.03612414747476578,-0.009720532223582268,1.8784722089767456,1016.4324,
2021.02.11 16:40:21,31.0,25.0,-33.12,-11.7,-30.84,0.102953814,0.28252444,9.766247,0.004796514,9.089675E-4,-0.005975484,-0.02891898900270462,-0.010541409254074097,1.8887630701065063,1016.4292,
2021.02.11 16:40:21,31.0,25.0,-33.12,-12.059999,-31.14,0.11492519,0.36392978,9.624985,0.010294301,0.004574159,-0.010862405,-0.03779025003314018,-0.011939730495214462,1.8910274505615234,1016.427,
2021.02.11 16:40:22,31.0,25.0,-33.12,-12.36,-31.26,0.05506832,0.33759275,9.61062,0.042059295,0.047334723,-0.02307971,-0.03511204198002815,-0.005729882046580315,1.899857997894287,1016.427,
2021.02.11 16:40:22,31.0,25.0,-33.12,-12.059999,-31.14,0.05985687,0.40223816,9.182044,0.095815435,0.01862406,-0.026744902,-0.04377812147140503,-0.006518812384456396,1.8844349384307861,1016.427,
2021.02.11 16:40:22,31.0,25.0,-33.059998,-12.36,-31.14,0.05506832,0.50998056,9.766247,0.00662911,0.013737137,-0.046903454,-0.05217047035694122,-0.00563857750967145,1.885643482208252,1016.427,
2021.02.11 16:40:22,31.0,25.0,-33.239998,-12.24,-31.26,-0.14126222,0.26097596,9.668081,0.042670157,-0.0039779544,-0.062175088,-0.02698412910103798,0.01461015548557043,1.897194504737854,1016.4341,
2021.02.11 16:40:22,31.0,25.0,-33.059998,-12.3,-31.5,0.19633053,0.505192,9.512454,0.03778324,0.011904542,0.00379836,-0.053047358989715576,-0.020636385306715965,1.8863036632537842,1016.4402,
2021.02.11 16:40:22,31.0,25.0,-33.3,-12.78,-31.26,0.11492519,0.4956149,9.596253,-0.012918578,0.016791465,-0.023690576,-0.05159716308116913,-0.011975475586950779,1.8968026638031006,1016.4402,
2021.02.11 16:40:22,31.0,25.0,-33.48,-12.719999,-31.199999,0.071828246,0.46209505,9.835681,-0.011696848,0.0161806,-0.037740476,-0.0469457246363163,-0.007302694022655487,1.8965102434158325,1016.4331,
2021.02.11 16:40:22,31.0,25.0,-33.239998,-13.08,-31.08,0.23942748,0.36871833,10.68086,-0.057511743,-0.10232726,-0.02063625,-0.03449904918670654,-0.022412745282053947,1.9234660863876343,1016.4331,
2021.02.11 16:40:22,31.0,25.0,-33.3,-13.2,-31.14,-0.11971374,0.45251793,9.703996,-0.0074207913,0.018013194,-0.020025386,-0.04659482464194298,0.012335914187133312,1.906569480895996,1016.4287,
