Time,X-cord,Y-cord,Mag_x,Mag_y,Mag_z,Acc_x,Acc_y,Acc_z,Gyro_x,Gyro_y,Gyro_z,Orn_x,Orn_y,Orn_z,Pressure,
2021.02.11 16:44:02,10.0,24.0,-33.059998,-16.56,-33.54,-0.339987,0.37590113,9.06233,0.06466131,0.12796894,-0.029188365,-0.0414266511797905,0.037498921155929565,1.988221526145935,1016.43506,
2021.02.11 16:44:02,10.0,24.0,-33.3,-16.14,-33.36,-0.38547826,0.16759923,9.277815,-0.13325903,-0.07667092,-0.0071972143,-0.01804698444902897,0.041524503380060196,1.9928233623504639,1016.4365,
2021.02.11 16:44:02,10.0,24.0,-34.02,-16.199999,-33.6,-0.17717634,0.30646718,9.926663,-0.092941925,-0.0858339,0.0056309556,-0.030858416110277176,0.01784663274884224,1.9839532375335693,1016.4365,
2021.02.11 16:44:02,10.0,24.0,-34.14,-16.14,-33.239998,0.0023942748,0.31843856,9.775824,-0.03979665,-0.0699514,-0.0071972143,-0.032562579959630966,-2.449179592076689E-4,1.986063003540039,1016.447,
2021.02.11 16:44:02,10.0,24.0,-34.5,-16.08,-33.36,-0.05027977,0.20590763,9.62259,-0.021470692,-0.054068904,-0.031631824,-0.021394798532128334,0.005225133150815964,1.9879584312438965,1016.4414,
2021.02.11 16:44:02,10.0,24.0,-34.14,-15.78,-33.48,-0.14126222,0.16759923,9.581888,-0.0068099257,-0.008254011,-0.051179513,-0.01748756878077984,0.014741560444235802,1.984428882598877,1016.4414,
2021.02.11 16:44:02,10.0,24.0,-33.6,-15.48,-33.239998,-0.31843856,0.117319465,10.015251,-0.039185785,-0.0045888196,-0.05179038,-0.011707630008459091,0.03178465738892555,1.9819402694702148,1016.4429,
2021.02.11 16:44:02,10.0,24.0,-33.84,-15.719999,-33.36,0.09337672,0.4932206,9.517242,0.0121268965,-0.002756224,0.0050200904,-0.051775090396404266,-0.009811005555093288,1.965395212173462,1016.4429,
2021.02.11 16:44:02,10.0,24.0,-33.66,-15.9,-33.18,-0.16520496,0.21787901,9.754275,5.204572E-4,-0.036964677,-0.030410094,-0.02232985571026802,0.01693505235016346,1.9880549907684326,1016.4387,
2021.02.11 16:44:02,10.0,24.0,-33.48,-16.14,-32.88,-0.24421602,0.31125572,9.862018,0.024955066,-0.023525642,0.0056309556,-0.031540922820568085,0.02475823275744915,1.9861997365951538,1016.43945,
2021.02.11 16:44:02,10.0,24.0,-34.14,-16.38,-33.12,0.0023942748,0.3615355,9.531608,0.042059295,0.003963294,0.03311989,-0.03791199252009392,-2.511931525077671E-4,1.9876233339309692,1016.43945,
2021.02.11 16:44:02,10.0,24.0,-34.2,-16.26,-33.059998,0.076616794,0.19154198,9.593859,0.021900741,-0.008864877,0.026400374,-0.019961774349212646,-0.007985854521393776,2.0014822483062744,1016.4431,
2021.02.11 16:44:02,10.0,24.0,-34.38,-16.26,-32.94,0.09337672,0.35674694,9.665688,-0.0031447343,-0.007032281,0.012350474,-0.03689013049006462,-0.00966033898293972,1.9861730337142944,1016.4431,
2021.02.11 16:44:03,10.0,24.0,-35.1,-16.199999,-33.239998,0.05027977,0.42139238,9.665688,0.008461705,-0.010086607,-0.0023102923,-0.043568555265665054,-0.00520183565095067,1.9698777198791504,1016.44165,
2021.02.11 16:44:03,10.0,24.0,-34.62,-15.96,-33.42,0.083799616,0.25858167,9.794978,0.015181223,-0.014973529,-0.004142888,-0.026392316445708275,-0.00855515617877245,1.9842848777770996,1016.4407,
2021.02.11 16:44:03,10.0,24.0,-34.62,-15.9,-33.36,0.11492519,0.29928434,9.591465,0.03717237,-0.009475742,-4.7769662E-4,-0.031190836802124977,-0.011981452815234661,1.9799827337265015,1016.4407,
2021.02.11 16:44:03,10.0,24.0,-34.32,-16.02,-33.3,0.014365649,0.39505535,9.165284,0.022511607,0.014958868,-0.009640676,-0.04307673126459122,-0.0015673968009650707,1.9727908372879028,1016.4431,
2021.02.11 16:44:03,10.0,24.0,-33.6,-16.44,-32.82,-0.20111908,0.3423813,10.08708,-0.02024896,-0.0039779544,-0.0016994271,-0.033922791481018066,0.019935645163059235,1.991923451423645,1016.4431,
2021.02.11 16:44:03,10.0,24.0,-33.899998,-16.56,-32.399998,0.083799616,0.43575802,10.010463,0.04755708,-0.009475742,0.042893734,-0.043501272797584534,-0.00837100762873888,1.9934184551239014,1016.43994,
2021.02.11 16:44:03,10.0,24.0,-33.899998,-16.619999,-32.7,0.052674048,0.30167863,9.244295,0.082376406,-0.0058105504,0.039228547,-0.032621923834085464,-0.005697944201529026,2.002676248550415,1016.43994,
2021.02.11 16:44:03,10.0,24.0,-33.84,-16.98,-32.399998,-0.08619389,0.4189981,9.58907,0.034118045,-0.012530067,0.036174215,-0.043665844947099686,0.008988521061837673,1.9986191987991333,1016.43994,
2021.02.11 16:44:03,10.0,24.0,-34.079998,-16.619999,-32.76,-0.05506832,0.4740664,9.783007,0.019457279,-0.009475742,0.06671748,-0.048419512808322906,0.005628917831927538,1.9840341806411743,1016.43994,
2021.02.11 16:44:03,10.0,24.0,-33.899998,-16.56,-32.76,-0.0047885496,0.52913475,9.569917,0.03228545,-0.007032281,0.09237382,-0.05523522198200226,5.003752303309739E-4,1.9804484844207764,1016.43994,
2021.02.11 16:44:03,10.0,24.0,-34.26,-16.44,-32.64,0.09577099,0.4932206,9.385557,0.017013818,-0.006421415,0.0978716,-0.05249999091029167,-0.010203727521002293,1.9793411493301392,1016.4407,
2021.02.11 16:44:03,10.0,24.0,-34.26,-16.32,-32.94,0.25139886,0.50040346,9.8787775,-0.0037555995,0.002130698,0.06855008,-0.05059478059411049,-0.025442887097597122,1.982513666152954,1016.4375,
2021.02.11 16:44:03,10.0,24.0,-34.32,-16.26,-32.52,0.2849187,0.6560313,9.703996,0.017624684,-0.007032281,0.050834984,-0.06747254729270935,-0.02935253269970417,1.9673062562942505,1016.4375,
2021.02.11 16:44:03,10.0,24.0,-34.02,-16.02,-32.46,0.07422252,0.4932206,9.514848,-0.0019230038,-0.0021453588,0.0031874948,-0.05178901180624962,-0.00780054647475481,1.9715142250061035,1016.42896,
2021.02.11 16:44:03,10.0,24.0,-33.66,-15.78,-32.52,0.18675344,0.53871185,9.759064,-0.0178055,9.089675E-4,0.0056309556,-0.05513513833284378,-0.019134074449539185,1.9698513746261597,1016.42896,
2021.02.11 16:44:03,10.0,24.0,-33.899998,-15.48,-32.399998,0.09337672,0.5363176,9.550762,-0.013529444,0.007628485,-4.7769662E-4,-0.056092843413352966,-0.009776574559509754,1.9561208486557007,1016.4346,
2021.02.11 16:44:03,10.0,24.0,-33.66,-15.719999,-32.7,0.045491222,0.45970076,10.149331,-0.036742322,-0.032077756,-0.012084136,-0.04526231065392494,-0.00448215939104557,1.9720209836959839,1016.4365,
2021.02.11 16:44:04,10.0,24.0,-34.079998,-15.9,-32.64,0.083799616,0.48843205,9.613013,0.014570358,0.013126272,0.017237397,-0.05076387897133827,-0.008717088960111141,1.9687947034835815,1016.4365,
2021.02.11 16:44:04,10.0,24.0,-34.2,-16.02,-32.82,0.2370332,0.4932206,9.63935,-9.040806E-5,0.021678386,-0.0010885618,-0.05110740289092064,-0.024585209786891937,1.9750068187713623,1016.43286,
2021.02.11 16:44:04,10.0,24.0,-34.44,-16.08,-33.0,0.17717634,0.5698374,9.63935,-0.0068099257,0.010682812,-0.059120763,-0.05903708189725876,-0.01837845891714096,1.9649070501327515,1016.43286,
2021.02.11 16:44:04,10.0,24.0,-34.98,-16.38,-32.94,-0.14844504,0.4764607,9.725544,0.009683436,0.003963294,-0.062175088,-0.04894581809639931,0.015262232162058353,1.9654022455215454,1016.4297,
2021.02.11 16:44:04,10.0,24.0,-35.28,-16.56,-32.82,-0.071828246,0.4932206,9.531608,0.024344202,0.0057958895,-0.012084136,-0.05169821158051491,0.007535652723163366,1.9668591022491455,1016.42285,
2021.02.11 16:44:04,10.0,24.0,-35.28,-16.619999,-32.7,-0.045491222,0.4932206,9.742304,-0.0013121385,2.9810224E-4,-0.011473271,-0.05058295652270317,0.004669418558478355,1.9701544046401978,1016.42285,
2021.02.11 16:44:04,10.0,24.0,-34.98,-16.56,-32.82,0.08858817,0.6201172,9.58907,0.035950642,0.018013194,0.016015666,-0.06457649171352386,-0.009238189086318016,1.9640812873840332,1016.4126,
2021.02.11 16:44:04,10.0,24.0,-34.44,-16.38,-33.0,-0.0071828244,0.4932206,9.438231,0.021289876,0.013126272,0.0013548991,-0.05221022665500641,7.610348402522504E-4,1.9724020957946777,1016.4126,
2021.02.11 16:44:04,10.0,24.0,-33.96,-16.32,-33.18,0.0023942748,0.56744313,9.720756,-0.0055881953,0.003963294,0.023956914,-0.05830821767449379,-2.463053970132023E-4,1.970886468887329,1016.4219,
2021.02.11 16:44:04,10.0,24.0,-33.66,-16.38,-33.12,-0.076616794,0.5411061,9.828498,-0.009864252,-0.0015344934,0.01662653,-0.05499761551618576,0.007795213721692562,1.9760165214538574,1016.4363,
2021.02.11 16:44:04,10.0,24.0,-33.78,-16.5,-32.82,0.062251143,0.6057515,9.577099,0.015181223,0.00701762,0.038006812,-0.06316452473402023,-0.006499908398836851,1.9755921363830566,1016.4363,
2021.02.11 16:44:04,10.0,24.0,-33.899998,-16.14,-32.76,0.05506832,0.5458947,9.620196,5.204572E-4,-0.0015344934,0.02823297,-0.05668293312191963,-0.005724178161472082,1.9706454277038574,1016.4353,
2021.02.11 16:44:04,10.0,24.0,-33.899998,-15.9,-32.64,-0.028731298,0.5123748,9.703996,-0.0031447343,-9.236283E-4,0.028843835,-0.05275117978453636,0.0029607610777020454,1.9655117988586426,1016.4353,
2021.02.11 16:44:04,10.0,24.0,-33.96,-15.839999,-32.7,0.08619389,0.5961744,9.603436,0.00662911,-0.0033670892,0.038006812,-0.06199722737073898,-0.008975076489150524,1.9589279890060425,1016.4353,
2021.02.11 16:44:04,10.0,24.0,-33.78,-15.719999,-32.64,0.083799616,0.5363176,9.703996,-0.011085982,-0.007032281,0.009907013,-0.055209480226039886,-0.008635363541543484,1.9635981321334839,1016.43994,
2021.02.11 16:44:04,10.0,24.0,-33.96,-15.719999,-32.64,0.043096945,0.5865973,9.603436,0.0041856486,-0.015584394,0.0105178775,-0.0610056146979332,-0.004487628582865,1.9555333852767944,1016.43994,
2021.02.11 16:44:04,10.0,24.0,-33.899998,-16.02,-32.46,0.0023942748,0.50758624,9.75667,-0.011085982,-0.016806124,7.440339E-4,-0.05197767913341522,-2.453987835906446E-4,1.9703501462936401,1016.4365,
2021.02.11 16:44:05,10.0,24.0,-34.079998,-16.02,-32.46,0.14844504,0.58420306,9.565128,0.007239975,-0.007643146,0.009907013,-0.060993243008852005,-0.015518153086304665,1.9653637409210205,1016.4365,
2021.02.11 16:44:05,10.0,24.0,-34.02,-15.96,-32.52,0.08858817,0.54828894,9.608225,-0.012918578,-9.236283E-4,-0.023690576,-0.057000305503606796,-0.009219774045050144,1.9659454822540283,1016.44556,
2021.02.11 16:44:05,10.0,24.0,-33.6,-16.5,-32.7,0.035914123,0.55307746,9.6585045,-0.0037555995,-0.0045888196,-0.026134036,-0.05720040202140808,-0.003718376625329256,1.9819462299346924,1016.43994,
2021.02.11 16:44:05,10.0,24.0,-34.079998,-16.32,-32.7,-0.0071828244,0.48124924,9.725544,-0.0025338691,-0.01741699,-0.029799229,-0.049442678689956665,7.385523058474064E-4,1.977399230003357,1016.43994,
2021.02.11 16:44:05,10.0,24.0,-34.079998,-16.08,-32.46,0.052674048,0.5794145,9.60583,0.009072571,-0.0058105504,-0.014527597,-0.06024514511227608,-0.005483494605869055,1.9645718336105347,1016.4387,
2021.02.11 16:44:05,10.0,24.0,-34.559998,-16.32,-32.579998,0.05506832,0.54828894,9.63935,0.015792089,-0.012530067,-0.009640676,-0.05681813508272171,-0.005712804850190878,1.968314290046692,1016.4387,
2021.02.11 16:44:05,10.0,24.0,-35.16,-16.02,-32.579998,0.021548472,0.5411061,9.682447,0.012737762,-0.008864877,-0.012084136,-0.055827051401138306,-0.0022255154326558113,1.9546841382980347,1016.43506,
2021.02.11 16:44:05,10.0,24.0,-34.98,-15.839999,-32.76,0.016759925,0.5554718,9.617802,0.010905167,-0.007032281,-4.7769662E-4,-0.057690370827913284,-0.0017425923142582178,1.9501198530197144,1016.43823,
2021.02.11 16:44:05,10.0,24.0,-34.86,-16.199999,-32.579998,0.052674048,0.57462597,9.7135725,0.0017421878,0.00701762,0.0068526864,-0.05908728763461113,-0.005422673188149929,1.9603055715560913,1016.43823,
2021.02.11 16:44:05,10.0,24.0,-34.44,-15.78,-32.76,0.052674048,0.5506832,9.543579,-0.0068099257,2.9810224E-4,0.009296147,-0.05763716623187065,-0.005519261583685875,1.9551281929016113,1016.4314,
2021.02.11 16:44:05,10.0,24.0,-34.44,-15.96,-32.579998,0.05506832,0.6105401,9.883567,0.0041856486,-0.0039779544,0.01784826,-0.06169390305876732,-0.005571647547185421,1.9564744234085083,1016.4314,
2021.02.11 16:44:05,10.0,24.0,-34.44,-16.32,-32.64,0.1699935,0.55786604,9.634562,0.009683436,0.0064067547,0.009296147,-0.057829029858112335,-0.017642304301261902,1.9722018241882324,1016.4319,
2021.02.11 16:44:05,10.0,24.0,-34.5,-16.08,-32.579998,-0.0071828244,0.50998056,9.61062,-0.022081556,0.0051850243,0.0013548991,-0.05301453918218613,7.47384037822485E-4,1.9642843008041382,1016.4353,
2021.02.11 16:44:05,10.0,24.0,-34.739998,-16.32,-32.28,-0.07422252,0.61293435,9.881172,0.0011313224,-9.236283E-4,0.019069992,-0.061949409544467926,0.007511368487030268,1.9590134620666504,1016.4353,
2021.02.11 16:44:05,10.0,24.0,-34.92,-16.5,-32.34,0.023942748,0.5889916,9.653716,0.005407379,-0.005199685,0.01418307,-0.060936182737350464,-0.0024801534600555897,1.9650521278381348,1016.4243,
2021.02.11 16:44:05,10.0,24.0,-34.62,-16.619999,-31.98,0.14126222,0.65124273,9.47654,-0.0043664644,0.0027415634,0.01662653,-0.06860610097646713,-0.014905414544045925,1.968794822692871,1016.4243,
2021.02.11 16:44:06,10.0,24.0,-34.68,-16.8,-31.98,-0.04070267,0.5123748,9.73991,-0.010475118,0.004574159,-0.0010885618,-0.05255679786205292,0.004178933333605528,1.9801552295684814,1016.42334,
2021.02.11 16:44:06,10.0,24.0,-34.38,-16.619999,-32.219997,0.052674048,0.56265455,9.692024,-0.0055881953,-0.002756224,0.014793935,-0.05798741430044174,-0.005434729158878326,1.9770441055297852,1016.428,
2021.02.11 16:44:06,10.0,24.0,-34.26,-16.199999,-32.46,0.08858817,0.62251145,9.665688,5.204572E-4,-0.006421415,0.0044092257,-0.06431274116039276,-0.009164965711534023,1.963322639465332,1016.428,
2021.02.11 16:44:06,10.0,24.0,-34.62,-16.08,-32.579998,0.0670397,0.58420306,9.660899,0.0035747832,-0.005199685,-4.7769662E-4,-0.06039587780833244,-0.00693917041644454,1.9591107368469238,1016.4363,
2021.02.11 16:44:06,10.0,24.0,-34.559998,-15.9,-33.3,0.0023942748,0.51955765,9.692024,-0.010475118,-0.009475742,-0.003532023,-0.05355546250939369,-2.4703555391170084E-4,1.9581077098846436,1016.4363,
2021.02.11 16:44:06,10.0,24.0,-34.68,-16.02,-33.239998,0.045491222,0.6249057,9.708784,-9.040806E-5,-0.006421415,0.0025766296,-0.06427560746669769,-0.004685539286583662,1.9520992040634155,1016.4348,
2021.02.11 16:44:06,10.0,24.0,-34.559998,-16.199999,-32.94,0.04070267,0.5506832,9.591465,0.009072571,0.003963294,-0.012695001,-0.05735040083527565,-0.0042436090297997,1.9639837741851807,1016.42993,
2021.02.11 16:44:06,10.0,24.0,-34.559998,-16.32,-33.059998,-0.04070267,0.5411061,9.75667,-0.0031447343,-0.008254011,-0.011473271,-0.055402882397174835,0.004171754699200392,1.9659541845321655,1016.42993,
2021.02.11 16:44:06,10.0,24.0,-34.38,-16.26,-32.52,0.05027977,0.65363705,9.577099,0.017013818,-0.006421415,0.011128743,-0.06814339756965637,-0.005249951500445604,1.9591448307037354,1016.4231,
2021.02.11 16:44:06,10.0,24.0,-34.26,-16.44,-32.34,0.009577099,0.5147691,9.696813,0.004796514,2.9810224E-4,7.440339E-4,-0.053036611527204514,-9.87654086202383E-4,1.9764660596847534,1016.4231,
2021.02.11 16:44:06,10.0,24.0,-34.079998,-15.9,-32.46,0.045491222,0.6177229,9.5483675,-0.0019230038,0.0051850243,0.0068526864,-0.06460332125425339,-0.004764256998896599,1.9561423063278198,1016.4192,
2021.02.11 16:44:06,10.0,24.0,-33.719997,-15.48,-32.64,-0.011971374,0.5554718,9.737515,-0.00497733,-0.006421415,-0.0010885618,-0.05698271095752716,0.001229406800121069,1.9537080526351929,1016.42334,
2021.02.11 16:44:06,10.0,24.0,-33.899998,-15.48,-32.82,0.038308397,0.5913859,9.593859,-0.0031447343,-0.0021453588,0.0086852815,-0.06156374514102936,-0.003992991056293249,1.9491474628448486,1016.42334,
2021.02.11 16:44:06,10.0,24.0,-34.14,-15.299999,-32.94,0.06943397,0.65124273,9.636956,-0.0074207913,-0.0015344934,0.009296147,-0.06747329980134964,-0.007204844616353512,1.9376778602600098,1016.4282,
2021.02.11 16:44:06,10.0,24.0,-34.44,-15.839999,-32.94,0.0023942748,0.55307746,9.601042,0.00662911,0.0051850243,0.0019657644,-0.05754239112138748,-2.4937657872214913E-4,1.954957127571106,1016.4282,
2021.02.11 16:44:06,10.0,24.0,-34.68,-15.96,-32.94,0.019154198,0.59378016,9.63935,-0.0037555995,0.0027415634,0.0074635516,-0.0615217424929142,-0.0019870814867317677,1.952660083770752,1016.42505,
2021.02.11 16:44:06,10.0,24.0,-34.5,-15.96,-32.94,0.043096945,0.6081458,9.869201,-0.0074207913,-0.013140933,0.0050200904,-0.061542168259620667,-0.004366784356534481,1.955118179321289,1016.43384,
2021.02.11 16:44:07,10.0,24.0,-34.38,-16.02,-32.88,0.045491222,0.60335726,9.481328,0.008461705,0.00701762,0.0074635516,-0.0635499432682991,-0.004797942936420441,1.9563395977020264,1016.43384,
2021.02.11 16:44:07,10.0,24.0,-34.2,-16.08,-32.82,0.009577099,0.5865973,9.636956,-0.009253386,0.0051850243,0.0025766296,-0.06079452484846115,-9.937884751707315E-4,1.9610346555709839,1016.4397,
2021.02.11 16:44:07,10.0,24.0,-34.02,-16.38,-32.64,-0.0071828244,0.5961744,9.7135725,-0.0037555995,-9.236283E-4,0.0044092257,-0.061298489570617676,7.394625572487712E-4,1.9697396755218506,1016.4397,
2021.02.11 16:44:07,10.0,24.0,-34.2,-16.32,-32.399998,0.026337024,0.5650489,9.77343,5.204572E-4,-0.009475742,0.008074417,-0.05775030329823494,-0.0026947511360049248,1.9706681966781616,1016.4429,
2021.02.11 16:44:07,10.0,24.0,-34.559998,-16.5,-32.399998,0.076616794,0.6344828,9.63935,0.00662911,0.0033524283,0.014793935,-0.06572527438402176,-0.00794816855341196,1.9662379026412964,1016.43726,
2021.02.11 16:44:07,10.0,24.0,-34.86,-16.5,-32.579998,0.016759925,0.6057515,9.656111,0.0029639183,0.0051850243,0.0086852815,-0.06265026330947876,-0.0017356789903715253,1.9636914730072021,1016.43726,
2021.02.11 16:44:07,10.0,24.0,-35.16,-16.38,-32.46,0.05506832,0.5794145,9.692024,0.0029639183,-0.007032281,0.01784826,-0.059710580855607986,-0.005681757349520922,1.9614129066467285,1016.4375,
2021.02.11 16:44:07,10.0,24.0,-35.16,-16.5,-32.28,0.05985687,0.6895511,9.699207,0.004796514,-0.007032281,0.012961339,-0.07097279280424118,-0.006171237211674452,1.9554873704910278,1016.4375,
2021.02.11 16:44:07,10.0,24.0,-34.86,-16.56,-32.28,0.03351985,0.5818088,9.62259,0.00662911,0.00701762,7.440339E-4,-0.06038892641663551,-0.00348343956284225,1.9679458141326904,1016.43945,
2021.02.11 16:44:07,10.0,24.0,-34.5,-16.56,-31.8,0.035914123,0.6177229,9.596253,-0.0025338691,0.0015198328,0.013572204,-0.0642821192741394,-0.0037424976471811533,1.9692853689193726,1016.438,
2021.02.11 16:44:07,10.0,24.0,-34.38,-16.619999,-31.679998,0.117319465,0.65842557,9.574705,-0.012918578,-0.007643146,-0.0053646187,-0.06865396350622177,-0.012252449989318848,1.9710066318511963,1016.438,
2021.02.11 16:44:07,10.0,24.0,-34.2,-16.74,-32.04,0.011971374,0.5961744,9.763853,-0.012307713,-0.009475742,-0.0023102923,-0.06098358333110809,-0.0012260905932635069,1.978487491607666,1016.4302,
2021.02.11 16:44:07,10.0,24.0,-34.26,-16.38,-32.28,0.14365649,0.6751855,9.495694,0.0011313224,-0.002756224,-0.005975484,-0.07097681611776352,-0.015127439051866531,1.9641519784927368,1016.4302,
2021.02.11 16:44:07,10.0,24.0,-34.38,-16.5,-32.28,-0.057462595,0.5506832,9.761458,-0.009253386,-0.0033670892,-0.022468846,-0.05635331943631172,0.005886613391339779,1.9720569849014282,1016.4258,
2021.02.11 16:44:07,10.0,24.0,-34.26,-15.96,-32.88,0.0670397,0.6296943,9.562734,-0.010475118,-0.0039779544,-0.014527597,-0.06575223803520203,-0.007010401226580143,1.9547924995422363,1016.4304,
2021.02.11 16:44:07,10.0,24.0,-34.14,-15.96,-33.0,-0.014365649,0.5818088,9.751882,-0.015972905,-0.0058105504,-0.004142888,-0.05959048122167587,0.0014731145929545164,1.9586918354034424,1016.4304,
2021.02.11 16:44:07,10.0,24.0,-34.079998,-15.96,-32.76,0.2083019,0.7541966,9.5244255,0.00785084,0.003963294,-0.022468846,-0.07900182157754898,-0.021866798400878906,1.9493473768234253,1016.428,
2021.02.11 16:44:08,10.0,24.0,-33.96,-15.839999,-33.0,-0.090982445,0.4836435,9.703996,-0.011085982,-3.12763E-4,-0.03957307,-0.04979623109102249,0.009375495836138725,1.9634819030761719,1016.428,
2021.02.11 16:44:08,10.0,24.0,-33.96,-16.26,-32.579998,0.016759925,0.64166564,9.629773,0.010905167,9.089675E-4,0.0105178775,-0.06653505563735962,-0.0017404260579496622,1.963767170906067,1016.42847,
2021.02.11 16:44:08,10.0,24.0,-34.02,-16.14,-32.28,0.052674048,0.54828894,9.701602,0.0035747832,-0.0021453588,-0.003532023,-0.05645441263914108,-0.005429364275187254,1.9701292514801025,1016.427,
2021.02.11 16:44:08,10.0,24.0,-33.66,-16.56,-32.399998,0.07901107,0.65842557,9.596253,-9.040806E-5,0.0051850243,-0.00902981,-0.06850308924913406,-0.008233346976339817,1.9750200510025024,1016.427,
2021.02.11 16:44:08,10.0,24.0,-33.36,-16.199999,-32.34,-0.019154198,0.5506832,9.711179,-0.012918578,0.0027415634,-0.018803654,-0.056645333766937256,0.001972384052351117,1.9762531518936157,1016.42554,
2021.02.11 16:44:08,10.0,24.0,-33.48,-16.08,-32.94,-0.06464542,0.54828894,9.718362,0.0041856486,0.0033524283,0.0025766296,-0.056356851011514664,0.0066517856903374195,1.9698947668075562,1016.42554,
2021.02.11 16:44:08,10.0,24.0,-33.78,-16.38,-32.94,0.0670397,0.6057515,9.512454,0.005407379,0.013126272,0.0068526864,-0.06359239667654037,-0.007047454360872507,1.9721873998641968,1016.417,
2021.02.11 16:44:08,10.0,24.0,-34.44,-16.08,-33.059998,0.009577099,0.57223165,9.890749,-0.013529444,0.004574159,-0.019414518,-0.05779079347848892,-9.682882227934897E-4,1.960750699043274,1016.42993,
2021.02.11 16:44:08,10.0,24.0,-34.92,-16.5,-33.0,0.016759925,0.6296943,9.498088,0.012737762,0.013126272,-0.01025154,-0.06619997322559357,-0.0017645560437813401,1.959487795829773,1016.42993,
2021.02.11 16:44:08,10.0,24.0,-34.86,-16.619999,-32.64,-0.06943397,0.5243462,9.653716,0.005407379,0.004574159,0.0056309556,-0.05426075682044029,0.007192336954176426,1.9708335399627686,1016.4282,
2021.02.11 16:44:08,10.0,24.0,-34.559998,-16.26,-32.94,0.08619389,0.5961744,9.466963,0.006018244,0.02106752,0.01418307,-0.06288855522871017,-0.009104451164603233,1.9621886014938354,1016.4282,
2021.02.11 16:44:08,10.0,24.0,-34.32,-16.68,-32.579998,-0.09337672,0.5818088,9.653716,0.006018244,0.0302305,-0.00902981,-0.06019224226474762,0.009672317653894424,1.972440242767334,1016.4214,
2021.02.11 16:44:08,10.0,24.0,-34.02,-16.44,-32.88,-0.083799616,0.6057515,9.596253,0.015181223,0.017402329,-0.0016994271,-0.06303771585226059,0.00873231329023838,1.967095136642456,1016.42944,
2021.02.11 16:44:08,10.0,24.0,-33.78,-16.14,-32.7,-0.16281068,0.531529,9.634562,0.0121268965,0.0033524283,0.01662653,-0.055105265229940414,0.01689700037240982,1.9666533470153809,1016.42944,
2021.02.11 16:44:08,10.0,24.0,-33.78,-16.08,-32.34,0.023942748,0.72785956,9.565128,0.006018244,0.018013194,0.03311989,-0.07594851404428482,-0.002503123600035906,1.953701138496399,1016.4282,
2021.02.11 16:44:08,10.0,24.0,-33.059998,-16.02,-32.88,-0.021548472,0.59378016,9.727939,-7.012733E-4,-0.0033670892,0.00379836,-0.06096285581588745,0.0022151083685457706,1.9703657627105713,1016.4282,
2021.02.11 16:44:09,10.0,24.0,-33.18,-16.08,-32.82,-0.07901107,0.6177229,9.737515,0.00785084,-3.12763E-4,0.008074417,-0.06335045397281647,0.008113911375403404,1.9669009447097778,1016.42114,
2021.02.11 16:44:09,10.0,24.0,-33.42,-16.44,-33.12,0.22985038,0.4764607,10.235525,-0.07156164,-0.121264085,0.040450275,-0.046504419296979904,-0.02245236560702324,1.997397541999817,1016.42725,
