Time,X-cord,Y-cord,Mag_x,Mag_y,Mag_z,Acc_x,Acc_y,Acc_z,Gyro_x,Gyro_y,Gyro_z,Orn_x,Orn_y,Orn_z,Pressure,
2021.02.11 16:36:16,44.0,34.0,3.6599998,-31.56,-23.699999,-0.44533512,0.8332076,9.397529,0.13979773,0.08215404,-0.04873605,-0.08833257853984833,0.0473531112074852,-3.0554182529449463,1016.5359,
2021.02.11 16:36:16,44.0,34.0,3.78,-31.8,-23.88,-0.22985038,0.79250497,9.296969,-0.068507314,-0.08827736,0.021513453,-0.08501193672418594,0.024718116968870163,-3.0344624519348145,1016.5415,
2021.02.11 16:36:16,44.0,34.0,4.56,-31.74,-23.58,-0.035914123,0.83081335,9.555551,-0.048348762,-0.07667092,0.034341622,-0.08672691136598587,0.0037584390956908464,-2.991551399230957,1016.5415,
2021.02.11 16:36:16,44.0,34.0,5.22,-31.859999,-23.519999,-0.083799616,0.7972935,9.905115,-0.02941194,-0.035742946,0.036174215,-0.08031707257032394,0.008460035547614098,-2.9750423431396484,1016.55005,
2021.02.11 16:36:16,44.0,34.0,5.94,-31.74,-23.279999,0.11253092,0.9624985,9.598648,5.204572E-4,-0.03268862,0.036174215,-0.09993348270654678,-0.011723085306584835,-2.9324216842651367,1016.55176,
2021.02.11 16:36:16,44.0,34.0,6.2999997,-31.5,-22.92,-0.021548472,0.75659084,9.526819,0.015181223,-0.060177557,-0.012695001,-0.07925041019916534,0.0022618710063397884,-2.9334616661071777,1016.55176,
2021.02.11 16:36:16,44.0,34.0,6.0,-31.859999,-23.039999,-0.021548472,0.7709565,9.562734,-0.0025338691,-0.07117313,-4.7769662E-4,-0.08044673502445221,0.002253376180306077,-2.9452521800994873,1016.55835,
2021.02.11 16:36:16,44.0,34.0,5.7599998,-32.219997,-23.22,0.014365649,0.69673395,9.703996,0.004796514,-0.0681188,0.02823297,-0.07167559117078781,-0.0014803837984800339,-2.953700304031372,1016.55835,
2021.02.11 16:36:16,44.0,34.0,5.8799996,-32.64,-23.46,0.062251143,0.80208206,9.423865,0.01823555,-0.050403714,0.04778066,-0.08490532636642456,-0.006605595350265503,-2.9464783668518066,1016.5625,
2021.02.11 16:36:16,44.0,34.0,5.8199997,-32.579998,-23.4,0.18196489,0.84278476,9.57231,-0.0178055,-0.054068904,0.042893734,-0.08780179917812347,-0.019007215276360512,-2.938476085662842,1016.5537,
2021.02.11 16:36:16,44.0,34.0,5.64,-32.64,-23.22,0.22266756,0.8571504,10.055954,-0.034909725,-0.013140933,0.022124317,-0.08501182496547699,-0.02213924005627632,-2.9429285526275635,1016.5537,
2021.02.11 16:36:16,44.0,34.0,5.64,-32.28,-22.859999,0.3232271,0.9337672,9.603436,0.035950642,0.029008768,-0.0023102923,-0.09687340259552002,-0.033644743263721466,-2.9307973384857178,1016.55396,
2021.02.11 16:36:16,44.0,34.0,5.3399997,-32.04,-22.74,0.090982445,0.7326481,9.550762,0.019457279,0.016791465,-0.038962208,-0.07655754685401917,-0.009525909088551998,-2.9597058296203613,1016.55396,
2021.02.11 16:36:16,44.0,34.0,5.52,-32.46,-22.859999,-0.019154198,0.72785956,9.555551,-7.012733E-4,0.019845791,-0.013305867,-0.07602442055940628,0.002004507463425398,-2.964735984802246,1016.54736,
2021.02.11 16:36:16,44.0,34.0,5.4,-32.52,-22.859999,-0.019154198,0.76616794,9.656111,-0.0043664644,0.004574159,-0.003532023,-0.07917935401201248,0.0019836323335766792,-2.9684088230133057,1016.5393,
2021.02.11 16:36:16,44.0,34.0,5.52,-32.28,-22.74,-0.011971374,0.7637737,9.811738,0.013959493,-0.0033670892,0.041061137,-0.0776861310005188,0.0012201067293062806,-2.962954044342041,1016.5393,
2021.02.11 16:36:17,44.0,34.0,5.58,-32.34,-23.1,0.11013664,0.83081335,9.529214,0.025565932,0.009461081,0.05144585,-0.08696024119853973,-0.01155727356672287,-2.9504692554473877,1016.54517,
2021.02.11 16:36:17,44.0,34.0,5.46,-32.34,-23.4,0.1340794,0.9337672,9.502876,0.0029639183,0.030841364,0.024567777,-0.09793742001056671,-0.014108412899076939,-2.950357437133789,1016.54517,
2021.02.11 16:36:17,44.0,34.0,5.2799997,-31.98,-23.34,0.0023942748,0.86193895,9.859624,-0.012307713,-3.12763E-4,0.013572204,-0.0871993824839592,-2.4283632228616625E-4,-2.9661965370178223,1016.5471,
2021.02.11 16:36:17,44.0,34.0,4.92,-32.28,-23.699999,0.11013664,0.8284191,9.8548355,0.056109197,-0.011919203,0.045948062,-0.08385980874300003,-0.011175433173775673,-2.9714996814727783,1016.5381,
2021.02.11 16:36:17,44.0,34.0,4.8599997,-32.1,-23.519999,0.15802214,0.85954463,9.3592205,0.051833138,0.0064067547,0.038006812,-0.0915694534778595,-0.016882508993148804,-2.967130184173584,1016.5381,
2021.02.11 16:36:17,44.0,34.0,4.5,-32.399998,-23.16,0.043096945,0.82123625,9.646533,0.007239975,0.004574159,0.01784826,-0.08492717146873474,-0.004467580001801252,-2.990917444229126,1016.5366,
2021.02.11 16:36:17,44.0,34.0,4.44,-32.64,-23.1,0.1340794,0.87630457,9.744699,-9.040806E-5,-0.013751798,0.02823297,-0.08967661112546921,-0.013758346438407898,-2.9865882396698,1016.5366,
2021.02.11 16:36:17,44.0,34.0,4.02,-32.64,-22.619999,0.17717634,0.99362403,9.737515,0.012737762,-0.010697473,0.020902587,-0.10167214274406433,-0.01819322258234024,-2.9958362579345703,1016.53125,
2021.02.11 16:36:17,44.0,34.0,3.1799998,-33.12,-22.32,0.18914771,0.90503585,9.62259,0.013959493,-0.018638719,0.008074417,-0.09375937283039093,-0.019654100760817528,-3.0250017642974854,1016.542,
2021.02.11 16:36:17,44.0,34.0,3.06,-32.52,-22.08,0.16520496,0.8786988,9.711179,0.0023530528,-0.030856026,0.0019657644,-0.09022451937198639,-0.017010193318128586,-3.0290844440460205,1016.542,
2021.02.11 16:36:17,44.0,34.0,2.76,-32.46,-22.26,0.20351335,0.9194015,9.591465,0.0035747832,-0.014973529,0.0056309556,-0.09554285556077957,-0.021214988082647324,-3.034972667694092,1016.5376,
2021.02.11 16:36:17,44.0,34.0,2.82,-32.579998,-22.619999,0.11971374,0.9122187,9.557945,-0.020859826,-0.007032281,-0.02185798,-0.09514524787664413,-0.012524394318461418,-3.039494037628174,1016.5376,
2021.02.11 16:36:17,44.0,34.0,3.12,-32.52,-22.98,0.15323359,0.9241901,9.545974,-0.023303287,-0.013140933,-0.019414518,-0.09650149941444397,-0.0160507895052433,-3.0264389514923096,1016.53906,
2021.02.11 16:36:17,44.0,34.0,3.54,-32.7,-23.1,0.14126222,0.87630457,9.656111,-0.019027231,-0.021693047,-0.018192789,-0.09049375355243683,-0.014628264121711254,-3.0150716304779053,1016.5398,
2021.02.11 16:36:17,44.0,34.0,3.72,-32.579998,-23.16,0.18435916,0.8786988,9.526819,-0.031244535,-0.01619526,-0.03468615,-0.09195688366889954,-0.019349180161952972,-3.0050129890441895,1016.5398,
2021.02.11 16:36:17,44.0,34.0,4.02,-32.64,-23.4,-0.0023942748,0.86193895,9.72315,-0.038574915,-0.011308338,-0.03712961,-0.08841699361801147,2.462447446305305E-4,-3.0105016231536865,1016.5432,
2021.02.11 16:36:17,44.0,34.0,4.3199997,-32.28,-23.4,0.15562786,0.88588166,9.490906,-0.015972905,0.019845791,-0.008418945,-0.09305794537067413,-0.016396107152104378,-2.985950469970703,1016.5432,
2021.02.11 16:36:18,44.0,34.0,4.08,-32.219997,-23.699999,0.05027977,0.7134939,9.8237095,-0.020859826,-9.236283E-4,-0.013305867,-0.0725015327334404,-0.00511816143989563,-3.0043532848358154,1016.5525,
2021.02.11 16:36:18,44.0,34.0,4.08,-32.52,-23.64,0.2370332,0.9217958,9.593859,-0.0043664644,0.00823935,1.3316862E-4,-0.09575877338647842,-0.024701740592718124,-2.9880146980285645,1016.5449,
2021.02.11 16:36:18,44.0,34.0,4.2,-32.34,-23.22,0.15562786,0.7972935,9.687236,-7.012733E-4,-0.010086607,-0.011473271,-0.08210787177085876,-0.016063867136836052,-2.9919748306274414,1016.5449,
2021.02.11 16:36:18,44.0,34.0,3.72,-32.52,-23.22,0.16520496,0.7877164,9.624985,-0.0019230038,0.010682812,-0.0029211575,-0.08164682239294052,-0.017162494361400604,-3.00749135017395,1016.5464,
2021.02.11 16:36:18,44.0,34.0,3.84,-32.28,-22.98,0.15083931,0.81165916,9.73991,-0.0019230038,-0.010697473,-0.0029211575,-0.08313130587339401,-0.015485487878322601,-3.0038511753082275,1016.5464,
2021.02.11 16:36:18,44.0,34.0,4.02,-32.16,-23.16,0.12450229,0.82602483,9.522031,-0.0019230038,-0.0033670892,-0.009640676,-0.0865248292684555,-0.013074437156319618,-2.9986977577209473,1016.53564,
2021.02.11 16:36:18,44.0,34.0,4.3199997,-32.04,-23.64,0.15323359,0.7326481,9.737515,-0.020859826,0.0051850243,-0.010862405,-0.0750889703631401,-0.015735117718577385,-2.987386703491211,1016.5398,
2021.02.11 16:36:18,44.0,34.0,4.5,-32.1,-23.76,0.2370332,0.86912173,9.70639,0.0035747832,-0.008254011,0.0044092257,-0.08927655220031738,-0.024415472522377968,-2.9731438159942627,1016.5398,
2021.02.11 16:36:18,44.0,34.0,4.5,-32.399998,-24.06,0.12450229,0.7541966,9.517242,-0.0019230038,0.011293677,-0.011473271,-0.07907328009605408,-0.013081014156341553,-2.984546184539795,1016.542,
2021.02.11 16:36:18,44.0,34.0,4.7999997,-32.34,-23.88,0.10774237,0.7685622,9.708784,-0.018416364,0.0033524283,-0.0053646187,-0.07899194955825806,-0.0110969552770257,-2.9762887954711914,1016.542,
2021.02.11 16:36:18,44.0,34.0,3.9599998,-32.399998,-23.34,0.17478207,0.87630457,9.584282,0.009072571,-0.012530067,0.009296147,-0.09116283804178238,-0.01823430135846138,-2.997157573699951,1016.5464,
2021.02.11 16:36:18,44.0,34.0,4.02,-32.52,-23.16,0.08619389,0.7398309,9.6896305,0.00785084,-0.009475742,-0.0029211575,-0.07620199024677277,-0.00889524258673191,-3.0046494007110596,1016.5447,
2021.02.11 16:36:18,44.0,34.0,3.84,-32.46,-22.98,0.17957062,0.8356019,9.543579,5.204572E-4,0.0051850243,0.011128743,-0.08731836080551147,-0.018813636153936386,-3.0017151832580566,1016.5447,
2021.02.11 16:36:18,44.0,34.0,3.6,-32.579998,-23.22,0.1340794,0.7877164,9.802161,-0.0074207913,-0.007032281,-0.0029211575,-0.08018170297145844,-0.013677701354026794,-3.0143511295318604,1016.54395,
2021.02.11 16:36:18,44.0,34.0,4.2599998,-32.34,-23.76,0.15083931,0.7733508,9.682447,-9.040806E-5,0.002130698,0.00379836,-0.07969258725643158,-0.015577374957501888,-2.9902265071868896,1016.54395,
2021.02.11 16:36:18,44.0,34.0,4.3199997,-31.92,-23.939999,0.19393626,0.82602483,9.641745,0.004796514,0.0064067547,0.0074635516,-0.085445836186409,-0.02011151611804962,-2.9817049503326416,1016.54614,
2021.02.11 16:36:18,44.0,34.0,3.9599998,-31.8,-24.3,0.11492519,0.7398309,9.701602,-0.0037555995,-0.0015344934,-0.00902981,-0.0761060118675232,-0.01184544712305069,-3.0003104209899902,1016.5383,
2021.02.11 16:36:19,44.0,34.0,3.84,-31.8,-24.24,0.13168511,0.8332076,9.567522,-0.0074207913,-3.12763E-4,-0.0029211575,-0.08685973286628723,-0.013762894086539745,-3.0014443397521973,1016.5383,
2021.02.11 16:36:19,44.0,34.0,3.3,-32.04,-24.24,0.117319465,0.7853221,9.732727,-0.011085982,-0.0045888196,-0.006586349,-0.08050855249166489,-0.0120535371825099,-3.022390127182007,1016.541,
2021.02.11 16:36:19,44.0,34.0,3.24,-32.16,-24.3,0.19393626,0.81165916,9.593859,0.00785084,9.089675E-4,-0.004753753,-0.08438380807638168,-0.020211873576045036,-3.017893075942993,1016.541,
2021.02.11 16:36:19,44.0,34.0,3.54,-32.16,-24.3,0.11971374,0.77574503,9.696813,-0.0037555995,0.0033524283,-0.013305867,-0.07982392609119415,-0.01234505232423544,-3.0148110389709473,1016.54517,
2021.02.11 16:36:19,44.0,34.0,3.4199998,-31.92,-23.88,0.08858817,0.81644773,9.6896305,0.009683436,-0.0021453588,0.009907013,-0.08405788242816925,-0.009142319671809673,-3.020128011703491,1016.5503,
2021.02.11 16:36:19,44.0,34.0,3.4199998,-31.8,-23.88,0.12450229,0.69912827,9.624985,-0.0013121385,0.009461081,0.0056309556,-0.07250343263149261,-0.012934601865708828,-3.017899513244629,1016.5503,
2021.02.11 16:36:19,44.0,34.0,2.9399998,-31.859999,-24.0,0.16759923,0.82123625,9.727939,0.0041856486,-0.0039779544,0.0074635516,-0.08420825004577637,-0.017226943746209145,-3.029297351837158,1016.5469,
2021.02.11 16:36:19,44.0,34.0,2.9399998,-31.92,-24.119999,0.08858817,0.7541966,9.761458,-0.009864252,0.017402329,-0.004142888,-0.07710633426904678,-0.009075052104890347,-3.0365803241729736,1016.5469,
2021.02.11 16:36:19,44.0,34.0,3.12,-31.859999,-24.359999,0.12450229,0.7541966,9.641745,0.0017421878,0.012515408,0.006241821,-0.07805656641721725,-0.01291211973875761,-3.027109146118164,1016.5442,
2021.02.11 16:36:19,44.0,34.0,3.06,-31.56,-23.939999,0.117319465,0.7829279,9.680053,0.0029639183,-0.006421415,0.011128743,-0.08069895207881927,-0.012119119986891747,-3.028637170791626,1016.54395,
2021.02.11 16:36:19,44.0,34.0,3.1799998,-31.74,-23.82,0.05027977,0.77574503,9.708784,-0.0019230038,-0.002756224,0.009907013,-0.07973090559244156,-0.005178745370358229,-3.0309853553771973,1016.54395,
2021.02.11 16:36:19,44.0,34.0,3.0,-31.679998,-23.58,0.08858817,0.76137936,9.665688,0.009072571,2.9810224E-4,0.024567777,-0.07860574871301651,-0.009164964780211449,-3.033848762512207,1016.5388,
2021.02.11 16:36:19,44.0,34.0,2.9399998,-32.16,-23.58,0.20111908,0.8379962,9.550762,0.011516031,-0.0045888196,0.030065564,-0.08749786764383316,-0.021054796874523163,-3.027496576309204,1016.5388,
2021.02.11 16:36:19,44.0,34.0,3.12,-32.34,-24.06,0.13886794,0.77574503,9.720756,-0.019638095,-0.027190834,0.0050200904,-0.07962610572576523,-0.014284743927419186,-3.0278866291046143,1016.54126,
2021.02.11 16:36:19,44.0,34.0,3.4199998,-32.04,-24.06,0.12929083,0.81165916,9.648928,0.0017421878,0.007628485,0.028843835,-0.08391403406858444,-0.013398700393736362,-3.017148017883301,1016.5442,
2021.02.11 16:36:19,44.0,34.0,3.36,-31.98,-23.88,0.18914771,0.83081335,9.450203,-0.009864252,-0.006421415,0.012350474,-0.08767194300889969,-0.02001252770423889,-3.013415575027466,1016.5442,
2021.02.11 16:36:20,44.0,34.0,3.3,-31.619999,-24.119999,0.102953814,0.76137936,9.862018,-0.017194636,-0.011919203,-0.0010885618,-0.07704618573188782,-0.010439048521220684,-3.022465705871582,1016.5425,
2021.02.11 16:36:20,44.0,34.0,2.82,-31.619999,-23.699999,0.22985038,0.8978531,9.445415,0.0017421878,-0.008254011,0.016015666,-0.09474438428878784,-0.02432979643344879,-3.0259904861450195,1016.5425,
2021.02.11 16:36:20,44.0,34.0,2.46,-31.8,-23.519999,0.105348095,0.71588814,9.821315,-0.014140309,-0.008864877,-0.0016994271,-0.07275842130184174,-0.010726064443588257,-3.051457643508911,1016.53613,
2021.02.11 16:36:20,44.0,34.0,2.34,-32.16,-23.699999,0.25139886,0.84278476,9.536397,-0.0019230038,-0.0015344934,0.0068526864,-0.0881161317229271,-0.026355935260653496,-3.042975902557373,1016.5325,
2021.02.11 16:36:20,44.0,34.0,2.1599998,-32.399998,-23.76,0.11971374,0.72785956,9.809344,-0.0074207913,-0.016806124,-0.015138462,-0.07405940443277359,-0.01220344565808773,-3.0615880489349365,1016.5325,
2021.02.11 16:36:20,44.0,34.0,2.28,-32.46,-24.24,0.17717634,0.7709565,9.60583,0.0035747832,-0.011308338,-4.7769662E-4,-0.0800739973783493,-0.018442576751112938,-3.0522007942199707,1016.5376,
2021.02.11 16:36:20,44.0,34.0,2.22,-32.399998,-24.24,0.14365649,0.75659084,9.629773,-0.0043664644,0.0051850243,-0.0023102923,-0.07839813083410263,-0.014916845597326756,-3.0568974018096924,1016.5376,
2021.02.11 16:36:20,44.0,34.0,2.04,-32.52,-24.0,0.19633053,0.72546524,9.62259,-0.009253386,0.0015198328,-0.009640676,-0.07523392885923386,-0.020400255918502808,-3.059202194213867,1016.5359,
2021.02.11 16:36:20,44.0,34.0,1.68,-32.64,-23.64,0.12689656,0.71828246,9.835681,-0.014140309,0.00823935,-0.015138462,-0.07289278507232666,-0.012900939211249352,-3.0773086547851562,1016.5408,
2021.02.11 16:36:20,44.0,34.0,1.9799999,-32.76,-23.699999,0.22027329,0.84996754,9.5483675,0.010294301,0.0161806,-0.0023102923,-0.08875954151153564,-0.023065118119120598,-3.0590531826019287,1016.5408,
2021.02.11 16:36:20,44.0,34.0,2.22,-32.82,-23.699999,0.10055954,0.69194543,9.687236,-0.0061990605,-0.007643146,-0.026134036,-0.07130363583564758,-0.010380249470472336,-3.0623419284820557,1016.5364,
2021.02.11 16:36:20,44.0,34.0,2.46,-32.7,-24.06,0.13168511,0.8092649,9.663293,0.0017421878,-0.0021453588,-0.019414518,-0.08354359865188599,-0.01362651027739048,-3.050689458847046,1016.5364,
2021.02.11 16:36:20,44.0,34.0,2.9399998,-32.399998,-24.18,0.11492519,0.7733508,9.668081,-0.0055881953,0.010682812,-0.020025386,-0.07981453090906143,-0.01188651379197836,-3.035733699798584,1016.53784,
2021.02.11 16:36:20,44.0,34.0,2.8799999,-32.28,-24.119999,0.038308397,0.71588814,9.699207,0.009072571,0.027787039,-0.005975484,-0.0736747682094574,-0.0039496212266385555,-3.044090509414673,1016.54395,
2021.02.11 16:36:20,44.0,34.0,2.8799999,-32.16,-24.06,0.18914771,0.76616794,9.72315,0.006018244,2.9810224E-4,1.3316862E-4,-0.0786210224032402,-0.01945088431239128,-3.031113624572754,1016.54395,
2021.02.11 16:36:20,44.0,34.0,2.9399998,-32.1,-24.119999,0.13886794,0.80687064,9.627379,-0.0013121385,0.027176172,0.0019657644,-0.08360593020915985,-0.014423271641135216,-3.032360792160034,1016.5366,
2021.02.11 16:36:20,44.0,34.0,2.58,-31.74,-24.3,0.09577099,0.6943397,9.624985,-0.00497733,0.0033524283,-0.008418945,-0.07201099395751953,-0.009949920699000359,-3.047537088394165,1016.5366,
2021.02.11 16:36:21,44.0,34.0,2.3999999,-31.859999,-24.18,0.019154198,0.7398309,9.677659,5.204572E-4,-3.12763E-4,-0.0010885618,-0.07629875093698502,-0.001979215769097209,-3.0599734783172607,1016.53687,
2021.02.11 16:36:21,44.0,34.0,2.22,-31.8,-24.539999,0.12929083,0.7398309,9.538791,-7.012733E-4,0.008850216,0.0050200904,-0.07739820331335068,-0.013553386554121971,-3.0561788082122803,1016.53687,
2021.02.11 16:36:21,44.0,34.0,2.52,-31.74,-24.24,0.15562786,0.79250497,9.701602,-0.00497733,-0.002756224,-0.0053646187,-0.08149664103984833,-0.01604008488357067,-3.043860912322998,1016.53687,
2021.02.11 16:36:21,44.0,34.0,2.76,-31.92,-24.18,0.071828246,0.7685622,9.634562,-0.0013121385,0.011293677,-0.013305867,-0.07960060238838196,-0.007455130573362112,-3.043566942214966,1016.5349,
2021.02.11 16:36:21,44.0,34.0,3.12,-31.98,-24.18,0.035914123,0.74222517,9.598648,-0.0019230038,0.0161806,-0.018192789,-0.07717190682888031,-0.0037415637634694576,-3.0350594520568848,1016.5349,
2021.02.11 16:36:21,44.0,34.0,3.24,-31.98,-23.76,0.117319465,0.7589851,9.670476,-9.040806E-5,0.0051850243,-0.012695001,-0.07831847667694092,-0.012131120078265667,-3.024631977081299,1016.5266,
2021.02.11 16:36:21,44.0,34.0,2.8799999,-32.04,-24.0,0.09577099,0.8044763,9.742304,0.0029639183,0.0033524283,-0.0029211575,-0.08238469064235687,-0.009830108843743801,-3.0379629135131836,1016.5305,
2021.02.11 16:36:21,44.0,34.0,2.7,-32.1,-24.18,0.014365649,0.7709565,9.553157,0.015181223,0.00701762,-0.005975484,-0.08052714914083481,-0.0015037581324577332,-3.0507867336273193,1016.5305,
2021.02.11 16:36:21,44.0,34.0,2.22,-31.8,-24.0,0.009577099,0.749408,9.749487,-0.0031447343,-9.236283E-4,-0.008418945,-0.07671551406383514,-9.823179570958018E-4,-3.066615343093872,1016.532,
2021.02.11 16:36:21,44.0,34.0,2.1,-32.04,-24.24,0.09337672,0.85236186,9.45978,0.00662911,0.003963294,0.0050200904,-0.08985675871372223,-0.009870598092675209,-3.063094139099121,1016.532,
2021.02.11 16:36:21,44.0,34.0,2.3999999,-31.859999,-24.06,0.031125572,0.7206767,9.747093,-0.00497733,-9.236283E-4,-0.003532023,-0.07380293309688568,-0.0031933074351400137,-3.059218168258667,1016.5325,
2021.02.11 16:36:21,44.0,34.0,2.76,-31.74,-23.76,0.021548472,0.77574503,9.512454,-0.0019230038,0.009461081,-0.0029211575,-0.08137018978595734,-0.0022652868647128344,-3.047146797180176,1016.5349,
2021.02.11 16:36:21,44.0,34.0,2.58,-32.04,-24.06,0.06943397,0.75659084,9.718362,-0.011696848,0.011904542,-0.003532023,-0.07769300043582916,-0.007144495379179716,-3.0503551959991455,1016.5349,
2021.02.11 16:36:21,44.0,34.0,2.76,-31.859999,-23.76,0.045491222,0.7733508,9.608225,0.005407379,0.0064067547,0.008074417,-0.08031437546014786,-0.004734577611088753,-3.0456650257110596,1016.5376,
2021.02.11 16:36:21,44.0,34.0,2.58,-31.92,-23.699999,0.102953814,0.7996878,9.725544,-9.040806E-5,0.003963294,-0.0071972143,-0.08203636854887009,-0.010585522279143333,-3.0471158027648926,1016.5376,
2021.02.11 16:36:21,44.0,34.0,2.58,-32.28,-23.699999,-0.12450229,0.68236834,9.675264,-0.011085982,0.027787039,0.0025766296,-0.07040470838546753,0.012867391109466553,-3.0672199726104736,1016.5437,
2021.02.11 16:36:21,44.0,34.0,3.24,-32.1,-23.699999,0.21069619,0.91461295,9.665688,-0.0318554,0.047334723,0.009907013,-0.09432153403759003,-0.021794913336634636,-3.0159404277801514,1016.5371,
2021.02.11 16:36:22,44.0,34.0,3.12,-32.04,-23.64,0.13168511,0.84996754,9.613013,-0.036742322,0.08093231,-0.049346916,-0.08818085491657257,-0.013697772286832333,-3.0266923904418945,1016.5371,
2021.02.11 16:36:22,44.0,34.0,3.06,-31.619999,-23.939999,-0.08858817,0.7326481,9.909904,0.00785084,0.009461081,-0.054233838,-0.07379370182752609,0.008939119055867195,-3.0462770462036133,1016.5437,
2021.02.11 16:36:22,44.0,34.0,3.24,-31.32,-24.3,-0.11492519,0.7326481,9.545974,0.017624684,0.004574159,-0.029799229,-0.07659374177455902,0.01203854475170374,-3.041565179824829,1016.5437,
2021.02.11 16:36:22,44.0,34.0,3.1799998,-31.56,-23.699999,-0.12450229,0.6895511,9.550762,0.0017421878,-0.0045888196,-0.021247115,-0.07206738740205765,0.01303511019796133,-3.0454530715942383,1016.5464,
2021.02.11 16:36:22,44.0,34.0,3.3,-31.56,-24.0,-0.06464542,0.76137936,9.672871,0.0029639183,0.008850216,-0.006586349,-0.07854916155338287,0.006683067884296179,-3.03584361076355,1016.5498,
2021.02.11 16:36:22,44.0,34.0,3.3,-31.74,-23.46,0.12689656,0.82602483,9.60583,-0.013529444,0.004574159,-0.02063625,-0.08577355742454529,-0.013209600001573563,-3.0203166007995605,1016.5498,
2021.02.11 16:36:22,44.0,34.0,3.3,-31.74,-23.519999,-0.17957062,0.6560313,9.4932995,-0.025746748,-0.0039779544,-0.05545557,-0.06898267567157745,0.018913256004452705,-3.0468485355377197,1016.5498,
2021.02.11 16:36:22,44.0,34.0,3.4199998,-31.38,-24.119999,-0.10055954,0.723071,9.794978,-0.0318554,0.014958868,-0.029799229,-0.07368305325508118,0.01026607770472765,-3.034532070159912,1016.5498,
2021.02.11 16:36:22,44.0,34.0,3.36,-31.26,-24.119999,-0.20590763,0.63208854,9.653716,-9.040806E-5,0.028397903,-0.010862405,-0.06536803394556046,0.021326130256056786,-3.04581880569458,1016.541,
2021.02.11 16:36:22,44.0,34.0,3.78,-31.199999,-24.24,0.047885496,0.7541966,9.802161,0.00662911,0.018013194,0.00379836,-0.07678965479135513,-0.004885158967226744,-3.0090956687927246,1016.53955,
2021.02.11 16:36:22,44.0,34.0,3.84,-31.26,-24.0,0.057462595,0.68715686,10.278622,-0.061787795,-0.08949909,-0.008418945,-0.06675264239311218,-0.005590437445789576,-3.008090019226074,1016.53955,
