Time,X-cord,Y-cord,Mag_x,Mag_y,Mag_z,Acc_x,Acc_y,Acc_z,Gyro_x,Gyro_y,Gyro_z,Orn_x,Orn_y,Orn_z,Pressure,
2021.02.12 11:29:47,7.0,18.0,16.515732,-40.609604,-30.573713,-0.0529328,0.6936458,9.868846,-0.015319651,0.12191432,-0.01703694,-0.07017000764608383,0.005363574251532555,-2.738650321960449,1016.7385,
2021.02.12 11:29:47,7.0,18.0,15.885437,-40.625202,-29.21947,0.06347866,0.60674566,9.975227,0.18634973,-0.008239303,-0.058406506,-0.060749173164367676,-0.00636354461312294,-2.7487432956695557,1016.7385,
2021.02.12 11:29:47,7.0,18.0,16.016602,-41.397118,-28.757109,-0.36025134,0.8305399,9.249944,0.045456953,0.050185364,-0.05694291,-0.08948103338479996,0.038926657289266586,-2.773604154586792,1016.7388,
2021.02.12 11:29:47,7.0,18.0,15.516403,-40.972027,-29.47223,-0.28141412,0.8575955,9.761127,-0.075973466,0.016059592,0.016475676,-0.08759701251983643,0.028822099789977074,-2.7751283645629883,1016.73883,
2021.02.12 11:29:47,7.0,18.0,15.684982,-41.239227,-28.935038,-0.0716663,0.74317724,9.880244,0.0011213955,-0.019695811,0.0071742125,-0.075075164437294,0.007253367453813553,-2.763369083404541,1016.7391,
2021.02.12 11:29:47,7.0,18.0,15.954918,-40.576546,-30.470304,-0.18360996,0.7493842,9.711014,0.011921518,-0.01492813,-0.0019420746,-0.0770021378993988,0.018905142322182655,-2.7579164505004883,1016.7391,
2021.02.12 11:29:47,7.0,18.0,16.637306,-40.00337,-29.885786,-0.25438714,0.86483973,9.633437,-0.011720997,-0.0094861295,0.005057958,-0.08950373530387878,0.026400551199913025,-2.738335609436035,1016.7391,
2021.02.12 11:29:47,7.0,18.0,15.7764435,-41.027256,-29.53617,-0.14138526,0.7720456,9.850929,-0.0032889466,-0.0072358423,0.030382846,-0.07820497453212738,0.014351493678987026,-2.762871026992798,1016.7391,
2021.02.12 11:29:47,7.0,18.0,15.693687,-39.857643,-29.004179,-0.15616234,0.750938,9.71576,0.009528482,-3.0787278E-4,0.014854278,-0.07712741941213608,0.016071710735559464,-2.755774736404419,1016.7391,
2021.02.12 11:29:47,7.0,18.0,15.576553,-40.281273,-29.339941,-0.21652342,0.82809585,9.679657,-0.007120195,-0.012660734,0.026525378,-0.0853210836648941,0.022365186363458633,-2.763969898223877,1016.7391,
2021.02.12 11:29:47,7.0,18.0,15.114906,-40.31001,-28.651674,-0.19424503,0.7946897,9.797111,-0.010142155,-0.0057097254,0.041727778,-0.08092166483402252,0.01982416957616806,-2.7746312618255615,1016.7391,
2021.02.12 11:29:47,7.0,18.0,15.387985,-40.684864,-30.3077,-0.14551483,0.8092049,9.725856,0.006789671,-0.0057319086,0.03983591,-0.08300097286701202,0.014960531145334244,-2.7672805786132812,1016.7391,
2021.02.12 11:29:48,7.0,18.0,15.986206,-40.429905,-30.159475,-0.10674089,0.74882466,9.671142,-0.0147626195,-0.0078085256,0.044853106,-0.07726990431547165,0.011036603711545467,-2.750566244125366,1016.7391,
2021.02.12 11:29:48,7.0,18.0,15.2115555,-40.824272,-29.923529,-0.04815619,0.71232015,9.682873,-0.040713042,-0.0056713563,0.020126177,-0.07343177497386932,0.004973296076059341,-2.7687828540802,1016.7391,
2021.02.12 11:29:48,7.0,18.0,15.540863,-40.547516,-29.516623,-0.09557032,0.75587386,9.779483,-0.03963682,0.0031230599,0.00376688,-0.07713476568460464,0.009772221557796001,-2.7611916065216064,1016.7391,
2021.02.12 11:29:48,7.0,18.0,17.085564,-41.133087,-30.640959,-0.15194081,0.71664363,9.765152,-0.018640261,-0.016502222,0.0073599266,-0.07324770092964172,0.015558237209916115,-2.7368133068084717,1016.7391,
2021.02.12 11:29:48,7.0,18.0,15.8557205,-40.569748,-30.179884,-0.1323386,0.695085,9.744714,-0.02292334,-0.008078344,0.0067372294,-0.07120229303836823,0.01357971876859665,-2.758331775665283,1016.7391,
2021.02.12 11:29:48,7.0,18.0,14.857903,-40.011192,-28.571226,-0.06653278,0.639789,9.752433,-0.010220169,0.013499441,-0.0023790235,-0.06550762802362442,0.006822067312896252,-2.77376389503479,1016.7391,
2021.02.12 11:29:48,7.0,18.0,15.139961,-39.91156,-30.633001,-0.11909614,0.6806133,9.778102,-0.010554415,2.7133455E-4,-0.019611834,-0.06948865205049515,0.012179280631244183,-2.768073081970215,1016.73883,
2021.02.12 11:29:48,7.0,18.0,15.977989,-40.2036,-30.542528,-0.1985507,0.7277167,9.720535,-9.00727E-4,-0.008537302,-0.0045878584,-0.07470893114805222,0.02042306214570999,-2.7557191848754883,1016.7388,
2021.02.12 11:29:48,7.0,18.0,16.350983,-40.149124,-29.986883,-0.111996986,0.65071875,9.830019,6.4373575E-4,0.020220688,-0.004830001,-0.06609638035297394,0.011392870917916298,-2.743530750274658,1016.7387,
2021.02.12 11:29:48,7.0,18.0,15.604225,-41.2932,-30.23321,-0.1632365,0.6731596,9.693027,0.008018775,0.0032962884,-0.0102869645,-0.06932670623064041,0.01683901995420456,-2.7730493545532227,1016.73737,
2021.02.12 11:29:48,7.0,18.0,16.44545,-40.19166,-29.839228,-0.18850644,0.6772004,9.704787,0.0026304272,0.005796997,0.004797711,-0.06965401023626328,0.019421624019742012,-2.746098756790161,1016.73737,
2021.02.12 11:29:48,7.0,18.0,16.18071,-40.618614,-30.4218,-0.16477764,0.68589836,9.702441,-0.035777472,-0.008972632,0.017105706,-0.07056581974029541,0.01698147878050804,-2.7539055347442627,1016.7372,
2021.02.12 11:29:48,7.0,18.0,16.724579,-41.118412,-30.144678,-0.100643516,0.63839287,9.886912,0.008249842,-0.003213239,0.0059803333,-0.06447664648294449,0.010179117321968079,-2.743891954421997,1016.73694,
2021.02.12 11:29:48,7.0,18.0,16.105446,-40.056404,-29.445177,-0.14600855,0.6863795,9.676384,0.016239222,-0.00425767,0.0055965707,-0.0708068236708641,0.015088019892573357,-2.749368667602539,1016.7368,
2021.02.12 11:29:48,7.0,18.0,17.181198,-39.811413,-30.315062,-0.13774762,0.6753564,9.752684,-0.005454859,-0.0040466916,0.0174085,-0.06913101673126221,0.014123134315013885,-2.72253155708313,1016.7368,
2021.02.12 11:29:49,7.0,18.0,15.7307205,-41.275642,-29.37948,-0.09633616,0.7068084,9.708978,-0.0026543024,0.0022918107,0.007836677,-0.07266770303249359,0.009922053664922714,-2.764859199523926,1016.7364,
2021.02.12 11:29:49,7.0,18.0,16.251366,-40.52989,-30.236216,-0.059739497,0.6261632,9.82901,0.008570563,0.010714754,-0.010061722,-0.0636184811592102,0.006077800411731005,-2.746413230895996,1016.7363,
2021.02.12 11:29:49,7.0,18.0,15.737236,-40.74508,-29.606165,-0.16894203,0.73215,9.720369,0.027190471,-0.015012216,-0.005745241,-0.0751679465174675,0.01737845689058304,-2.764104127883911,1016.7363,
2021.02.12 11:29:49,7.0,18.0,15.3181,-40.637737,-30.210295,-0.13144751,0.7096495,9.899617,0.04743526,-0.009346964,-0.0018632577,-0.07155584543943405,0.013277259655296803,-2.770745277404785,1016.7363,
2021.02.12 11:29:49,7.0,18.0,16.686813,-40.13292,-30.097048,-0.12788928,0.71784145,9.577732,0.05008971,0.0062569217,0.0020973645,-0.07480248808860779,0.013351978734135628,-2.734403610229492,1016.7363,
2021.02.12 11:29:49,7.0,18.0,15.37603,-40.820797,-29.59521,-0.11414176,0.774391,9.793887,0.03344334,-0.023810303,-0.009414909,-0.0788993090391159,0.011653860099613667,-2.768047332763672,1016.7363,
2021.02.12 11:29:49,7.0,18.0,15.132973,-40.490284,-29.600523,-0.16403662,0.8298419,9.624149,0.0052150674,0.0033309902,0.009461568,-0.08599979430437088,0.017042621970176697,-2.7721848487854004,1016.7364,
2021.02.12 11:29:49,7.0,18.0,15.777077,-40.396744,-30.022852,-9.3621825E-4,0.71473503,9.831641,0.0024538878,0.015542172,-0.02261982,-0.07256976515054703,9.522501932224259E-5,-2.7491824626922607,1016.7364,
2021.02.12 11:29:49,7.0,18.0,15.973488,-39.55271,-28.665907,-0.16972308,0.85392237,9.705799,0.013550032,0.0106519535,-0.02290001,-0.08774132281541824,0.017484987154603004,-2.744270086288452,1016.7364,
2021.02.12 11:29:49,7.0,18.0,15.495392,-40.470074,-29.338427,-0.12390247,0.80691034,9.664245,-0.016432276,0.0048998324,-3.6781165E-4,-0.08329437673091888,0.012820006348192692,-2.7617921829223633,1016.7363,
2021.02.12 11:29:49,7.0,18.0,15.043945,-41.48539,-29.85673,-0.07177737,0.7802527,9.783753,-0.0030399994,0.010770576,-0.014527247,-0.07957927137613297,0.007336252368986607,-2.7781054973602295,1016.7363,
2021.02.12 11:29:49,7.0,18.0,14.700401,-41.099873,-29.291372,-0.119577,0.7653086,9.730198,-0.015363706,0.006663914,-0.009925924,-0.07848544418811798,0.012288647703826427,-2.7864367961883545,1016.7355,
2021.02.12 11:29:49,7.0,18.0,15.424744,-40.624886,-29.104559,-0.12423863,0.7690528,9.733246,-0.0027324897,0.0038940276,-0.02268554,-0.07884277403354645,0.01276366412639618,-2.7661619186401367,1016.7354,
2021.02.12 11:29:49,7.0,18.0,15.120956,-40.422527,-29.708082,-0.06689608,0.71885043,9.730682,-0.025234867,0.013975486,-0.022016661,-0.0737389326095581,0.006874649319797754,-2.7685763835906982,1016.7354,
2021.02.12 11:29:50,7.0,18.0,15.107742,-41.34274,-29.18506,-0.21795864,0.74028224,9.703908,0.0052977856,5.244427E-4,-0.03739446,-0.07612042129039764,0.02245713770389557,-2.7866129875183105,1016.73535,
2021.02.12 11:29:50,7.0,18.0,15.427017,-42.070507,-29.227053,-0.2278905,0.79520273,9.717877,-0.032106698,-0.0029348661,0.003838861,-0.0816245898604393,0.023446349427103996,-2.784640312194824,1016.7353,
2021.02.12 11:29:50,7.0,18.0,15.505196,-40.145817,-29.761274,-0.17044796,0.76318544,9.807118,-0.009181202,-0.002869417,0.011790911,-0.07765134423971176,0.017378274351358414,-2.76320481300354,1016.73517,
2021.02.12 11:29:50,7.0,18.0,15.719948,-40.34697,-30.077013,-0.09593579,0.71335286,9.708688,-4.7231978E-4,-0.001179395,0.0039079124,-0.07334035634994507,0.009881116449832916,-2.756274461746216,1016.73517,
2021.02.12 11:29:50,7.0,18.0,15.707062,-40.11751,-29.467062,-0.15382162,0.7228187,9.741757,-0.0011142415,-0.0015065388,-0.011417009,-0.07405306398868561,0.015788612887263298,-2.758441209793091,1016.73517,
2021.02.12 11:29:50,7.0,18.0,16.744919,-40.331894,-30.027372,-0.18106109,0.75447017,9.779597,-0.012763455,-0.006092974,0.004356512,-0.07698171585798264,0.018512051552534103,-2.7377710342407227,1016.735,
2021.02.12 11:29:50,7.0,18.0,15.729065,-41.328953,-29.312521,-0.17758407,0.7623143,9.764749,0.009884673,0.013695426,-5.7758763E-5,-0.07789713889360428,0.0181842353194952,-2.7692413330078125,1016.73486,
2021.02.12 11:29:50,7.0,18.0,15.212212,-40.242542,-30.129198,-0.14743742,0.6972516,9.7091675,0.0010585957,0.0022856737,0.0043498715,-0.07168243080377579,0.015184215269982815,-2.7709572315216064,1016.73474,
2021.02.12 11:29:50,7.0,18.0,15.865959,-40.1788,-29.358599,-0.18115549,0.7473297,9.731519,-0.0039480403,5.112763E-5,-1.6166386E-4,-0.0766311064362526,0.018613185733556747,-2.7565243244171143,1016.7347,
2021.02.12 11:29:50,7.0,18.0,16.438995,-40.84385,-29.92473,-0.17311002,0.7406664,9.707356,-0.0027559628,0.0034457683,0.005468567,-0.07613988220691681,0.017830979079008102,-2.749211072921753,1016.7346,
2021.02.12 11:29:50,7.0,18.0,16.272308,-40.73889,-29.474474,-0.10731593,0.72503304,9.799568,-0.0047396147,0.0013436275,8.1549864E-5,-0.07384724915027618,0.010950650088489056,-2.7483136653900146,1016.7346,
2021.02.12 11:29:50,7.0,18.0,16.928818,-41.443527,-29.520144,-0.18169375,0.75136966,9.699191,0.012750969,-0.007550836,-0.0014532388,-0.0772993266582489,0.018730685114860535,-2.74426531791687,1016.7346,
2021.02.12 11:29:50,7.0,18.0,16.042961,-40.67518,-29.983213,-0.13625856,0.7365351,9.705076,-0.01663757,0.0027138344,-0.0046307966,-0.07573910057544708,0.01403900422155857,-2.7540953159332275,1016.7346,
2021.02.12 11:29:50,7.0,18.0,16.346252,-40.391903,-30.19716,-0.12716447,0.7340577,9.807776,-0.0022528223,-0.0029525482,-0.014969151,-0.07469891756772995,0.012964950874447823,-2.7442069053649902,1016.7342,
2021.02.12 11:29:50,7.0,18.0,15.277107,-40.257984,-28.703966,-0.19319952,0.73446256,9.720988,0.011061798,-0.005196425,-0.014963288,-0.07539620995521545,0.019871855154633522,-2.7720322608947754,1016.7342,
2021.02.12 11:29:51,7.0,18.0,16.018616,-39.725777,-29.981733,-0.19573148,0.74661916,9.691117,-0.010422138,0.0013943496,-0.0060244203,-0.07687409967184067,0.02019425295293331,-2.7496397495269775,1016.734,
2021.02.12 11:29:51,7.0,18.0,16.116806,-40.230667,-29.681414,-0.16071053,0.7411036,9.823098,-0.0019665153,-0.0027629938,-0.002406675,-0.07529229670763016,0.016359012573957443,-2.750131130218506,1016.73395,
2021.02.12 11:29:51,7.0,18.0,17.342476,-40.681526,-30.211061,-0.18436104,0.720741,9.730591,0.016062904,-0.0018724205,-0.0014612561,-0.07392136752605438,0.01894427463412285,-2.7290923595428467,1016.7336,
2021.02.12 11:29:51,7.0,18.0,15.753952,-40.17419,-28.932886,-0.20627509,0.75714284,9.715398,9.357941E-5,-0.0024785518,0.0058204345,-0.07775760442018509,0.021228579804301262,-2.7605319023132324,1016.7334,
2021.02.12 11:29:51,7.0,18.0,15.297623,-40.424644,-29.547304,-0.15554631,0.69438124,9.754795,0.007910291,-0.0017358414,0.0075894995,-0.07105471193790436,0.01594427414238453,-2.771475315093994,1016.7334,
2021.02.12 11:29:51,7.0,18.0,15.953293,-39.75,-28.370615,-0.20601547,0.7803721,9.670698,-0.0057121925,-1.10460445E-4,0.009410757,-0.08050183951854706,0.02129983901977539,-2.751415729522705,1016.73334,
2021.02.12 11:29:51,7.0,18.0,15.778801,-40.40534,-30.501974,-0.12762772,0.7095749,9.796468,-0.0065426715,-0.005105656,0.021430617,-0.07229932397603989,0.013027194887399673,-2.757753849029541,1016.7332,
2021.02.12 11:29:51,7.0,18.0,15.517372,-39.924774,-29.550924,-0.10845078,0.7269805,9.697852,-0.002302738,0.0017248053,-2.5264616E-4,-0.0748184323310852,0.011182502843439579,-2.757664680480957,1016.73315,
2021.02.12 11:29:51,7.0,18.0,15.124138,-40.456352,-29.927748,-0.15366161,0.7630441,9.757804,-0.0092566265,-4.7139218E-4,0.0025119758,-0.07802990078926086,0.015746258199214935,-2.7734436988830566,1016.73303,
2021.02.12 11:29:51,7.0,18.0,15.809235,-40.204792,-29.82461,-0.1415606,0.76410484,9.780747,0.006435432,-0.0085550845,-0.0012506444,-0.07795687764883041,0.01447238214313984,-2.754730224609375,1016.7327,
2021.02.12 11:29:51,7.0,18.0,15.916992,-39.724575,-29.909128,-0.101865254,0.73043495,9.722298,0.0016002408,8.6479494E-4,-0.0011496041,-0.07498488575220108,0.010477104224264622,-2.7459781169891357,1016.7327,
2021.02.12 11:29:51,7.0,18.0,15.1063385,-40.96127,-28.823668,-0.12505834,0.74247783,9.754753,0.011982656,-0.009560406,-0.0149595095,-0.07596177607774734,0.012819543480873108,-2.7772719860076904,1016.7327,
2021.02.12 11:29:51,7.0,18.0,15.784988,-39.91065,-29.135908,-0.16264619,0.7951761,9.738788,0.003097022,-0.0043192524,-0.008242568,-0.08145838230848312,0.01669931411743164,-2.753232717514038,1016.73254,
2021.02.12 11:29:51,7.0,18.0,16.043312,-40.017612,-29.1853,-0.14836082,0.72972804,9.77151,0.00637779,-0.026083753,0.0026927665,-0.07453222572803497,0.0151818310841918,-2.7494330406188965,1016.73254,
2021.02.12 11:29:51,7.0,18.0,15.565254,-39.912533,-29.171167,-0.12495334,0.75846845,9.71968,0.012979262,-0.0034334706,-0.0019632124,-0.07787007838487625,0.01285499706864357,-2.7568137645721436,1016.73254,
2021.02.12 11:29:52,7.0,18.0,15.820732,-40.37138,-30.121977,-0.1668592,0.7699659,9.745297,0.005907178,0.0026495368,0.0069787316,-0.078833669424057,0.017120348289608955,-2.757411241531372,1016.73254,
2021.02.12 11:29:52,7.0,18.0,16.96141,-40.22277,-30.832617,-0.10022363,0.779898,9.702886,-0.0027221143,-4.5814272E-4,0.0069558797,-0.08020124584436417,0.01032889261841774,-2.7249958515167236,1016.73254,
2021.02.12 11:29:52,7.0,18.0,16.606941,-40.313244,-30.781462,-0.09299501,0.7761292,9.762029,0.0062586884,-0.0046494016,0.0041663637,-0.07933443039655685,0.009525910019874573,-2.7335479259490967,1016.73254,
2021.02.12 11:29:52,7.0,18.0,15.781502,-39.982433,-29.907495,-0.1088379,0.78331095,9.711268,-0.0067097377,-0.0012326017,0.0042486377,-0.08048072457313538,0.011206913739442825,-2.750275135040283,1016.73254,
2021.02.12 11:29:52,7.0,18.0,15.961754,-39.23444,-29.75458,-0.07884356,0.77514935,9.780678,0.005449204,0.005211685,-0.0025976514,-0.07908526062965393,0.008060980588197708,-2.7373688220977783,1016.73254,
2021.02.12 11:29:52,7.0,18.0,17.200401,-41.139732,-28.562613,-0.0919353,0.7690434,9.717283,0.017835071,-0.003730183,-0.0038865746,-0.078973688185215,0.009460726752877235,-2.7296526432037354,1016.73254,
2021.02.12 11:29:52,7.0,18.0,15.680313,-39.998817,-28.995977,-0.113669544,0.7764811,9.745415,4.2722467E-4,0.0039012434,-0.005279519,-0.07950320839881897,0.011663371697068214,-2.753786087036133,1016.73254,
2021.02.12 11:29:52,7.0,18.0,15.545921,-40.32759,-29.286108,-0.14034139,0.8118958,9.7540865,0.019556444,-0.0014672496,-0.004512701,-0.08303648233413696,0.01438696589320898,-2.7604820728302,1016.73254,
2021.02.12 11:29:52,7.0,18.0,15.105553,-40.406727,-29.828707,-0.12221781,0.78112715,9.682281,0.0015863682,-9.750747E-4,0.0065260828,-0.0804952085018158,0.012622162699699402,-2.770617961883545,1016.73254,
2021.02.12 11:29:52,7.0,18.0,15.088097,-40.735348,-30.863947,-0.050771877,0.7883928,9.709518,0.001133539,-0.0049879146,4.5049982E-4,-0.0810190886259079,0.005229034926742315,-2.7681777477264404,1016.7327,
2021.02.12 11:29:52,7.0,18.0,15.284241,-41.343754,-29.096994,-0.092727214,0.7641487,9.716627,-0.0120014995,-8.961484E-4,-0.010433238,-0.07847832888364792,0.009542858228087425,-2.7736334800720215,1016.7327,
2021.02.12 11:29:52,7.0,18.0,15.076889,-40.483322,-30.886572,-0.15231937,0.8413782,9.749509,-1.8629828E-5,-0.0025071655,-0.0065843686,-0.0860758125782013,0.015622015111148357,-2.7719082832336426,1016.7327,
2021.02.12 11:29:52,7.0,18.0,15.172874,-40.608185,-29.526205,-0.11309602,0.7568474,9.695596,-0.034869283,-0.0058649434,0.0058398442,-0.07789769023656845,0.011664150282740593,-2.771108388900757,1016.7329,
2021.02.12 11:29:52,7.0,18.0,15.781067,-40.68332,-29.106794,-0.094678454,0.75534153,9.782641,-0.019099178,-0.002657761,7.506255E-4,-0.07705594599246979,0.009677907451987267,-2.7571654319763184,1016.733,
2021.02.12 11:29:53,7.0,18.0,15.988358,-40.627754,-29.8314,-0.1331632,0.7651415,9.750457,-0.018127477,-0.0052648513,4.7344342E-4,-0.07830461859703064,0.013656274415552616,-2.7539138793945312,1016.7332,
2021.02.12 11:29:53,7.0,18.0,15.748329,-40.23027,-29.225588,-0.08612903,0.778765,9.740146,-0.01568394,-0.0061628185,0.011212747,-0.07978131622076035,0.00884245429188013,-2.752340793609619,1016.73334,
2021.02.12 11:29:53,7.0,18.0,15.656174,-40.303047,-30.796911,-0.057831798,0.71398264,9.779632,0.001197828,-0.0015504302,-0.0021134554,-0.07287654280662537,0.005913425236940384,-2.7544026374816895,1016.7336,
2021.02.12 11:29:53,7.0,18.0,15.278404,-40.87053,-29.542025,-0.08843756,0.7417748,9.730639,-0.0070673404,0.0043643587,-0.005976646,-0.0760805532336235,0.009088315069675446,-2.769834041595459,1016.73364,
2021.02.12 11:29:53,7.0,18.0,16.168053,-40.562077,-29.69726,-0.12459114,0.770539,9.766015,0.0070423954,0.002169936,-0.002319662,-0.07873053848743439,0.01275693066418171,-2.7486093044281006,1016.73364,
2021.02.12 11:29:53,7.0,18.0,16.141441,-40.643314,-29.816412,-0.096698076,0.71843165,9.709713,-0.005593665,0.0057592476,0.0051631993,-0.07385279983282089,0.009958571754395962,-2.7495455741882324,1016.73364,
2021.02.12 11:29:53,7.0,18.0,15.977188,-40.191105,-29.190668,-0.098516494,0.7533656,9.749647,1.6954413E-4,0.0014091238,-0.0049637333,-0.07711390405893326,0.010104278102517128,-2.7484471797943115,1016.73364,
2021.02.12 11:29:53,7.0,18.0,15.494659,-40.508533,-29.244661,-0.10307176,0.7413803,9.77028,0.0074303546,0.0025440007,0.0041770795,-0.07573182880878448,0.01054912805557251,-2.7629334926605225,1016.73364,
2021.02.12 11:29:53,7.0,18.0,14.776764,-40.770153,-30.393408,-0.0766393,0.7116186,9.725226,0.00290709,0.004850819,-0.0048544863,-0.07304000854492188,0.007880302146077156,-2.7800045013427734,1016.73364,
2021.02.12 11:29:53,7.0,18.0,15.150879,-39.44659,-28.734236,-0.114671834,0.7196165,9.707394,-0.0035505886,0.006616236,-0.0016726737,-0.07399027794599533,0.011812284588813782,-2.7627134323120117,1016.7339,
2021.02.12 11:29:53,7.0,18.0,15.301659,-39.845974,-29.473936,-0.108276404,0.7199753,9.728913,0.002016189,0.009097114,-0.018107079,-0.07386445999145508,0.011128882877528667,-2.7621705532073975,1016.7339,
2021.02.12 11:29:53,7.0,18.0,15.105598,-41.51647,-30.115324,-0.15757467,0.76989716,9.69325,-0.015347788,0.014107356,0.004264567,-0.0792493000626564,0.016254691407084465,-2.7829229831695557,1016.73596,
2021.02.12 11:29:53,7.0,18.0,16.196762,-40.428383,-29.60536,-0.15462197,0.7463391,9.799997,-0.0011380101,0.0051370445,0.009296375,-0.07600092142820358,0.01577644795179367,-2.7495875358581543,1016.73737,
2021.02.12 11:29:53,7.0,18.0,14.739449,-41.55667,-29.978392,-0.07904801,0.72003025,9.727067,-0.0033807494,0.0054061934,0.014486691,-0.07388617843389511,0.008126423694193363,-2.787585735321045,1016.7374,
2021.02.12 11:29:53,7.0,18.0,16.233185,-39.929474,-29.597548,-0.10125017,0.71910316,9.770932,0.0017728274,0.0056111338,-0.010459043,-0.07345978915691376,0.01036201510578394,-2.7413032054901123,1016.7374,
2021.02.12 11:29:54,7.0,18.0,15.51844,-40.77876,-30.073553,-0.19680564,0.7904751,9.680538,-0.008930081,0.0054570055,0.0044360356,-0.08145857602357864,0.020327230915427208,-2.7693467140197754,1016.7376,
2021.02.12 11:29:54,7.0,18.0,15.710609,-40.446426,-29.862654,-0.10167501,0.69450045,9.812752,-0.0035252608,0.0042197257,0.0032460555,-0.07065370678901672,0.010361147113144398,-2.758608818054199,1016.73773,
2021.02.12 11:29:54,7.0,18.0,15.962822,-40.508118,-29.97278,-0.109562196,0.7147937,9.701007,0.005262824,0.0084529575,-0.009719657,-0.07354483753442764,0.011293419636785984,-2.7532081604003906,1016.738,
2021.02.12 11:29:54,7.0,18.0,14.960564,-40.018574,-29.914457,-0.21856809,0.7488816,9.7393465,0.0017414488,0.011062024,-0.0042448873,-0.07672213017940521,0.022437995299696922,-2.7783491611480713,1016.7385,
2021.02.12 11:29:54,7.0,18.0,16.37844,-39.844738,-29.344206,-0.17168646,0.73200244,9.868011,0.02080944,-0.06074624,-0.011939818,-0.07403255254030228,0.017396528273820877,-2.741773843765259,1016.7385,
2021.02.12 11:29:54,7.0,18.0,15.880989,-41.0093,-29.395037,-0.2384343,0.7804632,9.621209,0.0642283,-0.08661045,0.0124688,-0.08091706782579422,0.024777082726359367,-2.7664620876312256,1016.7387,
2021.02.12 11:29:54,7.0,18.0,14.416748,-40.290035,-29.716635,-0.098573856,0.7486649,9.550759,-0.03312622,-0.048832037,0.026505105,-0.07822388410568237,0.010320683009922504,-2.7846338748931885,1016.7391,
2021.02.12 11:29:54,7.0,18.0,15.404968,-40.29775,-30.346556,0.07585359,0.8054457,10.05705,-0.043649625,-0.10140365,0.062279835,-0.07991483062505722,-0.007542187813669443,-2.7490203380584717,1016.7393,
2021.02.12 11:29:54,7.0,18.0,15.165077,-39.02268,-29.871008,0.12704717,0.6917476,9.793558,0.060348943,-0.14197886,0.025066981,-0.0705098956823349,-0.012971797026693821,-2.742109537124634,1016.73975,
2021.02.12 11:29:54,7.0,18.0,15.738266,-40.4117,-30.15563,0.028200574,0.84038705,9.642795,0.07400191,-0.1355767,0.025346978,-0.08693179488182068,-0.0029245144687592983,-2.7436141967773438,1016.74,
2021.02.12 11:29:54,7.0,18.0,15.346344,-41.011696,-28.740698,0.37674537,0.7853427,9.415416,-0.10580462,0.07231772,0.06197156,-0.0831514373421669,-0.03999233618378639,-2.7374062538146973,1016.74,
2021.02.12 11:29:54,7.0,18.0,14.753349,-39.24141,-29.852404,0.4917558,0.60241574,10.231972,0.016570624,-0.02240839,-0.034836087,-0.0587402880191803,-0.048023756593465805,-2.734153985977173,1016.7401,
