Time,X-cord,Y-cord,Mag_x,Mag_y,Mag_z,Acc_x,Acc_y,Acc_z,Gyro_x,Gyro_y,Gyro_z,Orn_x,Orn_y,Orn_z,Pressure,
2021.02.12 11:44:13,36.0,16.0,6.667946,15.751796,-48.590317,-0.10927019,0.4011055,9.884311,0.18443368,-0.054755356,-0.009011266,-0.04055529087781906,0.011054462753236294,-0.33321473002433777,1016.5642,
2021.02.12 11:44:13,36.0,16.0,5.935814,17.055538,-47.963905,-0.16872479,0.55997163,9.204404,8.0089725E-4,0.016619684,0.010272667,-0.06075228750705719,0.018328823149204254,-0.2482873499393463,1016.5642,
2021.02.12 11:44:13,36.0,16.0,7.73333,17.331133,-47.784622,0.005711049,0.3309987,9.76224,-0.08174949,0.008967249,1.5392574E-4,-0.033893026411533356,-5.850141169503331E-4,-0.38890591263771057,1016.5642,
2021.02.12 11:44:13,36.0,16.0,6.4522247,16.978264,-47.913696,-0.11446816,0.48284364,9.795121,-0.04862356,-0.017450621,-0.03666495,-0.04925107583403587,0.011685709469020367,-0.2960030138492584,1016.5642,
2021.02.12 11:44:13,36.0,16.0,7.2372513,17.207357,-48.111946,-0.07561924,0.36738023,9.691254,-0.02237128,-0.030904701,-0.017004829,-0.037889134138822556,0.007802675478160381,-0.3462342917919159,1016.5642,
2021.02.12 11:44:13,36.0,16.0,5.69281,17.461231,-48.017517,-0.019439396,0.23682924,9.47441,-0.082084805,-0.021319717,-0.053023838,-0.024991469457745552,0.0020517760422080755,-0.2913331389427185,1016.5626,
2021.02.12 11:44:13,36.0,16.0,5.842079,17.889618,-49.180275,-0.40163055,0.50527513,10.0268755,-0.10005099,0.010935608,-0.06746097,-0.05030921846628189,0.04003400355577469,-0.18788303434848785,1016.5626,
2021.02.12 11:44:14,36.0,16.0,6.23761,18.051136,-47.756104,-0.29534155,0.48289046,9.8200245,-0.050932188,0.012499575,0.016019013,-0.04911230504512787,0.03006637468934059,-0.2312483787536621,1016.5611,
2021.02.12 11:44:14,36.0,16.0,5.4184113,18.006573,-47.108536,-0.013784201,0.25465688,10.071765,0.0039625885,0.0450028,-0.0024947373,-0.02527882531285286,0.0013685974990949035,-0.27205419540405273,1016.5606,
2021.02.12 11:44:14,36.0,16.0,5.7676163,19.411785,-47.66481,-0.15638965,0.28772068,9.277729,0.026162134,-0.020939618,0.008141206,-0.030997637659311295,0.01685486175119877,-0.2333543598651886,1016.56055,
2021.02.12 11:44:14,36.0,16.0,6.1951675,18.123827,-47.420883,-0.12376525,0.31852466,10.384982,-0.03320884,0.019877434,-0.023150273,-0.03065987303853035,0.01191715057939291,-0.2800871729850769,1016.56055,
2021.02.12 11:44:14,36.0,16.0,6.1950684,18.678612,-47.15792,-0.35765538,0.5069675,9.548851,0.07891733,-0.009007415,0.016867273,-0.05300508812069893,0.03743783384561539,-0.20616677403450012,1016.5596,
2021.02.12 11:44:14,36.0,16.0,6.340309,17.885263,-46.125946,-0.011987116,0.1862012,9.701615,-0.009479076,0.0062035117,0.03065516,-0.019190432503819466,0.0012355786748230457,-0.3230718672275543,1016.5594,
2021.02.12 11:44:14,36.0,16.0,6.2764206,17.678629,-47.82219,-0.11339861,0.43061534,9.791411,0.0017342397,-0.0028014341,-0.012668452,-0.04394761845469475,0.011580918915569782,-0.28179818391799927,1016.55817,
2021.02.12 11:44:14,36.0,16.0,5.6602707,18.082493,-47.952248,-0.14168982,0.38549414,9.783956,0.010249488,0.005512985,-0.0060064658,-0.0393761470913887,0.014480842277407646,-0.24382372200489044,1016.5563,
2021.02.12 11:44:14,36.0,16.0,6.5896683,17.136196,-47.089577,-0.16363166,0.37540412,9.761528,0.028199421,0.0037337427,-0.009126781,-0.03843318298459053,0.01676134578883648,-0.2971843481063843,1016.5563,
2021.02.12 11:44:14,36.0,16.0,5.584381,18.452631,-47.13851,-0.18813634,0.31507075,9.6629,0.009187323,-0.0031296248,-0.018023655,-0.03258850798010826,0.019467508420348167,-0.229386106133461,1016.5563,
2021.02.12 11:44:14,36.0,16.0,6.3622284,17.827057,-46.78772,-0.19978617,0.3740795,9.707638,-0.009936836,3.840595E-4,-0.009129386,-0.03850735351443291,0.020577402785420418,-0.2684967517852783,1016.5563,
2021.02.12 11:44:14,36.0,16.0,4.654808,17.510023,-46.953636,-0.20225173,0.38797498,9.836824,0.0057454454,0.015115911,-0.01131269,-0.039412327110767365,0.02055777795612812,-0.1883680671453476,1016.5563,
2021.02.12 11:44:14,36.0,16.0,6.087845,17.417747,-47.508842,-0.22098191,0.34521794,9.709582,0.011283267,0.009644342,-0.0047590625,-0.03553019464015961,0.022755229845643044,-0.2563081383705139,1016.5563,
2021.02.12 11:44:14,36.0,16.0,6.048622,18.33234,-47.611122,-0.19519372,0.36690164,9.668011,-0.026889242,0.013785688,4.3097232E-4,-0.0379241406917572,0.020186904817819595,-0.2475106120109558,1016.5563,
2021.02.12 11:44:14,36.0,16.0,6.2600403,16.355705,-46.394432,-0.18626694,0.34815598,9.825597,-0.021571828,0.0031569214,-5.5772485E-4,-0.03541239723563194,0.018955044448375702,-0.29053741693496704,1016.5563,
2021.02.12 11:44:15,36.0,16.0,5.9399185,18.160065,-47.932312,-0.2519781,0.39417818,9.720742,-0.029374778,0.0116136335,0.018843144,-0.04051441699266434,0.02591588906943798,-0.22959454357624054,1016.5563,
2021.02.12 11:44:15,36.0,16.0,5.171692,17.271826,-47.21157,-0.19773524,0.3107504,9.759987,-0.021255156,0.0033521915,0.020739209,-0.031821947544813156,0.0202570129185915,-0.220882385969162,1016.5563,
2021.02.12 11:44:15,36.0,16.0,6.476425,18.359745,-47.91758,-0.20436032,0.39617524,9.794583,-0.037352744,0.011537977,0.024870012,-0.04041758179664612,0.02086159959435463,-0.26363083720207214,1016.5563,
2021.02.12 11:44:15,36.0,16.0,6.7861557,17.820246,-47.77466,-0.15498507,0.32103577,9.873008,-0.013415655,0.00455512,0.031710844,-0.032501060515642166,0.0156965684145689,-0.3021039366722107,1016.5563,
2021.02.12 11:44:15,36.0,16.0,7.1975937,18.443314,-48.07605,-0.16609113,0.31648135,9.773473,0.023271397,0.002882692,0.0055899424,-0.03236568719148636,0.016992438584566116,-0.3088798224925995,1016.5563,
2021.02.12 11:44:15,36.0,16.0,6.619713,17.470507,-48.19967,-0.17198944,0.2908266,9.753708,0.010802379,0.0096391495,0.010076342,-0.029803566634655,0.0176314078271389,-0.2962164282798767,1016.5563,
2021.02.12 11:44:15,36.0,16.0,6.5097885,17.108423,-47.825584,-0.13765658,0.3545846,9.730137,0.012046911,0.0012921107,-0.005654437,-0.036422137171030045,0.014146502129733562,-0.3002009391784668,1016.5563,
2021.02.12 11:44:15,36.0,16.0,5.795204,17.626076,-47.842262,-0.09149465,0.30474523,9.812535,-0.009468023,0.016529555,-0.0172831,-0.031045397743582726,0.009323992766439915,-0.27299371361732483,1016.5563,
2021.02.12 11:44:15,36.0,16.0,8.396271,17.228151,-48.729713,-0.22393243,0.38226256,9.792911,0.056965005,1.916762E-4,-0.05532894,-0.039004627615213394,0.022862805053591728,-0.36376953125,1016.5563,
2021.02.12 11:44:15,36.0,16.0,7.4436646,17.672457,-47.72838,-0.25883088,0.40754557,9.661076,0.015243087,0.012752738,-0.019366816,-0.04214418679475784,0.02678469754755497,-0.3035431504249573,1016.5566,
2021.02.12 11:44:15,36.0,16.0,6.614235,17.046728,-46.91593,-0.22490706,0.4290769,9.825637,0.004376143,0.00537616,-0.021521278,-0.043629977852106094,0.022885823622345924,-0.28249213099479675,1016.5566,
2021.02.12 11:44:15,36.0,16.0,6.0256577,18.015518,-47.6381,-0.23794357,0.3401458,9.723849,0.032563515,-0.0054746815,-0.0137006,-0.03495585545897484,0.02446521818637848,-0.24210534989833832,1016.5566,
2021.02.12 11:44:15,36.0,16.0,6.024605,17.516176,-47.129646,-0.22308932,0.37649235,9.638989,-0.0092352815,0.009866857,-0.01913016,-0.03902903199195862,0.02314034104347229,-0.2496340423822403,1016.5566,
2021.02.12 11:44:15,36.0,16.0,5.470871,17.287746,-47.421783,-0.2793587,0.42816636,9.892139,-0.0025460003,-1.03329774E-4,0.0028897724,-0.043239276856184006,0.02823297120630741,-0.21052178740501404,1016.5566,
2021.02.12 11:44:15,36.0,16.0,7.8311996,18.117575,-48.325897,-0.24390948,0.380668,9.716839,0.015054364,-0.0012598676,0.0055901073,-0.039143774658441544,0.025096461176872253,-0.31944188475608826,1016.5566,
2021.02.12 11:44:16,36.0,16.0,6.321144,17.114426,-47.369354,-0.1938374,0.3712627,9.731084,-0.010717507,-0.0066209263,0.016776077,-0.03812619671225548,0.019916770979762077,-0.2769830822944641,1016.5566,
2021.02.12 11:44:16,36.0,16.0,7.372238,17.156883,-47.0745,-0.14416854,0.35119247,9.783093,-2.3918459E-4,-0.0068375203,-0.007718561,-0.03587859496474266,0.014735431410372257,-0.3406626582145691,1016.5566,
2021.02.12 11:44:16,36.0,16.0,7.275177,18.380173,-46.951927,-0.28568164,0.43024504,9.714585,-0.0034762798,5.99833E-4,0.008781208,-0.04424054175615311,0.029399022459983826,-0.28055083751678467,1016.5554,
2021.02.12 11:44:16,36.0,16.0,5.9768524,17.16711,-47.72754,-0.2126223,0.35701564,9.779941,-0.0055736373,-0.0045200414,0.022777915,-0.036480072885751724,0.02173723094165325,-0.2555505037307739,1016.5554,
2021.02.12 11:44:16,36.0,16.0,6.3816833,16.851719,-47.28694,-0.1719333,0.37706175,9.737094,-0.0014730312,-0.0049992683,0.027141146,-0.03869889676570892,0.01765572279691696,-0.28870534896850586,1016.5554,
2021.02.12 11:44:16,36.0,16.0,6.0280304,18.024971,-47.660362,-0.063414864,0.35542798,9.770043,-0.015530346,0.005128635,0.004111899,-0.03636256232857704,0.006490654312074184,-0.281878799200058,1016.55536,
2021.02.12 11:44:16,36.0,16.0,6.1400223,17.07441,-47.694786,-0.1488547,0.37532243,9.740742,3.209128E-5,6.934104E-4,-0.014326534,-0.038507651537656784,0.015280470252037048,-0.27879658341407776,1016.5546,
2021.02.12 11:44:16,36.0,16.0,6.1448135,17.339935,-47.051353,-0.22966266,0.39922366,9.777714,-0.014298597,0.005404558,-0.0057669156,-0.040796052664518356,0.023484062403440475,-0.2559880018234253,1016.554,
2021.02.12 11:44:16,36.0,16.0,6.4150314,16.518456,-47.623077,-0.08210338,0.3657187,9.728236,-0.014889505,0.006615308,-0.012766994,-0.037574492394924164,0.008439498022198677,-0.3174968361854553,1016.554,
2021.02.12 11:44:16,36.0,16.0,6.50383,17.116295,-48.43567,-0.13729726,0.34116325,9.894157,0.0021155353,0.0037437002,-0.03313663,-0.034464310854673386,0.013875707983970642,-0.30108898878097534,1016.554,
2021.02.12 11:44:16,36.0,16.0,6.1259537,18.354393,-47.99359,-0.24356936,0.37939468,9.64274,-0.0015546989,-0.0034530074,-0.04213373,-0.039312299340963364,0.025253979489207268,-0.23818069696426392,1016.554,
2021.02.12 11:44:16,36.0,16.0,6.5884247,17.157095,-48.194313,-0.21006113,0.35479808,9.854407,0.0023142318,-0.0015046541,-0.010643261,-0.03598029166460037,0.02131323702633381,-0.28632524609565735,1016.554,
2021.02.12 11:44:16,36.0,16.0,7.0084305,17.785103,-47.6325,-0.20276792,0.33265355,9.652497,-0.010178147,-0.0035859765,-0.021364294,-0.03444172441959381,0.02100369520485401,-0.2999694347381592,1016.554,
2021.02.12 11:44:16,36.0,16.0,6.32695,17.121994,-47.928665,-0.22307803,0.38503447,9.854681,-0.0062579024,-0.0053039365,-0.0032795486,-0.039041370153427124,0.022632893174886703,-0.26933762431144714,1016.554,
2021.02.12 11:44:16,36.0,16.0,6.498848,18.35529,-47.65789,-0.16072994,0.35728756,9.797223,0.0050576655,-0.003209209,0.0030812002,-0.0364471971988678,0.01640419103205204,-0.2772919535636902,1016.554,
2021.02.12 11:44:17,36.0,16.0,5.9633636,17.101973,-48.1342,-0.15490742,0.35982683,9.790661,0.018915778,-0.010385269,-0.0076836664,-0.036730922758579254,0.015820637345314026,-0.2690698802471161,1016.554,
2021.02.12 11:44:17,36.0,16.0,6.0260315,17.823553,-47.642006,-0.16603084,0.3671198,9.694756,0.01380188,-0.014299173,-0.003892515,-0.03784424439072609,0.01712416671216488,-0.2595629394054413,1016.554,
2021.02.12 11:44:17,36.0,16.0,5.7954025,16.66169,-48.749115,-0.12380665,0.32414496,9.79046,0.0035875295,5.3736335E-4,-0.010671407,-0.03309351205825806,0.012644967995584011,-0.27623051404953003,1016.554,
2021.02.12 11:44:17,36.0,16.0,5.38311,17.627672,-47.657608,-0.1794583,0.38573813,9.733128,0.0130389705,-0.009295519,-0.013190124,-0.03960401564836502,0.018435798585414886,-0.22692656517028809,1016.554,
2021.02.12 11:44:17,36.0,16.0,6.4505615,16.492168,-47.54326,-0.16710596,0.3489413,9.705869,-0.004260218,0.003117602,-0.0052071656,-0.035930782556533813,0.017215300351381302,-0.30016908049583435,1016.55347,
2021.02.12 11:44:17,36.0,16.0,6.35923,18.494358,-47.518974,-0.2101991,0.41866195,9.774036,-0.0016398835,-0.0020140097,3.769854E-5,-0.04279803857207298,0.021502548828721046,-0.25445595383644104,1016.5533,
2021.02.12 11:44:17,36.0,16.0,6.4696045,16.995033,-47.387207,-0.13196248,0.3427877,9.743417,-0.007353528,0.005649872,0.01357106,-0.03516374155879021,0.013542930595576763,-0.3027908504009247,1016.55273,
2021.02.12 11:44:17,36.0,16.0,6.3126526,17.358574,-48.983612,-0.16955017,0.41703692,9.801175,0.012361074,-0.0035575554,0.0067998506,-0.042517680674791336,0.01729723811149597,-0.274167001247406,1016.5526,
2021.02.12 11:44:17,36.0,16.0,5.992691,17.242731,-46.706573,-0.13971724,0.3566146,9.740871,-0.0014215473,0.005506837,0.013976305,-0.036590028554201126,0.014342418871819973,-0.27390119433403015,1016.5524,
2021.02.12 11:44:17,36.0,16.0,5.704384,18.143353,-48.48771,-0.16634275,0.42226323,9.76445,-0.0015167713,0.0013682826,0.011185438,-0.04321176931262016,0.017033899202942848,-0.23665206134319305,1016.5521,
2021.02.12 11:44:17,36.0,16.0,5.4828186,17.528706,-49.23625,-0.12504269,0.379766,9.778273,0.015564822,-0.0012202188,0.011264673,-0.038815055042505264,0.012787112966179848,-0.2447666972875595,1016.5521,
2021.02.12 11:44:17,36.0,16.0,5.6203613,16.176594,-48.35148,-0.07657142,0.33519292,9.725589,-0.0012441284,0.006472955,-0.0011832665,-0.03445034846663475,0.007873029448091984,-0.2857553958892822,1016.5521,
2021.02.12 11:44:17,36.0,16.0,5.1956863,17.765068,-47.393227,-0.14830805,0.4073185,9.748497,-0.0019055307,0.008742107,-0.0031846156,-0.041753582656383514,0.015212254598736763,-0.22298768162727356,1016.55176,
2021.02.12 11:44:17,36.0,16.0,5.561058,16.91106,-46.8086,-0.16531126,0.40023708,9.792348,-0.008834876,0.007594667,-0.0044193026,-0.04084388166666031,0.01688007451593876,-0.24833855032920837,1016.55176,
2021.02.12 11:44:17,36.0,16.0,6.4546814,17.584805,-47.63533,-0.14646858,0.38705912,9.71968,0.0024468799,9.3322946E-4,-0.0066912677,-0.03979666531085968,0.015068139880895615,-0.28651463985443115,1016.5515,
2021.02.12 11:44:18,36.0,16.0,6.145691,17.033365,-47.599007,-0.15669706,0.36028314,9.756737,-0.011655478,0.0076102754,0.0026750783,-0.03690508008003235,0.016059016808867455,-0.2790091037750244,1016.5512,
2021.02.12 11:44:18,36.0,16.0,5.7736435,18.177536,-47.064484,-0.18686585,0.43492544,9.737862,-0.008919645,5.0233E-4,0.0031316872,-0.044625476002693176,0.019187264144420624,-0.2358408272266388,1016.55115,
2021.02.12 11:44:18,36.0,16.0,6.426056,16.987862,-47.904297,-0.12473164,0.36911914,9.781407,-0.010518739,-0.0021376074,0.007837044,-0.0377158485352993,0.012751219794154167,-0.3001854121685028,1016.5509,
2021.02.12 11:44:18,36.0,16.0,6.6538925,17.296478,-48.248985,-0.16396244,0.39869788,9.775023,-0.00475608,0.0023003593,-2.3374474E-4,-0.04075908288359642,0.016772037371993065,-0.29469558596611023,1016.5509,
2021.02.12 11:44:18,36.0,16.0,6.3410416,16.855473,-46.691696,-0.1601024,0.38530183,9.738984,0.009025751,-0.004313619,8.477564E-4,-0.03953687846660614,0.016437850892543793,-0.2897472381591797,1016.55084,
2021.02.12 11:44:18,36.0,16.0,5.2469482,17.525166,-47.649727,-0.16174196,0.331749,9.8010435,-0.006518206,0.0053992067,0.0067493673,-0.03383081033825874,0.01650102622807026,-0.22905518114566803,1016.55084,
2021.02.12 11:44:18,36.0,16.0,6.0203247,18.001293,-48.312622,-0.13618936,0.34161615,9.776656,-5.933654E-4,0.009448181,0.0032888772,-0.034924428910017014,0.0139291537925601,-0.2652835547924042,1016.55066,
2021.02.12 11:44:18,36.0,16.0,6.0197678,18.038132,-47.66449,-0.1616465,0.38973877,9.717639,-0.006286983,0.011839045,0.004701674,-0.040079303085803986,0.01663280464708805,-0.2563634514808655,1016.55066,
2021.02.12 11:44:18,36.0,16.0,5.772423,18.189175,-47.452408,-0.120273255,0.3496358,9.794915,0.0018788349,0.003277579,0.0034764,-0.03567780926823616,0.012278535403311253,-0.2554268538951874,1016.55066,
2021.02.12 11:44:18,36.0,16.0,5.8356934,17.372559,-48.033226,-0.17704745,0.38885114,9.770629,-2.6002037E-4,0.0064684353,0.0028115553,-0.039770450443029404,0.018118390813469887,-0.25211381912231445,1016.55066,
2021.02.12 11:44:18,36.0,16.0,5.2647095,18.31388,-48.633675,-0.14231786,0.38403508,9.771334,0.007488038,-0.0022480143,-0.002730797,-0.03927784040570259,0.014563805423676968,-0.22169668972492218,1016.55066,
2021.02.12 11:44:18,36.0,16.0,6.5174866,17.693321,-47.603317,-0.13034509,0.31882557,9.733647,0.007823065,9.15878E-4,-0.0044041956,-0.032740358263254166,0.01339038647711277,-0.2965044677257538,1016.55066,
2021.02.12 11:44:18,36.0,16.0,5.9116898,17.578495,-47.96855,-0.21472669,0.39273944,9.748595,-0.013731949,0.0046836575,-0.0061545116,-0.040255241096019745,0.02202286198735237,-0.2439679503440857,1016.55066,
2021.02.12 11:44:18,36.0,16.0,5.9350967,16.18328,-47.643494,-0.1884191,0.3978903,9.779454,0.0044239187,-0.0040144157,0.0023648264,-0.04065638408064842,0.019264448434114456,-0.2702026069164276,1016.55066,
2021.02.12 11:44:19,36.0,16.0,5.699936,17.692509,-46.995033,-0.086167745,0.3198909,9.730242,-0.005762107,0.0138107035,-0.004198546,-0.0328628234565258,0.008855432271957397,-0.2681570053100586,1016.55066,
2021.02.12 11:44:19,36.0,16.0,5.6857986,17.218147,-47.644104,-0.16931422,0.36787072,9.7880125,0.0018444092,0.0018667626,-0.01833192,-0.03756050765514374,0.01729639619588852,-0.250483900308609,1016.55066,
2021.02.12 11:44:19,36.0,16.0,7.2020264,17.294846,-46.94969,-0.20818458,0.37332162,9.772445,-0.0049275393,0.007989532,-0.0090812985,-0.038174234330654144,0.021300002932548523,-0.3142126798629761,1016.5506,
2021.02.12 11:44:19,36.0,16.0,6.3228455,17.441402,-47.013268,-0.17621076,0.38308272,9.753331,0.0042947857,0.002572622,-1.0197284E-4,-0.039250537753105164,0.01806476153433323,-0.2766140103340149,1016.5506,
2021.02.12 11:44:19,36.0,16.0,6.2920685,17.620216,-48.257057,-0.12737365,0.3333049,9.763103,-0.0043174345,0.0068336762,-0.011800427,-0.03412308171391487,0.013045691885054111,-0.2859366834163666,1016.5506,
2021.02.12 11:44:19,36.0,16.0,6.0467834,18.34755,-47.39212,-0.20997041,0.38581744,9.759745,0.0049804477,-1.4033308E-4,-0.0129219545,-0.03950180485844612,0.02151060663163662,-0.24375103414058685,1016.55023,
2021.02.12 11:44:19,36.0,16.0,6.140442,17.363047,-46.954315,-0.16099535,0.37814188,9.758572,-0.002996054,0.0012441082,0.0028225244,-0.038725074380636215,0.016496343538165092,-0.27286508679389954,1016.55023,
2021.02.12 11:44:19,36.0,16.0,5.945122,16.838795,-46.755653,-0.097220235,0.34497032,9.73539,-0.0028085508,0.001627684,-0.016533593,-0.035418085753917694,0.009985937736928463,-0.2880867123603821,1016.55023,
2021.02.12 11:44:19,36.0,16.0,6.760269,17.582712,-46.94332,-0.19699113,0.39951524,9.799994,-1.9341777E-4,-0.0032069874,-0.02042874,-0.04073610156774521,0.02009844034910202,-0.29004228115081787,1016.55023,
2021.02.12 11:44:19,36.0,16.0,6.99807,17.167057,-47.604523,-0.19492137,0.4302756,9.786653,0.0032885124,-0.0016254685,-0.015002205,-0.04392855614423752,0.019914429634809494,-0.30449941754341125,1016.55023,
2021.02.12 11:44:19,36.0,16.0,6.373993,16.078732,-47.29621,-0.14574127,0.3562713,9.76031,0.023137664,-0.00289643,-0.015292174,-0.03648178651928902,0.014930923469364643,-0.30828991532325745,1016.55023,
2021.02.12 11:44:19,36.0,16.0,5.985382,17.241611,-47.645584,-0.20077418,0.3780047,9.676729,-0.009965897,0.007760276,-0.019977074,-0.03903502598404884,0.0207451693713665,-0.2559252381324768,1016.55023,
2021.02.12 11:44:19,36.0,16.0,5.457489,17.872404,-48.135704,-0.24733861,0.4232202,9.838882,-0.0032275114,0.0034374066,-0.0031773392,-0.04297500476241112,0.02513359859585762,-0.20991955697536469,1016.55023,
2021.02.12 11:44:19,36.0,16.0,4.9225693,17.526665,-47.843163,-0.18108666,0.35481882,9.765296,0.014909644,0.0047161723,0.0031723445,-0.03631245344877243,0.018541773781180382,-0.20655032992362976,1016.55023,
2021.02.12 11:44:19,36.0,16.0,6.441971,17.591103,-47.651375,-0.20504822,0.39300296,9.644057,-0.0030451836,0.0055026254,0.0015113922,-0.040719062089920044,0.021258411929011345,-0.2711835503578186,1016.55023,
2021.02.12 11:44:20,36.0,16.0,4.8354874,17.985268,-47.443596,-0.19544715,0.3920281,9.812766,-0.009715956,0.010705407,0.011032685,-0.039921678602695465,0.019915007054805756,-0.19333495199680328,1016.55023,
2021.02.12 11:44:20,36.0,16.0,5.4521637,17.909164,-47.32617,-0.19262862,0.41114712,9.759924,-0.005417795,0.00644646,0.011969197,-0.04209297522902489,0.019734131172299385,-0.2233334332704544,1016.55066,
2021.02.12 11:44:20,36.0,16.0,5.216591,16.917614,-46.95951,-0.24416877,0.4207604,9.778736,0.002929499,4.788062E-4,0.023280337,-0.042988184839487076,0.024964170530438423,-0.21045759320259094,1016.55066,
2021.02.12 11:44:20,36.0,16.0,6.895508,18.852877,-47.244476,-0.07554411,0.35980356,9.696655,-0.0044182674,-0.0012822878,0.029662862,-0.037087809294462204,0.007790581323206425,-0.3069375455379486,1016.55066,
2021.02.12 11:44:20,36.0,16.0,7.25531,18.565645,-47.408577,-0.09237411,0.39655423,9.815613,-0.008972008,0.0036630055,-0.004275854,-0.040376611053943634,0.009410658851265907,-0.3211595118045807,1016.55066,
2021.02.12 11:44:20,36.0,16.0,5.7010727,17.249315,-46.685158,-0.18976903,0.46153763,9.801941,0.0182062,-0.007278888,-0.0071021863,-0.04704279452562332,0.019357934594154358,-0.242008775472641,1016.55084,
2021.02.12 11:44:20,36.0,16.0,5.2673187,18.36801,-47.10804,-0.101954125,0.37158716,9.772579,0.023254192,-0.0043068286,-0.0061132316,-0.03800307214260101,0.010432294569909573,-0.2327469438314438,1016.55084,
2021.02.12 11:44:20,36.0,16.0,5.3326797,17.349316,-47.46055,-0.19427069,0.41974452,9.70117,0.012801928,7.187482E-6,-0.017524585,-0.0432317890226841,0.020022813230752945,-0.2222457081079483,1016.55084,
2021.02.12 11:44:20,36.0,16.0,5.653862,16.94178,-48.33644,-0.122017555,0.3927801,9.735604,0.0010817066,-0.0059285774,-2.6693568E-5,-0.04031967371702194,0.012532469816505909,-0.2612566649913788,1016.5512,
2021.02.12 11:44:20,36.0,16.0,6.1775665,17.552896,-47.929085,-0.18129094,0.42521074,9.731937,0.0017208864,0.003814631,-0.03332357,-0.04365696385502815,0.018626298755407333,-0.26290470361709595,1016.5514,
2021.02.12 11:44:20,36.0,16.0,5.603142,16.970507,-47.56247,-0.2703687,0.41246143,9.778007,0.0049868533,0.0025747966,0.0071921926,-0.04214148968458176,0.027643652632832527,-0.22228045761585236,1016.5514,
2021.02.12 11:44:20,36.0,16.0,6.77137,18.074959,-48.61133,-0.10765336,0.3349855,9.689139,-0.011487296,0.007387731,-0.004049148,-0.03455739840865135,0.011110267601907253,-0.30565938353538513,1016.5514,
2021.02.12 11:44:20,36.0,16.0,5.485573,18.069275,-47.869736,-0.15634328,0.3411715,9.80037,0.004702797,0.009325262,-0.017865848,-0.03479362651705742,0.01595143973827362,-0.23492082953453064,1016.5514,
2021.02.12 11:44:20,36.0,16.0,6.1415253,18.202465,-47.731102,-0.24793331,0.421239,9.639501,-0.012903219,3.2811752E-4,-0.009421097,-0.04365704581141472,0.02571488730609417,-0.23770591616630554,1016.55164,
2021.02.12 11:44:20,36.0,16.0,5.997345,17.583912,-47.935005,-0.15124442,0.39950094,9.880965,-0.013039164,-0.009869659,0.009439567,-0.040404628962278366,0.01530544925481081,-0.26349636912345886,1016.55164,
2021.02.12 11:44:21,36.0,16.0,6.6103897,18.656288,-47.40587,-0.084984206,0.38451657,10.065835,0.073006086,-0.045533326,-0.02256687,-0.03818024322390556,0.008442636579275131,-0.29475656151771545,1016.55176,
2021.02.12 11:44:21,36.0,16.0,5.5149765,16.649487,-48.800407,-0.18271041,0.55595386,9.47051,0.09152249,-0.059806615,-0.026514973,-0.058625511825084686,0.019290169700980186,-0.23049363493919373,1016.5518,
2021.02.12 11:44:21,36.0,16.0,4.288208,17.026714,-48.50737,-0.1067344,0.4326953,9.662137,-0.009769833,-3.4080865E-4,0.015510899,-0.04474993795156479,0.011046216823160648,-0.1931716352701187,1016.55194,
2021.02.12 11:44:21,36.0,16.0,5.0585175,16.990189,-47.921097,-0.087404184,0.53893536,9.850692,-0.0020434335,-0.019061117,0.006991107,-0.054653774946928024,0.008872664533555508,-0.23229579627513885,1016.55194,
2021.02.12 11:44:21,36.0,16.0,5.085579,18.065483,-48.59572,0.033428535,0.46587208,9.779714,0.025657019,-0.021571314,0.011357565,-0.047600314021110535,-0.0034181373193860054,-0.2524792551994324,1016.552,
2021.02.12 11:44:21,36.0,16.0,5.1698227,16.487244,-49.3144,-0.10595724,0.52374125,9.7747,0.033397548,-0.04508405,-0.013405537,-0.05352697893977165,0.010839523747563362,-0.23800909519195557,1016.552,
2021.02.12 11:44:21,36.0,16.0,3.9070053,16.118374,-48.542923,0.03742531,0.6101591,9.364825,0.0023679356,-0.032093056,0.008767636,-0.06506187468767166,-0.003996348939836025,-0.2100127935409546,1016.5522,
