Time,X-cord,Y-cord,Mag_x,Mag_y,Mag_z,Acc_x,Acc_y,Acc_z,Gyro_x,Gyro_y,Gyro_z,Orn_x,Orn_y,Orn_z,Pressure,
2021.02.12 11:41:44,33.0,9.0,28.173126,-1.4248729,-34.220833,-0.08420893,0.6746745,10.082248,-0.060322654,-0.093009524,-0.101812944,-0.06681513041257858,0.008352003060281277,-1.5392965078353882,1016.6211,
2021.02.12 11:41:44,33.0,9.0,27.258308,-2.3755412,-34.082268,0.3125855,0.4957219,9.613316,0.24847583,-0.107816435,-0.012924675,-0.05149337276816368,-0.03250443562865257,-1.5942362546920776,1016.6211,
2021.02.12 11:41:44,33.0,9.0,28.08255,-1.8724751,-32.98857,-0.29889914,0.76066524,9.167533,-0.066296354,0.04424518,0.011433002,-0.082740418612957,0.03259255364537239,-1.5361900329589844,1016.6211,
2021.02.12 11:41:44,33.0,9.0,28.641533,-2.9109516,-33.89543,0.094014056,0.5662325,9.943362,-0.10122685,0.022496395,0.08978674,-0.05688180774450302,-0.00945467408746481,-1.6051304340362549,1016.6211,
2021.02.12 11:41:44,33.0,9.0,27.763641,-1.3431411,-33.68226,0.17885174,0.51303595,9.826374,-0.01284888,-0.012458342,0.05864937,-0.05215411260724068,-0.01819918490946293,-1.5571242570877075,1016.6211,
2021.02.12 11:41:44,33.0,9.0,28.63559,-1.6153331,-34.111732,0.07330125,0.5959955,9.627139,-0.04224217,0.018394986,0.051356964,-0.0618271566927433,-0.007613874971866608,-1.55411958694458,1016.62067,
2021.02.12 11:41:44,33.0,9.0,28.357796,-2.014103,-34.400047,0.1091654,0.43984222,9.916677,-0.02899386,0.058851287,0.059347354,-0.04432205855846405,-0.011007818393409252,-1.5882600545883179,1016.6206,
2021.02.12 11:41:44,33.0,9.0,28.0326,-2.3951755,-33.38378,0.28497076,0.3380672,9.749965,0.06588615,0.022869071,0.008460101,-0.034645017236471176,-0.029219556599855423,-1.6144384145736694,1016.62054,
2021.02.12 11:41:44,33.0,9.0,27.619812,-1.5307388,-33.209908,0.2534372,0.35170197,9.651217,0.04295238,0.012637231,-0.044002734,-0.03641254082322121,-0.026253575459122658,-1.5829979181289673,1016.61896,
2021.02.12 11:41:44,33.0,9.0,27.518349,-2.5980911,-33.448715,0.06386899,0.38924697,9.765004,0.02275773,0.012070731,-0.054827787,-0.039839476346969604,-0.006540507078170776,-1.6165883541107178,1016.61896,
2021.02.12 11:41:44,33.0,9.0,27.077156,-3.3407965,-33.089813,-0.049461726,0.3553175,9.914907,0.035614476,0.052317914,-0.050168164,-0.03582092002034187,0.004988580942153931,-1.650472640991211,1016.618,
2021.02.12 11:41:44,33.0,9.0,27.515411,-2.8364553,-32.714836,-0.16856544,0.41774872,9.729336,0.0069513377,0.062666185,-0.04590343,-0.042904239147901535,0.017323749139904976,-1.6230944395065308,1016.6175,
2021.02.12 11:41:44,33.0,9.0,27.680916,-2.617797,-32.18853,-0.21824753,0.52776295,9.797253,-0.031785518,0.0370047,0.02933754,-0.05380312353372574,0.02227271907031536,-1.6023277044296265,1016.617,
2021.02.12 11:41:44,33.0,9.0,28.11718,-3.2804108,-32.501694,-0.06851,0.30537534,10.018077,-0.004442099,0.04978182,0.072307244,-0.030472282320261,0.006838531233370304,-1.6524521112442017,1016.617,
2021.02.12 11:41:45,33.0,9.0,28.446426,-1.4258189,-33.227547,-0.033533562,0.46285462,9.322804,0.063037716,0.0091753425,0.004739116,-0.04960652068257332,0.003596923779696226,-1.56272554397583,1016.617,
2021.02.12 11:41:45,33.0,9.0,28.766647,-1.9135532,-32.885933,-0.15405941,0.61885554,9.62192,-0.099845216,0.059954233,0.022821262,-0.06422059237957001,0.016009928658604622,-1.5626447200775146,1016.6143,
2021.02.12 11:41:45,33.0,9.0,27.425179,-2.7065325,-33.078094,-0.17041667,0.56400007,9.923743,-0.0064760516,0.015756175,0.030524608,-0.05676397681236267,0.01717093214392662,-1.6005456447601318,1016.6142,
2021.02.12 11:41:45,33.0,9.0,28.94033,-1.6858983,-33.475677,-0.043988213,0.26036516,9.563687,0.0061768675,0.047474243,0.014927642,-0.027217337861657143,0.004599471110850573,-1.5975617170333862,1016.6142,
2021.02.12 11:41:45,33.0,9.0,28.483383,-2.0534053,-33.81507,-0.40093502,0.44366384,9.610151,-0.07235552,0.051202394,-0.07869916,-0.04609336704015732,0.041695766150951385,-1.5870531797409058,1016.61346,
2021.02.12 11:41:45,33.0,9.0,28.389717,-1.011867,-31.351133,-0.7816293,0.6523499,10.189843,-0.054927442,0.0655949,-0.022544112,-0.06374561786651611,0.07655679434537888,-1.5276023149490356,1016.6133,
2021.02.12 11:41:45,33.0,9.0,28.129272,-2.4102516,-32.581116,-0.4788244,0.5217163,9.647035,0.027172273,0.027227324,0.08377272,-0.053961556404829025,0.04959366098046303,-1.5925613641738892,1016.6133,
2021.02.12 11:41:45,33.0,9.0,28.172806,-1.3693795,-31.877554,0.030690864,0.19805503,9.633809,-0.023057709,0.03988657,0.025336899,-0.02055533044040203,-0.0031857346184551716,-1.5961048603057861,1016.6133,
2021.02.12 11:41:45,33.0,9.0,29.098007,-2.014439,-31.664621,-0.3710761,0.41083756,9.813254,-0.030995928,0.021223545,-0.05973862,-0.041811298578977585,0.03779575973749161,-1.593894600868225,1016.613,
2021.02.12 11:41:45,33.0,9.0,29.045692,-1.9369082,-32.54084,-0.7575698,0.56375724,9.8991585,0.0071385875,0.012814454,-0.023186784,-0.05672306567430496,0.07637983560562134,-1.569614052772522,1016.613,
2021.02.12 11:41:45,33.0,9.0,28.815735,-1.4297233,-32.70347,-0.4968244,0.40250632,9.741386,0.03351517,-0.0014968235,0.048617437,-0.041242167353630066,0.05095725506544113,-1.5715842247009277,1016.613,
2021.02.12 11:41:45,33.0,9.0,28.622826,-2.639555,-32.128952,-0.27844942,0.33571708,9.668939,0.021636913,-0.012325435,-0.0029094801,-0.034692879766225815,0.028790386393666267,-1.6247575283050537,1016.613,
2021.02.12 11:41:45,33.0,9.0,29.537903,-2.466978,-32.35959,-0.47590038,0.46517625,9.861674,6.4441934E-4,-0.015300998,-0.0048322193,-0.04708046093583107,0.04822015389800072,-1.6021370887756348,1016.613,
2021.02.12 11:41:45,33.0,9.0,28.98143,-2.3034596,-33.56019,-0.4015205,0.39593744,9.74821,0.04404451,-0.024916114,-0.016262628,-0.04055975750088692,0.04116588085889816,-1.603187918663025,1016.613,
2021.02.12 11:41:45,33.0,9.0,29.41484,-1.856534,-33.12953,-0.40975347,0.47693947,9.671638,-0.0064502354,-0.021037351,-0.003587354,-0.049229200929403305,0.04234118014574051,-1.5766632556915283,1016.613,
2021.02.12 11:41:46,33.0,9.0,30.17337,-1.0758495,-32.36492,-0.32484263,0.45435503,9.718112,-0.012711596,-0.019735603,-0.02158809,-0.04669336602091789,0.033414073288440704,-1.554213047027588,1016.613,
2021.02.12 11:41:46,33.0,9.0,29.281029,-1.5505538,-33.039978,-0.3987083,0.46249405,9.847734,-0.0033802916,-3.3593836E-4,-0.031495325,-0.04689166694879532,0.04046521335840225,-1.5688573122024536,1016.613,
2021.02.12 11:41:46,33.0,9.0,28.319534,-2.8238697,-32.676918,-0.43538022,0.49273124,9.690005,0.00962968,-6.941506E-4,-0.021934772,-0.05075455829501152,0.04490065574645996,-1.611767053604126,1016.613,
2021.02.12 11:41:46,33.0,9.0,29.068703,-2.060258,-32.33284,-0.27075496,0.4274427,9.752136,-0.0034956974,-0.005986947,-0.017971354,-0.043785788118839264,0.027756527066230774,-1.5923925638198853,1016.613,
2021.02.12 11:41:46,33.0,9.0,29.384499,-1.292903,-32.622566,-0.29276952,0.43789372,9.783554,0.0010855268,-0.0042558326,-0.04445348,-0.04470830410718918,0.02991573140025139,-1.5635758638381958,1016.613,
2021.02.12 11:41:46,33.0,9.0,29.731178,-1.8247447,-32.799583,-0.40128097,0.43871164,9.653262,0.018321725,-0.02620917,-0.04129938,-0.04537659510970116,0.04154554381966591,-1.5806859731674194,1016.613,
2021.02.12 11:41:46,33.0,9.0,28.131409,-1.9717364,-32.956367,-0.39745426,0.42365202,9.7084875,-0.03011987,-0.009581707,-0.01741788,-0.04357316344976425,0.040915995836257935,-1.5889328718185425,1016.6133,
2021.02.12 11:41:46,33.0,9.0,28.359062,-1.7508197,-32.510635,-0.37965265,0.41898093,9.763049,0.0021472375,-0.014914059,0.009945201,-0.04285629838705063,0.038867104798555374,-1.5822529792785645,1016.61346,
2021.02.12 11:41:46,33.0,9.0,28.943886,-2.1882048,-31.839659,-0.33012933,0.38916668,9.728093,-0.007302254,-0.002654991,0.015235008,-0.039960119873285294,0.033922649919986725,-1.6022429466247559,1016.61346,
2021.02.12 11:41:46,33.0,9.0,28.601013,-2.6471186,-33.077057,-0.25807962,0.40930322,9.688699,-0.022036623,-0.013384921,0.01344554,-0.04220536723732948,0.026630882173776627,-1.6147054433822632,1016.6142,
2021.02.12 11:41:46,33.0,9.0,28.402832,-1.406539,-32.567772,-0.29078487,0.3463476,9.844374,-0.004477653,-0.012509035,0.0046717166,-0.03515246510505676,0.029529592022299767,-1.579257845878601,1016.6142,
2021.02.12 11:41:46,33.0,9.0,27.95382,-0.83444595,-33.103218,-0.3253912,0.3711454,9.581585,-0.032945994,0.0012536517,0.014875562,-0.03869364410638809,0.033947013318538666,-1.5527963638305664,1016.6142,
2021.02.12 11:41:46,33.0,9.0,28.166298,-1.7524309,-33.036972,-0.28110087,0.39283344,9.882833,-0.039346352,0.001936699,0.01973131,-0.03971211612224579,0.028435682877898216,-1.5857925415039062,1016.6142,
2021.02.12 11:41:46,33.0,9.0,28.173317,-0.96615505,-32.26863,-0.24033128,0.3734139,9.817218,-0.013401063,-0.0035055347,0.015240637,-0.03800692781805992,0.02447570115327835,-1.5603306293487549,1016.6142,
2021.02.12 11:41:46,33.0,9.0,28.864288,-0.484622,-32.26793,-0.221797,0.37235746,9.801098,-0.004942184,-0.0067415438,0.011648504,-0.03796343132853508,0.02262595109641552,-1.5436081886291504,1016.6144,
2021.02.12 11:41:47,33.0,9.0,27.314568,-1.2172375,-33.79978,-0.25690874,0.35238108,9.845096,0.01791957,-0.002842455,-0.0018605008,-0.035765111446380615,0.026089176535606384,-1.5701452493667603,1016.61456,
2021.02.12 11:41:47,33.0,9.0,27.951897,-1.573976,-33.45652,-0.2783083,0.3330916,9.774251,0.027470646,-0.0030355027,-0.0017568353,-0.034051503986120224,0.02846592850983143,-1.5858911275863647,1016.61487,
2021.02.12 11:41:47,33.0,9.0,29.81733,-2.3001156,-32.261673,-0.32494882,0.38766178,9.770215,0.019281428,0.0037465503,0.0026010084,-0.039635222405195236,0.03324687108397484,-1.6049435138702393,1016.61566,
2021.02.12 11:41:47,33.0,9.0,27.637634,-2.2356968,-33.031204,-0.25563848,0.27986434,9.788044,0.034169953,0.0014438448,0.0034535404,-0.02857494167983532,0.026111485436558723,-1.6182373762130737,1016.61566,
2021.02.12 11:41:47,33.0,9.0,28.61287,-1.3054118,-33.251297,-0.353363,0.35405278,9.666329,0.025116166,0.0015996911,-2.755071E-4,-0.036586642265319824,0.036539800465106964,-1.5726529359817505,1016.6162,
2021.02.12 11:41:47,33.0,9.0,27.214134,-1.178658,-33.113914,-0.35823593,0.37701163,9.862853,0.013666164,0.0048648794,0.0320827,-0.03818165510892868,0.03630577400326729,-1.566060185432434,1016.61633,
2021.02.12 11:41:47,33.0,9.0,28.759079,-2.4806776,-33.345222,-0.30186534,0.35805535,9.633487,0.042936306,-0.009332808,0.023797058,-0.037132471799850464,0.03132475167512894,-1.6143862009048462,1016.61633,
2021.02.12 11:41:47,33.0,9.0,28.549606,-1.435853,-33.125435,-0.28550056,0.40931877,9.627852,-0.010812491,-5.1734137E-4,0.039157704,-0.04246979579329491,0.0296449214220047,-1.570536494255066,1016.61633,
2021.02.12 11:41:47,33.0,9.0,29.02034,-0.81308126,-31.47912,-0.27881148,0.43998218,9.766216,-0.01833416,0.004058684,0.021375503,-0.04500269517302513,0.02854081615805626,-1.5480117797851562,1016.61633,
2021.02.12 11:41:47,33.0,9.0,28.813934,-2.4189463,-32.816895,-0.28178984,0.4157797,9.853103,-0.0032268106,0.018035594,0.018113103,-0.04215560853481293,0.028591303154826164,-1.6066566705703735,1016.61646,
2021.02.12 11:41:47,33.0,9.0,28.441628,-2.8973484,-33.326515,-0.34783792,0.37741554,9.7842455,0.040375896,0.017352602,0.001909218,-0.038530368357896805,0.03553584963083267,-1.628490686416626,1016.61646,
2021.02.12 11:41:47,33.0,9.0,27.354736,-0.5855117,-34.362198,-0.4433279,0.46846703,9.60573,0.017800719,0.014762858,0.018263778,-0.04867919534444809,0.04611971601843834,-1.5262737274169922,1016.6165,
2021.02.12 11:41:47,33.0,9.0,28.844086,-1.9993253,-33.691277,-0.28494096,0.44220638,9.71888,-0.024338854,0.008033363,0.024979506,-0.045448869466781616,0.029309896752238274,-1.5861953496932983,1016.61664,
2021.02.12 11:41:47,33.0,9.0,28.572845,-1.7713127,-33.25804,-0.3111823,0.5222607,9.863162,-0.026778199,4.0700467E-4,0.01286471,-0.05287497863173485,0.031539492309093475,-1.5695019960403442,1016.61676,
2021.02.12 11:41:47,33.0,9.0,27.901375,-1.9051514,-32.823387,-0.2249868,0.41480717,9.796912,-0.008560028,-0.006758865,0.0053139017,-0.042304184287786484,0.02296103723347187,-1.5887959003448486,1016.61676,
2021.02.12 11:41:48,33.0,9.0,29.38919,-1.8090849,-32.868477,-0.33085003,0.3666722,9.669399,0.0038131378,-0.013776473,-0.026621938,-0.03788057714700699,0.034202851355075836,-1.5894033908843994,1016.6168,
2021.02.12 11:41:48,33.0,9.0,29.612228,-0.693593,-33.03202,-0.46873963,0.46742892,9.787944,-0.03760055,-0.004290325,0.009415971,-0.04766478016972542,0.047852929681539536,-1.5369945764541626,1016.6169,
2021.02.12 11:41:48,33.0,9.0,27.941658,-1.4145789,-33.092606,-0.2427444,0.3798016,9.899306,0.016782727,-0.0027213243,-0.008017009,-0.03833616524934769,0.02451644092798233,-1.5751962661743164,1016.6169,
2021.02.12 11:41:48,33.0,9.0,27.900764,-2.185143,-32.967827,-0.20781021,0.35975304,9.731647,0.018586725,-0.0038822796,-0.008278633,-0.036942094564437866,0.02135082148015499,-1.6055115461349487,1016.6169,
2021.02.12 11:41:48,33.0,9.0,27.680328,-1.4860668,-33.222153,-0.22240984,0.35935643,9.665465,0.01166638,-0.020045253,-0.04472687,-0.0371524840593338,0.02300671488046646,-1.5792585611343384,1016.617,
2021.02.12 11:41:48,33.0,9.0,28.032661,-2.0480819,-32.70041,-0.41277018,0.47446704,9.853501,0.005770227,-0.0026522968,-0.03930659,-0.04807286337018013,0.041866231709718704,-1.5865353345870972,1016.617,
2021.02.12 11:41:48,33.0,9.0,28.564972,-1.8455501,-32.85669,-0.34950638,0.43128395,9.783639,0.020689819,2.1129305E-4,-0.014380027,-0.04402559623122215,0.03570837154984474,-1.583717942237854,1016.61707,
2021.02.12 11:41:48,33.0,9.0,28.56778,-1.336482,-33.049072,-0.2372229,0.3678557,9.68299,0.010551499,-0.0021161037,-0.034693204,-0.037960246205329895,0.024494029581546783,-1.5727816820144653,1016.6172,
2021.02.12 11:41:48,33.0,9.0,28.272507,-0.36574745,-33.113724,-0.30940357,0.3730308,9.7283745,0.006978575,-0.0074215787,-0.037233345,-0.03830649331212044,0.03179351985454559,-1.5363883972167969,1016.6172,
2021.02.12 11:41:48,33.0,9.0,27.650414,-0.83735514,-32.616257,-0.4355668,0.48411345,9.804076,-0.011210663,2.9120588E-4,-0.024607452,-0.04929017648100853,0.04439791664481163,-1.5391149520874023,1016.6174,
2021.02.12 11:41:48,33.0,9.0,28.58268,-0.7907767,-33.92118,-0.30133715,0.39060882,9.777162,0.017858636,-0.004009685,0.009043297,-0.03991098329424858,0.03081076219677925,-1.5490802526474,1016.6174,
2021.02.12 11:41:48,33.0,9.0,27.767776,-1.7652655,-32.725853,-0.31123456,0.4014893,9.744556,0.0033894903,-0.0016136195,-0.005422415,-0.04115714132785797,0.031928472220897675,-1.5850775241851807,1016.6174,
2021.02.12 11:41:48,33.0,9.0,28.277138,0.11512804,-33.434464,-0.33473912,0.37847176,9.712873,0.0066974973,-0.0028976237,8.541271E-4,-0.03892320767045021,0.03444981575012207,-1.5172407627105713,1016.6174,
2021.02.12 11:41:48,33.0,9.0,28.760704,-0.3522482,-32.103714,-0.3803322,0.43516287,9.759046,-0.013916327,0.003928869,0.015706934,-0.04452744126319885,0.03895255923271179,-1.5298606157302856,1016.6174,
2021.02.12 11:41:48,33.0,9.0,28.432693,-0.51253366,-32.259743,-0.28006217,0.4232527,9.7372465,0.005013231,-6.863181E-4,0.027279839,-0.04342211037874222,0.028754020109772682,-1.5372300148010254,1016.6174,
2021.02.12 11:41:49,33.0,9.0,26.686646,-1.556593,-33.18785,-0.21416335,0.36535513,9.749606,-0.0042487527,0.004589953,0.013563476,-0.037447284907102585,0.02196282520890236,-1.582022786140442,1016.6174,
2021.02.12 11:41:49,33.0,9.0,28.150658,-1.187202,-33.218124,-0.32052025,0.42769566,9.707286,-0.010640321,-5.2095053E-4,0.0055275974,-0.04400681331753731,0.03300653398036957,-1.5591332912445068,1016.6174,
2021.02.12 11:41:49,33.0,9.0,28.95288,-1.4211769,-32.547607,-0.35410234,0.46949157,9.811771,-0.013740433,7.596157E-4,0.017556887,-0.0477822981774807,0.03607388585805893,-1.5641711950302124,1016.6174,
2021.02.12 11:41:49,33.0,9.0,28.926193,-1.5677681,-32.06035,-0.24464105,0.3965768,9.717979,0.0058969245,-0.007229768,0.028632138,-0.04077303037047386,0.025168750435113907,-1.578991413116455,1016.6174,
2021.02.12 11:41:49,33.0,9.0,28.708603,0.015637398,-32.98948,-0.3179823,0.42725953,9.747065,-0.007961381,-0.004106075,0.007881946,-0.04378338158130646,0.032611824572086334,-1.5165454149246216,1016.6174,
2021.02.12 11:41:49,33.0,9.0,28.307251,-2.745389,-33.36515,-0.31708813,0.41657653,9.770691,0.0016104204,-0.006583553,0.025586132,-0.042587120085954666,0.032441604882478714,-1.6179518699645996,1016.6174,
2021.02.12 11:41:49,33.0,9.0,28.805382,-0.97634745,-32.63951,-0.25121865,0.41553643,9.783358,-0.0144315045,-0.0029845287,0.020949585,-0.042434319853782654,0.025672519579529762,-1.5550575256347656,1016.6174,
2021.02.12 11:41:49,33.0,9.0,28.316269,-0.7461891,-32.63884,-0.24652977,0.36958382,9.796449,0.019618334,-0.010744026,0.0026907097,-0.03769649937748909,0.025159908458590508,-1.5522117614746094,1016.6174,
2021.02.12 11:41:49,33.0,9.0,28.133438,0.2367754,-32.97438,-0.32858872,0.38963163,9.732384,0.010206952,-0.004140407,-0.0047421847,-0.03999042138457298,0.03374959155917168,-1.5119082927703857,1016.61743,
2021.02.12 11:41:49,33.0,9.0,28.198463,-1.0731821,-33.549187,-0.3577765,0.4011202,9.823567,0.014319759,2.1719275E-4,0.019179326,-0.04078275337815285,0.03640412911772728,-1.5583150386810303,1016.61755,
2021.02.12 11:41:49,33.0,9.0,28.453896,-0.8511858,-33.77012,-0.2490421,0.34485626,9.659268,0.0053013954,0.0015328529,0.006865168,-0.03567510470747948,0.025776997208595276,-1.557030200958252,1016.61755,
2021.02.12 11:41:49,33.0,9.0,28.80658,-1.7074428,-32.30915,-0.33935365,0.4052619,9.787847,0.008472016,-0.0039993436,0.005087422,-0.04135614633560181,0.03465703874826431,-1.5827118158340454,1016.6176,
2021.02.12 11:41:49,33.0,9.0,28.925964,-0.94406843,-32.688766,-0.32357895,0.38354096,9.725635,-4.2903703E-4,0.004244581,0.014548564,-0.03939388692378998,0.03325846046209335,-1.557094931602478,1016.6176,
2021.02.12 11:41:49,33.0,9.0,28.775932,-1.0445237,-33.124718,-0.30137423,0.39858505,9.733425,-0.012825126,0.003193834,0.02433785,-0.04090768098831177,0.030952924862504005,-1.5582938194274902,1016.61786,
2021.02.12 11:41:49,33.0,9.0,27.048767,-1.3340564,-32.69806,-0.25066295,0.36609188,9.789577,-0.0074601,6.622664E-4,0.01991365,-0.037366434931755066,0.025599492713809013,-1.5740835666656494,1016.61786,
2021.02.12 11:41:50,33.0,9.0,28.035545,-1.7022552,-33.05021,-0.29457664,0.41120648,9.748407,-0.001966544,8.5445994E-5,0.010123104,-0.042137712240219116,0.030208732932806015,-1.5809149742126465,1016.6182,
2021.02.12 11:41:50,33.0,9.0,28.713165,-0.49492073,-31.989546,-0.22750674,0.35579905,9.774407,0.008377802,-0.005135512,0.006698087,-0.036375176161527634,0.023271556943655014,-1.5460255146026611,1016.6182,
2021.02.12 11:41:50,33.0,9.0,28.214668,-1.869986,-32.79341,-0.25317475,0.3960805,9.734082,-0.012749316,0.004779362,-0.007217316,-0.040653906762599945,0.026003241539001465,-1.5893031358718872,1016.6182,
2021.02.12 11:41:50,33.0,9.0,28.517586,-1.201375,-33.587387,-0.3287299,0.41185436,9.782924,0.0034600906,-0.0073550562,-0.008347841,-0.04205076023936272,0.03358978033065796,-1.5616230964660645,1016.6182,
2021.02.12 11:41:50,33.0,9.0,28.326477,-1.3250208,-33.727043,-0.29387704,0.4085265,9.763452,-0.0017629862,-0.0018061388,0.005153563,-0.04179912060499191,0.03009062260389328,-1.566383719444275,1016.6182,
2021.02.12 11:41:50,33.0,9.0,27.320755,-1.7770834,-32.997475,-0.21825008,0.34765872,9.714593,0.0016269393,-0.0021952519,-0.012074918,-0.035762980580329895,0.022462431341409683,-1.5924116373062134,1016.6179,
2021.02.12 11:41:50,33.0,9.0,28.260254,-0.41353893,-32.833626,-0.34436083,0.42061174,9.783118,-0.016465453,-0.0013092416,-0.008440894,-0.04294060543179512,0.03518496826291084,-1.5324912071228027,1016.61786,
2021.02.12 11:41:50,33.0,9.0,28.274582,-0.08258867,-32.83738,-0.2636272,0.3802421,9.746468,0.0038531912,-0.0072694514,-0.0061653936,-0.03897931054234505,0.02704189531505108,-1.5260266065597534,1016.6176,
2021.02.12 11:41:50,33.0,9.0,28.127274,-0.22602177,-32.021606,-0.28902903,0.3582945,9.787804,-0.0039118086,0.001634316,-0.0019199359,-0.03657395392656326,0.029520928859710693,-1.5349310636520386,1016.61755,
2021.02.12 11:41:50,33.0,9.0,28.781174,-0.49669838,-33.2591,-0.335042,0.40063247,9.728653,0.011590876,-0.003132806,-0.0038583,-0.041133057326078415,0.03442507982254028,-1.5378130674362183,1016.6175,
2021.02.12 11:41:50,33.0,9.0,29.10205,-1.5433102,-32.95247,-0.32278278,0.37832817,9.745854,-0.009680837,-0.0034745957,0.022532403,-0.038778673857450485,0.03310791030526161,-1.5789393186569214,1016.6175,
2021.02.12 11:41:50,33.0,9.0,27.78511,-1.3102422,-33.37503,-0.272952,0.37752488,9.814734,0.007848257,-0.0063474555,0.018365199,-0.038431316614151,0.027803264558315277,-1.570712924003601,1016.6174,
2021.02.12 11:41:50,33.0,9.0,28.113823,-2.1498404,-33.944977,-0.25441858,0.36829865,9.651555,0.0020154451,-0.011822445,0.022241456,-0.038127779960632324,0.026354268193244934,-1.6011643409729004,1016.6172,
2021.02.12 11:41:50,33.0,9.0,28.719482,-2.245244,-33.55758,-0.2850136,0.35127354,9.865111,-0.0028871484,4.586549E-4,0.0131718,-0.035577792674303055,0.028883030638098717,-1.6075938940048218,1016.6172,
2021.02.12 11:41:50,33.0,9.0,28.078575,-1.7790899,-32.295204,-0.33938602,0.39553842,9.703445,9.83288E-4,3.8392883E-4,0.030361172,-0.04071525111794472,0.03496157377958298,-1.5865352153778076,1016.6172,
2021.02.12 11:41:51,33.0,9.0,27.44477,-1.372488,-33.400925,-0.20670296,0.31070805,9.829767,0.0019035661,1.3947084E-4,0.034142785,-0.03159139305353165,0.021025167778134346,-1.5819717645645142,1016.6172,
2021.02.12 11:41:51,33.0,9.0,28.051994,-1.0345893,-33.01861,-0.23243986,0.32028207,9.720273,0.014398269,2.8881425E-4,0.016722161,-0.032928578555583954,0.023908337578177452,-1.5680519342422485,1016.6171,
2021.02.12 11:41:51,33.0,9.0,28.157738,0.5376787,-32.713722,-0.31605306,0.3844458,9.733365,0.0027225674,-0.0011956964,0.016587064,-0.039456430822610855,0.032459694892168045,-1.5021092891693115,1016.6171,
2021.02.12 11:41:51,33.0,9.0,29.103119,-1.6754699,-33.12594,-0.23209275,0.35559705,9.835533,-4.3451693E-4,0.015782518,0.0255881,-0.036128535866737366,0.0235929973423481,-1.5868077278137207,1016.6171,
2021.02.12 11:41:51,33.0,9.0,28.67672,-1.272428,-32.260414,-0.2130117,0.34819758,9.676175,0.0036942875,0.01679948,0.008017796,-0.03596081584692001,0.022010482847690582,-1.5739914178848267,1016.6171,
2021.02.12 11:41:51,33.0,9.0,28.72821,-0.35373688,-32.814392,-0.31561005,0.36088386,9.718334,0.0034799874,0.019899294,-0.002458226,-0.0370977409183979,0.03246432542800903,-1.5383455753326416,1016.6171,
2021.02.12 11:41:51,33.0,9.0,28.798134,-1.8328161,-33.041473,-0.25481024,0.36348805,9.736901,-0.020263787,0.020914821,-0.010191293,-0.03730089217424393,0.02616357058286667,-1.59126615524292,1016.6172,
2021.02.12 11:41:51,33.0,9.0,28.62931,-1.9392362,-32.41993,-0.3994658,0.43286026,9.843232,-0.011881199,0.014050729,0.010763817,-0.043911006301641464,0.040560532361269,-1.5878127813339233,1016.6172,
2021.02.12 11:41:51,33.0,9.0,28.380898,-0.9861722,-33.637413,-0.32783234,0.34708238,9.87006,0.020321283,-0.046725724,0.0024032523,-0.03513133153319359,0.03320262208580971,-1.5624158382415771,1016.6172,
2021.02.12 11:41:51,33.0,9.0,27.935333,-1.8491526,-33.056725,-0.30152676,0.38970685,9.544525,-0.0112629775,-0.09570253,2.4185982E-5,-0.04078741371631622,0.0315810889005661,-1.5880727767944336,1016.6172,
2021.02.12 11:41:51,33.0,9.0,29.055336,-1.1339946,-32.957703,-0.238555,0.40840355,9.841808,-0.058725674,-0.06960541,0.034482896,-0.04146083816885948,0.024234194308519363,-1.5615278482437134,1016.6172,
2021.02.12 11:41:51,33.0,9.0,28.760063,-0.045372963,-33.1091,-0.11132252,0.297897,9.690446,-0.024237271,-0.04756156,0.024677198,-0.03072960674762726,0.011487358249723911,-1.5362056493759155,1016.6175,
2021.02.12 11:41:51,33.0,9.0,28.431328,-1.9006667,-32.729202,-0.09386271,0.26392677,9.823395,-0.050700083,-0.07053591,0.021682637,-0.026859479025006294,0.009554727002978325,-1.6068347692489624,1016.6175,
2021.02.12 11:41:51,33.0,9.0,26.595947,-2.1783772,-32.905823,-0.066683866,0.22650242,10.098973,0.09411131,-0.18170159,-0.015580067,-0.022424014285206795,0.006602938286960125,-1.6251851320266724,1016.61786,
2021.02.12 11:41:51,33.0,9.0,26.74443,-2.2729654,-33.78502,0.06714649,0.4719976,9.569137,0.0019164912,-0.015337162,-0.00814568,-0.049283839762210846,-0.007016869727522135,-1.5935903787612915,1016.6179,
