Time,X-cord,Y-cord,Mag_x,Mag_y,Mag_z,Acc_x,Acc_y,Acc_z,Gyro_x,Gyro_y,Gyro_z,Orn_x,Orn_y,Orn_z,Pressure,
2021.02.12 11:38:18,22.0,13.0,10.458969,-27.630878,-34.169167,-0.033326108,0.42529666,10.2267,0.08446331,-0.06793223,0.025194824,-0.04156272113323212,0.003258723998442292,-2.7652666568756104,1016.6899,
2021.02.12 11:38:18,22.0,13.0,9.353996,-28.036247,-34.661034,-0.08882526,0.4937836,9.546561,0.06082185,0.038044285,3.840665E-4,-0.05167543143033981,0.009304155595600605,-2.8096964359283447,1016.69165,
2021.02.12 11:38:18,22.0,13.0,9.830566,-28.973652,-34.08635,0.056580603,0.18572836,9.728723,-0.0046092374,0.007762913,0.018787028,-0.019088082015514374,-0.005815764889121056,-2.801240921020508,1016.69165,
2021.02.12 11:38:18,22.0,13.0,10.268608,-28.856735,-34.722557,0.060865093,0.25558767,9.865837,0.037615947,-0.03129243,0.0070902947,-0.02590004727244377,-0.0061691999435424805,-2.782773017883301,1016.69165,
2021.02.12 11:38:18,22.0,13.0,9.968956,-30.154148,-34.190964,-0.22052692,0.4273902,9.627336,0.02400224,-0.029777251,0.015219697,-0.044352658092975616,0.02290232479572296,-2.830883264541626,1016.6869,
2021.02.12 11:38:18,22.0,13.0,9.176468,-30.131618,-34.5446,-0.15049173,0.47573793,9.622657,0.0144135915,-0.037229236,0.03885439,-0.049393098801374435,0.015638036653399467,-2.846247673034668,1016.6852,
2021.02.12 11:38:18,22.0,13.0,9.035889,-28.560333,-34.910675,0.052650154,0.587473,9.905953,-0.036807086,0.016115867,0.08508089,-0.05923482030630112,-0.005314951296895742,-2.8060948848724365,1016.6849,
2021.02.12 11:38:19,22.0,13.0,8.815811,-28.42363,-34.12195,0.16588683,0.40260682,10.322868,0.11185662,-0.016148094,0.0106410105,-0.03897666558623314,-0.016068456694483757,-2.8086864948272705,1016.6849,
2021.02.12 11:38:19,22.0,13.0,9.466515,-30.217644,-34.36789,0.05541357,0.45940137,8.97935,0.06748224,-0.022141725,-8.3491975E-4,-0.05111644044518471,-0.006171144545078278,-2.8134171962738037,1016.6849,
2021.02.12 11:38:19,22.0,13.0,7.574829,-29.973423,-34.494736,0.19153081,0.22404201,9.706563,-0.08276551,-1.6877573E-4,-0.033371273,-0.02307291142642498,-0.019729532301425934,-2.865872383117676,1016.6849,
2021.02.12 11:38:19,22.0,13.0,9.166756,-28.66647,-33.117012,-0.28420183,0.72292155,9.809775,-0.09236949,0.022793492,-0.06260782,-0.07353027909994125,0.028963185846805573,-2.8374581336975098,1016.6849,
2021.02.12 11:38:19,22.0,13.0,8.279877,-28.813885,-33.350014,-0.20923853,0.71414644,10.314092,-0.015117546,0.0046460424,0.020189065,-0.06911537051200867,0.020283883437514305,-2.861541509628296,1016.685,
2021.02.12 11:38:19,22.0,13.0,9.8854065,-28.891434,-33.360893,0.09646783,0.4669671,9.657299,0.0767665,-0.026947884,0.05178963,-0.04831376299262047,-0.00998877827078104,-2.7828586101531982,1016.6852,
2021.02.12 11:38:19,22.0,13.0,9.535492,-29.408936,-34.702805,0.18786363,0.26828828,9.568125,0.028775848,-0.0093079135,-0.01048455,-0.02802705578505993,-0.019631799310445786,-2.796660900115967,1016.68536,
2021.02.12 11:38:19,22.0,13.0,8.848854,-29.069904,-34.573875,-0.091961324,0.48625255,9.798823,-0.006268907,-0.006873375,-0.023018418,-0.049580711871385574,0.009384660050272942,-2.839123010635376,1016.6862,
2021.02.12 11:38:19,22.0,13.0,9.871918,-29.609505,-35.25,-0.24689512,0.584175,9.827149,0.030312207,-0.0100890715,0.009231306,-0.0593564547598362,0.025118492543697357,-2.82533597946167,1016.6869,
2021.02.12 11:38:19,22.0,13.0,9.255913,-28.894386,-34.132446,0.030525455,0.4084504,9.663589,0.004036939,0.008305932,0.04358636,-0.042241595685482025,-0.0031588010024279356,-2.812612771987915,1016.6869,
2021.02.12 11:38:19,22.0,13.0,9.346504,-28.646069,-33.502052,0.13361816,0.34069014,9.659737,7.8367663E-4,3.2581366E-4,0.012118868,-0.035251110792160034,-0.013831602409482002,-2.798419237136841,1016.6869,
2021.02.12 11:38:19,22.0,13.0,9.512207,-28.162056,-33.639168,0.061099026,0.43245706,9.716279,-0.03201681,0.013506416,-0.01990512,-0.04447827488183975,-0.006288232281804085,-2.7916338443756104,1016.6869,
2021.02.12 11:38:19,22.0,13.0,8.529495,-28.853947,-34.5589,-0.13492535,0.6223424,9.944192,-0.011659162,0.015127112,-0.008916214,-0.062496256083250046,0.01356742437928915,-2.847719669342041,1016.6869,
2021.02.12 11:38:19,22.0,13.0,9.344933,-29.373165,-34.092926,0.03744845,0.48702195,9.719601,0.015986897,0.006605138,0.0107086785,-0.05006495863199234,-0.0038528605364263058,-2.81121826171875,1016.6869,
2021.02.12 11:38:19,22.0,13.0,8.246674,-28.255707,-34.728233,0.09852729,0.3787525,9.637664,-0.00876064,0.011298276,-0.015518509,-0.03927693888545036,-0.010222794488072395,-2.8318324089050293,1016.6869,
2021.02.12 11:38:20,22.0,13.0,8.966896,-28.925938,-34.374596,-0.05036686,0.4921753,9.719086,-0.026699938,-6.701379E-4,-0.034254268,-0.05059618502855301,0.005182216875255108,-2.8285105228424072,1016.6869,
2021.02.12 11:38:20,22.0,13.0,9.532822,-29.781303,-34.052696,-0.024500186,0.49596176,9.812754,-0.026733413,-0.0047265296,-0.016020149,-0.05049943923950195,0.0024967645294964314,-2.8164193630218506,1016.6862,
2021.02.12 11:38:20,22.0,13.0,10.840858,-28.750584,-33.547035,-0.014967074,0.47058234,9.759437,-0.014283789,-0.007824157,-0.03656655,-0.04818081110715866,0.0015335989883169532,-2.7627060413360596,1016.6859,
2021.02.12 11:38:20,22.0,13.0,9.42421,-28.717178,-33.473763,-0.001401259,0.42469135,9.834892,-0.012762627,-0.0028985601,-0.038707804,-0.04315529018640518,1.4247831131797284E-4,-2.8087403774261475,1016.6859,
2021.02.12 11:38:20,22.0,13.0,9.4410095,-29.67443,-33.44902,-0.05795291,0.41889036,9.791643,0.0125059895,-0.0101111345,-0.041895345,-0.04275357350707054,0.005918540060520172,-2.825025796890259,1016.6859,
2021.02.12 11:38:20,22.0,13.0,8.936401,-28.9729,-34.31408,-0.09048182,0.42924008,9.785596,0.015077766,-0.005642968,-0.037659485,-0.04383450746536255,0.009246164932847023,-2.837233543395996,1016.6859,
2021.02.12 11:38:20,22.0,13.0,10.279663,-28.164078,-33.71199,-0.038565118,0.44854498,9.754254,0.02754362,-0.010399779,-0.02645216,-0.04595182090997696,0.003953651059418917,-2.776986598968506,1016.6862,
2021.02.12 11:38:20,22.0,13.0,10.539978,-29.58601,-33.67312,-0.031592425,0.44022545,9.78154,0.009614954,-6.32521E-4,-0.025188277,-0.0449751615524292,0.003229789435863495,-2.7854530811309814,1016.6869,
2021.02.12 11:38:20,22.0,13.0,9.835686,-29.835987,-32.82434,-0.0153498845,0.46442795,9.737319,0.030525558,-0.005308138,-0.028568324,-0.0476594902575016,0.0015763960545882583,-2.808051586151123,1016.6872,
2021.02.12 11:38:20,22.0,13.0,10.202774,-28.807034,-34.20462,-0.04628092,0.44301748,9.75084,6.360772E-4,0.0031108505,-0.0271304,-0.04540204256772995,0.0047463164664804935,-2.78825044631958,1016.68744,
2021.02.12 11:38:20,22.0,13.0,10.581772,-29.596687,-33.845688,-0.09834973,0.49205902,9.732093,0.015475907,-0.005437915,-0.03105013,-0.05051485821604729,0.010105367749929428,-2.7892138957977295,1016.68744,
2021.02.12 11:38:20,22.0,13.0,10.432404,-29.073391,-33.50692,-0.0879767,0.48840678,9.720546,-0.0073716184,0.0023945265,-0.0025672142,-0.05020051822066307,0.009050345979630947,-2.7869246006011963,1016.6875,
2021.02.12 11:38:20,22.0,13.0,10.426407,-28.454784,-33.148026,-0.007415822,0.4365158,9.743484,-0.009112421,0.0020684418,-0.009913088,-0.04477084055542946,7.611056789755821E-4,-2.7731668949127197,1016.68774,
2021.02.12 11:38:20,22.0,13.0,9.667259,-28.971508,-33.641556,-0.10379648,0.5104666,9.756266,-0.0051819026,0.0046788445,-0.0076140007,-0.05227129906415939,0.010638554580509663,-2.8115012645721436,1016.688,
2021.02.12 11:38:20,22.0,13.0,10.651939,-29.9412,-33.38156,-0.090756185,0.50199145,9.776466,-0.002395346,0.007708415,0.0056051346,-0.05129966139793396,0.009282860904932022,-2.789926767349243,1016.688,
2021.02.12 11:38:21,22.0,13.0,9.362427,-29.468018,-34.164703,-0.045903206,0.47306958,9.742467,0.01482989,0.0039792974,0.012137768,-0.048518821597099304,0.004711626563221216,-2.821681261062622,1016.68805,
2021.02.12 11:38:21,22.0,13.0,9.965248,-29.501354,-33.01349,-0.04564221,0.5170933,9.695527,-0.0030044117,0.016381687,0.015642632,-0.05328211188316345,0.004707518499344587,-2.8012194633483887,1016.68835,
2021.02.12 11:38:21,22.0,13.0,11.656113,-29.814018,-35.178093,-0.027956098,0.5420577,9.818134,-4.3219293E-4,0.0070944084,0.0072082803,-0.055153630673885345,0.0028473862912505865,-2.747994899749756,1016.68854,
2021.02.12 11:38:21,22.0,13.0,10.505638,-28.881302,-34.320755,-0.02816137,0.5352016,9.742592,0.017178077,-0.0015441473,-0.002658522,-0.05487881973385811,0.0028905337676405907,-2.773139238357544,1016.68854,
2021.02.12 11:38:21,22.0,13.0,10.349205,-28.847507,-34.023094,-0.05430375,0.5259325,9.793815,0.020600654,-0.015343704,0.011671737,-0.05364811792969704,0.005544641986489296,-2.7814109325408936,1016.68866,
2021.02.12 11:38:21,22.0,13.0,12.282677,-29.380966,-34.398468,-0.037447963,0.5207285,9.687377,0.027541108,-0.00910157,0.011699996,-0.05370121821761131,0.00386562617495656,-2.7254371643066406,1016.68866,
2021.02.12 11:38:21,22.0,13.0,10.723381,-28.986725,-34.037865,-0.032995794,0.57582617,9.761569,0.0034676953,-0.014543455,0.01194715,-0.0589204803109169,0.0033801603130996227,-2.7663376331329346,1016.68866,
2021.02.12 11:38:21,22.0,13.0,10.527946,-28.933609,-34.786118,-0.014161855,0.620308,9.695923,-0.009502206,0.012967984,0.01107268,-0.0638890266418457,0.0014605979667976499,-2.767049789428711,1016.68884,
2021.02.12 11:38:21,22.0,13.0,10.705429,-29.3055,-32.995644,-0.016771078,0.60061985,9.786892,-0.0064009265,0.014218576,0.0039618188,-0.061292864382267,0.0017136248061433434,-2.768784761428833,1016.6889,
2021.02.12 11:38:21,22.0,13.0,11.719757,-28.250908,-34.15725,-0.049183648,0.55338115,9.734592,-0.012827336,0.025756879,0.0056568077,-0.056785035878419876,0.005052418448030949,-2.7273693084716797,1016.6893,
2021.02.12 11:38:21,22.0,13.0,10.838112,-29.023216,-34.83545,-0.13378601,0.5536621,9.783916,-0.008629473,0.019442087,0.015778389,-0.05652344599366188,0.013673222623765469,-2.775196075439453,1016.6893,
2021.02.12 11:38:21,22.0,13.0,10.235176,-29.970947,-32.512726,-0.105926804,0.55314654,9.713348,-0.011784515,0.013514972,0.024877226,-0.05688223987817764,0.01090485043823719,-2.8031325340270996,1016.68945,
2021.02.12 11:38:21,22.0,13.0,9.6502075,-28.82745,-34.509064,-0.09233291,0.57423264,9.872125,0.0071649873,0.009173117,0.029240916,-0.05809907242655754,0.009352617897093296,-2.8063297271728516,1016.6897,
2021.02.12 11:38:21,22.0,13.0,9.838432,-29.254261,-33.59015,-0.0951296,0.5999724,9.73151,0.022932582,0.009616167,0.03189468,-0.06157167628407478,0.00977510865777731,-2.8044095039367676,1016.6897,
2021.02.12 11:38:21,22.0,13.0,9.785782,-29.044533,-33.912697,-0.13192971,0.6033016,9.910169,0.06884718,-0.00893112,0.03347309,-0.06079661101102829,0.013311773538589478,-2.807880163192749,1016.6897,
2021.02.12 11:38:22,22.0,13.0,10.16494,-29.188194,-34.14058,-0.15758775,0.6364011,9.54828,0.049827643,-0.0023644106,0.057859506,-0.06654340028762817,0.016502810642123222,-2.798121929168701,1016.6897,
2021.02.12 11:38:22,22.0,13.0,10.519447,-29.3885,-32.94967,-0.037675668,0.57665235,9.621002,-0.03487841,0.016241424,0.056532744,-0.05986475199460983,0.003915961366146803,-2.778676986694336,1016.6895,
2021.02.12 11:38:22,22.0,13.0,8.699905,-28.499683,-34.388596,-0.013959861,0.5511592,9.727982,-0.030475065,0.0047502266,0.01807726,-0.056596532464027405,0.001435020356439054,-2.826153039932251,1016.6895,
2021.02.12 11:38:22,22.0,13.0,10.287788,-28.215946,-34.849937,-0.11669376,0.5530035,9.669089,-0.03927662,-8.278317E-5,-3.2801437E-4,-0.05712652951478958,0.012068158015608788,-2.781097173690796,1016.6895,
2021.02.12 11:38:22,22.0,13.0,10.791733,-29.8942,-34.239716,-0.15045299,0.5850444,9.785294,-0.053811733,0.007969197,-8.093084E-4,-0.059710003435611725,0.015374206937849522,-2.787766695022583,1016.6895,
2021.02.12 11:38:22,22.0,13.0,10.263062,-29.979195,-34.057137,-0.16157643,0.5911925,9.763669,-0.039245848,-0.003825994,0.00707373,-0.06046814098954201,0.016547231003642082,-2.806568145751953,1016.6895,
2021.02.12 11:38:22,22.0,13.0,10.052422,-29.796707,-33.954628,-0.11294433,0.5349081,9.847041,-0.033728108,-0.0013083287,0.010316541,-0.05426480993628502,0.011469372548162937,-2.808256149291992,1016.6895,
2021.02.12 11:38:22,22.0,13.0,9.363823,-28.7019,-33.72088,-0.1892361,0.60229516,9.835072,-0.004098532,-0.012732713,0.005198918,-0.061151858419179916,0.01923857443034649,-2.8247790336608887,1016.6895,
2021.02.12 11:38:22,22.0,13.0,10.984436,-28.821846,-34.983047,-0.16904132,0.5563552,9.798254,0.008860073,-0.01708541,0.032213192,-0.056711722165346146,0.017250478267669678,-2.771867275238037,1016.6895,
2021.02.12 11:38:22,22.0,13.0,9.732811,-29.029003,-34.14643,-0.05959539,0.52594095,9.77523,0.025792152,-0.015313208,0.028347759,-0.05375060811638832,0.006096495781093836,-2.8041908740997314,1016.68945,
2021.02.12 11:38:22,22.0,13.0,9.544586,-29.466385,-34.256187,-0.1117933,0.5694506,9.742358,0.027338661,-0.009885352,0.025242142,-0.058380741626024246,0.011474470607936382,-2.819387674331665,1016.68945,
2021.02.12 11:38:22,22.0,13.0,11.096397,-29.772686,-32.853256,-0.03144728,0.4726436,9.740417,0.01805254,-0.009807652,-9.075592E-4,-0.04848567768931389,0.0032285244669765234,-2.7692975997924805,1016.68945,
2021.02.12 11:38:22,22.0,13.0,9.277817,-29.01109,-33.65152,-0.09356597,0.5417482,9.712014,0.0066613634,-3.59676E-4,-0.002002801,-0.055720917880535126,0.00963374599814415,-2.8223633766174316,1016.68945,
2021.02.12 11:38:22,22.0,13.0,10.357933,-29.005993,-33.215202,-0.09567765,0.50778836,9.784794,0.01128836,4.83563E-4,-0.017997088,-0.05184667184948921,0.009777885861694813,-2.7887094020843506,1016.68945,
2021.02.12 11:38:22,22.0,13.0,8.969391,-29.368114,-32.931,-0.14994998,0.5319791,9.693447,0.007445303,-0.0013586789,-0.012341266,-0.054818738251924515,0.015467978082597256,-2.8433048725128174,1016.68945,
2021.02.12 11:38:23,22.0,13.0,9.763496,-29.828663,-34.19655,-0.08941323,0.46664676,9.708019,-0.008745062,-8.140288E-4,-0.006586072,-0.04802916944026947,0.009209983982145786,-2.8177525997161865,1016.68945,
2021.02.12 11:38:23,22.0,13.0,9.331314,-28.98796,-33.511368,-0.14847068,0.54561543,9.719735,-0.012996558,-0.00399846,7.3005026E-4,-0.05606942996382713,0.015273991040885448,-2.826525926589966,1016.68945,
2021.02.12 11:38:23,22.0,13.0,11.01355,-30.7593,-33.208755,-0.11069888,0.5106221,9.767091,-0.019998726,0.00512075,0.013312779,-0.05222895368933678,0.011333378963172436,-2.7897987365722656,1016.6892,
2021.02.12 11:38:23,22.0,13.0,10.065941,-29.625603,-33.37751,-0.11011494,0.5250142,9.748389,-0.014926967,-0.0013169111,0.01612207,-0.05380110442638397,0.011295225471258163,-2.806051731109619,1016.6892,
2021.02.12 11:38:23,22.0,13.0,10.767853,-29.771122,-33.51538,-0.022141427,0.47286245,9.751388,-0.019652069,0.0069778534,0.013947667,-0.04845373332500458,0.002270588418468833,-2.7781572341918945,1016.6892,
2021.02.12 11:38:23,22.0,13.0,10.771538,-28.157162,-34.28047,-0.07094712,0.4933518,9.721108,-0.019646555,0.003049913,0.0027406807,-0.050705716013908386,0.007298124022781849,-2.762091636657715,1016.68884,
2021.02.12 11:38:23,22.0,13.0,9.455109,-28.86348,-34.11081,-0.100678004,0.5076527,9.845189,-0.027432065,0.003106549,0.013627229,-0.05151521414518356,0.010225755162537098,-2.8170337677001953,1016.68726,
2021.02.12 11:38:23,22.0,13.0,10.176758,-29.496078,-33.84397,-0.12819658,0.52099866,9.785916,-0.0031284,0.0027858554,0.009642988,-0.0531848669052124,0.013099361211061478,-2.8031256198883057,1016.687,
2021.02.12 11:38:23,22.0,13.0,10.01667,-28.652573,-33.00276,-0.04296497,0.43991998,9.7682295,0.0029153973,0.005531542,0.0022678028,-0.0450049489736557,0.004398411605507135,-2.792708158493042,1016.687,
2021.02.12 11:38:23,22.0,13.0,10.3259735,-28.118343,-33.672333,-0.12057044,0.4530027,9.732475,-0.007625567,0.006913917,0.0018347034,-0.046508342027664185,0.012387832626700401,-2.7840018272399902,1016.68665,
2021.02.12 11:38:23,22.0,13.0,11.267532,-29.577972,-34.132553,-0.1361963,0.45878816,9.7889185,-0.006234812,0.010182485,7.714988E-4,-0.04682932049036026,0.013912416994571686,-2.7730095386505127,1016.68665,
2021.02.12 11:38:23,22.0,13.0,11.195404,-29.508305,-32.855316,-0.14860624,0.45490828,9.777115,0.0061591947,0.004138754,9.903426E-4,-0.04648897051811218,0.015198225155472755,-2.776043176651001,1016.68634,
2021.02.12 11:38:23,22.0,13.0,11.186295,-28.061028,-33.44513,-0.13043945,0.44221482,9.749303,0.0064484165,0.002578092,0.004771013,-0.04532349109649658,0.013378563337028027,-2.756744146347046,1016.6856,
2021.02.12 11:38:23,22.0,13.0,10.197983,-28.494923,-33.123055,-0.15010025,0.44708088,9.7255745,-1.0471966E-4,0.0072978796,0.0028296555,-0.04593180865049362,0.015432335436344147,-2.7964210510253906,1016.6856,
2021.02.12 11:38:23,22.0,13.0,9.385811,-29.068943,-32.830666,-0.18798535,0.49673405,9.744576,-0.0035035536,0.0014478429,0.0056492467,-0.05092189460992813,0.019288886338472366,-2.831941843032837,1016.6856,
2021.02.12 11:38:24,22.0,13.0,10.352432,-28.959904,-33.90213,-0.15668748,0.4810718,9.7870455,-0.0025502036,0.00936945,0.017712004,-0.049108121544122696,0.01600831374526024,-2.7961220741271973,1016.6856,
2021.02.12 11:38:24,22.0,13.0,8.943779,-28.73938,-34.569748,-0.1698194,0.4914323,9.703027,-0.004360056,9.735702E-4,0.015564484,-0.05059634521603584,0.017499906942248344,-2.8415279388427734,1016.6856,
2021.02.12 11:38:24,22.0,13.0,10.903801,-29.927471,-32.460045,-0.14734358,0.4803889,9.759937,-0.014218183,0.007804359,0.017067548,-0.0491752102971077,0.015095628798007965,-2.7888901233673096,1016.6856,
2021.02.12 11:38:24,22.0,13.0,9.976303,-28.97248,-34.204987,-0.120736815,0.46880734,9.825033,0.0033729079,0.007109444,0.01142013,-0.04767584055662155,0.012288074940443039,-2.8049521446228027,1016.6856,
2021.02.12 11:38:24,22.0,13.0,10.740547,-28.08791,-34.041306,-0.17598636,0.48281097,9.735805,0.0068284064,0.008318112,-2.1137833E-4,-0.04954260215163231,0.01807423308491707,-2.7748899459838867,1016.6856,
2021.02.12 11:38:24,22.0,13.0,9.9824295,-29.305687,-34.30088,-0.21882512,0.5123712,9.750788,0.0039446624,0.007809371,0.0072992956,-0.05248517170548439,0.02243802137672901,-2.817915439605713,1016.6856,
2021.02.12 11:38:24,22.0,13.0,10.0644,-28.669586,-33.26895,-0.17391731,0.45784107,9.74916,0.0064144293,0.013424488,0.009204599,-0.04692016914486885,0.017837319523096085,-2.805079221725464,1016.6856,
2021.02.12 11:38:24,22.0,13.0,10.281151,-28.389477,-34.06897,-0.21387875,0.5080479,9.733852,8.3294325E-4,0.0025269429,0.008875857,-0.052134037017822266,0.021969137713313103,-2.7971324920654297,1016.6856,
2021.02.12 11:38:24,22.0,13.0,11.173157,-28.642399,-34.457428,-0.16063417,0.4559878,9.705758,-0.0046369596,-6.990058E-4,0.0057585584,-0.04694022983312607,0.01654888689517975,-2.7672605514526367,1016.6856,
2021.02.12 11:38:24,22.0,13.0,10.337921,-28.616322,-34.704803,-0.23195839,0.51808465,9.77566,-0.002678927,-0.002791205,-0.001417591,-0.05293300375342369,0.023723704740405083,-2.7996912002563477,1016.6856,
2021.02.12 11:38:24,22.0,13.0,10.797287,-28.674232,-33.854317,-0.25301936,0.5443656,9.771093,-0.00787132,-0.003387924,0.023620248,-0.05563569813966751,0.025888897478580475,-2.786346912384033,1016.6856,
2021.02.12 11:38:24,22.0,13.0,10.919586,-27.960236,-33.51545,-0.16634203,0.4878753,9.712523,0.008405404,-0.0050963415,0.012426092,-0.0501820407807827,0.017124878242611885,-2.766019344329834,1016.6856,
2021.02.12 11:38:24,22.0,13.0,10.613014,-29.573849,-33.772667,-0.18909264,0.5081594,9.834743,-0.0018567194,0.0028679997,0.020770425,-0.051614392548799515,0.019224634394049644,-2.7973010540008545,1016.68567,
2021.02.12 11:38:24,22.0,13.0,10.3989105,-29.401516,-34.648697,-0.2305354,0.5319956,9.679458,0.0047667725,-0.008691574,0.01716351,-0.054890528321266174,0.023812472820281982,-2.80602765083313,1016.68604,
2021.02.12 11:38:24,22.0,13.0,10.293297,-27.864948,-34.374504,-0.13253583,0.51552844,9.7853,-0.002089248,-0.003739619,0.023154544,-0.05263048782944679,0.013543552719056606,-2.7803728580474854,1016.68604,
2021.02.12 11:38:25,22.0,13.0,10.016899,-29.403503,-34.09288,-0.16040768,0.45418873,9.761857,0.0052369195,-0.01492376,0.020874508,-0.046487078070640564,0.016430608928203583,-2.8135249614715576,1016.6861,
2021.02.12 11:38:25,22.0,13.0,9.500969,-29.410267,-33.00506,-0.08198294,0.49533415,9.806478,0.010484625,-0.008751469,0.030612342,-0.05046626180410385,0.008359885774552822,-2.820164680480957,1016.6865,
2021.02.12 11:38:25,22.0,13.0,9.911697,-28.954334,-34.105736,-0.12409303,0.55269486,9.721161,0.013546736,-0.009336803,0.0062096985,-0.056789059191942215,0.012764554470777512,-2.8036675453186035,1016.6865,
2021.02.12 11:38:25,22.0,13.0,10.216476,-28.241108,-33.171844,-0.14606515,0.48038733,9.736782,0.015109357,-0.0074201887,-6.344635E-5,-0.04929187148809433,0.015000252053141594,-2.790902614593506,1016.68665,
2021.02.12 11:38:25,22.0,13.0,9.843933,-29.008411,-34.792313,-0.21659736,0.56400496,9.711478,-6.375868E-4,-0.0020995894,0.005884429,-0.05799656733870506,0.02229953557252884,-2.816877603530884,1016.68665,
2021.02.12 11:38:25,22.0,13.0,10.888748,-28.68887,-34.119698,-0.1662073,0.5430064,9.824861,0.012934711,-0.006500133,0.013395549,-0.05520455911755562,0.016915399581193924,-2.7737488746643066,1016.687,
2021.02.12 11:38:25,22.0,13.0,10.180717,-29.491783,-34.176964,-0.12744695,0.5457306,9.680775,0.0037524397,-0.0017408067,0.018192535,-0.056308142840862274,0.01316419243812561,-2.801685094833374,1016.6873,
2021.02.12 11:38:25,22.0,13.0,9.975342,-28.942337,-33.67885,-0.11270065,0.5333794,9.786574,0.00591161,-0.0030193154,0.008404179,-0.054443661123514175,0.011515334248542786,-2.8011157512664795,1016.68805,
2021.02.12 11:38:25,22.0,13.0,10.808914,-29.097702,-33.7567,-0.17712907,0.56707066,9.66121,0.0031794012,-0.012606286,0.015110537,-0.05861851945519447,0.018331991508603096,-2.7814862728118896,1016.68823,
2021.02.12 11:38:25,22.0,13.0,10.169449,-28.850468,-34.417274,-0.06486927,0.5455112,9.74797,-0.048744354,0.01100593,0.016641194,-0.05590197443962097,0.00665454613044858,-2.7873735427856445,1016.68823,
2021.02.12 11:38:25,22.0,13.0,10.308487,-27.843739,-33.68206,-0.21502948,0.646975,9.904224,0.03603671,0.0043350975,-0.01993757,-0.06521513313055038,0.021707475185394287,-2.78336501121521,1016.68835,
2021.02.12 11:38:25,22.0,13.0,9.6909485,-29.799412,-34.956635,-0.14598757,0.4915447,9.738242,0.025487594,-0.037391767,0.011540946,-0.05042725056409836,0.01499003916978836,-2.8251538276672363,1016.6885,
2021.02.12 11:38:25,22.0,13.0,8.992973,-28.904583,-34.773895,-0.041438553,0.5604646,9.73664,0.044102233,-0.059576135,-0.04554903,-0.05749845877289772,0.004255914129316807,-2.823438882827759,1016.6885,
2021.02.12 11:38:25,22.0,13.0,10.545418,-31.073765,-34.06807,-0.14836906,0.64491373,9.868743,0.0836385,-0.06867722,-0.053174887,-0.0652489885687828,0.015033109113574028,-2.8061437606811523,1016.6885,
2021.02.12 11:38:26,22.0,13.0,10.434349,-30.67414,-33.640686,-0.16242339,0.77514935,9.71602,0.088236846,-0.11260253,-0.04290299,-0.07960084825754166,0.016715513542294502,-2.8014206886291504,1016.68994,
2021.02.12 11:38:26,22.0,13.0,9.347694,-29.968613,-33.440308,0.061876297,0.73904735,9.622669,0.08446595,-0.10382855,0.029352339,-0.07665068656206131,-0.0064301746897399426,-2.804952621459961,1016.6911,
2021.02.12 11:38:26,22.0,13.0,9.170456,-29.446999,-32.994347,0.16131954,0.7900073,9.767535,0.04820616,-0.06698008,-0.0062548323,-0.0806942880153656,-0.016514388844370842,-2.7927074432373047,1016.69257,
2021.02.12 11:38:26,22.0,13.0,10.335602,-29.99368,-33.330307,0.22844636,0.89238137,9.603836,0.11951852,-0.09740367,-0.0047952076,-0.0926271602511406,-0.023782506585121155,-2.748194932937622,1016.69257,
2021.02.12 11:38:26,22.0,13.0,9.435287,-30.88322,-32.40915,0.16865669,0.8558662,9.663488,-0.024250653,0.036108445,-0.02445364,-0.08832312375307083,-0.017451211810112,-2.7976696491241455,1016.6929,
2021.02.12 11:38:26,22.0,13.0,9.713547,-30.323315,-33.426224,0.13749756,0.93889135,9.921009,0.030012581,-0.015482001,-0.015454503,-0.09434664994478226,-0.013858344405889511,-2.7818126678466797,1016.6929,
