Time,X-cord,Y-cord,Mag_x,Mag_y,Mag_z,Acc_x,Acc_y,Acc_z,Gyro_x,Gyro_y,Gyro_z,Orn_x,Orn_y,Orn_z,Pressure,
2021.02.12 11:35:39,17.0,18.0,39.916748,1.8397906,-34.908447,-0.21273176,0.6021461,9.829311,0.12900205,-0.032053195,-0.05300048,-0.06116950139403343,0.02163921296596527,-1.4684113264083862,1016.70557,
2021.02.12 11:35:39,17.0,18.0,40.085358,1.1618199,-36.168877,-0.5352566,0.70886517,9.51168,-0.004268353,0.0020036646,0.023414928,-0.07427117228507996,0.05621432885527611,-1.4657529592514038,1016.70557,
2021.02.12 11:35:39,17.0,18.0,39.629745,1.4045477,-36.397476,-0.17451482,0.5046932,9.75711,-0.052807115,-0.01961091,0.05926234,-0.051671382039785385,0.01788400672376156,-1.4858425855636597,1016.70557,
2021.02.12 11:35:39,17.0,18.0,40.729996,1.4265118,-35.866783,-0.1114696,0.602503,9.791472,-0.015506317,-0.0070145517,0.022522608,-0.0614519827067852,0.011383863165974617,-1.4803951978683472,1016.70514,
2021.02.12 11:35:40,17.0,18.0,40.20117,0.8811331,-35.911224,-0.0934813,0.4798727,9.434388,-0.03857647,9.095572E-4,0.04624698,-0.05081792175769806,0.00990824680775404,-1.5025277137756348,1016.70483,
2021.02.12 11:35:40,17.0,18.0,40.59474,0.8426695,-34.404778,0.09058719,0.28835645,9.595441,-0.11286688,0.009899881,0.003127618,-0.030041025951504707,-0.009440368041396141,-1.5252697467803955,1016.70447,
2021.02.12 11:35:40,17.0,18.0,41.21721,1.4893372,-35.803726,-0.15289064,0.59600216,9.830121,-0.09159977,0.0072804317,-0.06257508,-0.06054876372218132,0.015552027150988579,-1.4802405834197998,1016.704,
2021.02.12 11:35:40,17.0,18.0,39.568054,0.4058814,-34.988075,-0.28112468,0.6022077,10.113006,-0.07508403,0.034605786,-0.015532735,-0.059454698115587234,0.02779117412865162,-1.504831075668335,1016.704,
2021.02.12 11:35:40,17.0,18.0,39.763977,1.4186435,-35.57502,-0.3441091,0.52114624,9.931439,0.087528706,7.763592E-4,-0.03842529,-0.05239491909742355,0.034634605050086975,-1.4840000867843628,1016.70306,
2021.02.12 11:35:40,17.0,18.0,39.62883,1.4931622,-36.212112,-0.2606635,0.499365,9.579656,0.024978388,0.003484089,0.045128915,-0.052061278373003006,0.027203401550650597,-1.482211709022522,1016.7029,
2021.02.12 11:35:40,17.0,18.0,39.23903,1.5781529,-35.56417,-0.15658252,0.45882356,9.727429,0.01771955,0.001018988,0.0035921063,-0.04712698981165886,0.016095617786049843,-1.4861255884170532,1016.7021,
2021.02.12 11:35:40,17.0,18.0,40.319,1.0258718,-34.942368,-0.25064808,0.6133233,9.91889,0.005343316,0.017592218,-0.003510835,-0.06173557788133621,0.025264393538236618,-1.4887484312057495,1016.70197,
2021.02.12 11:35:40,17.0,18.0,40.701294,0.1681819,-35.5748,-0.22139959,0.54614323,9.775836,0.069772355,0.021556973,-0.015563027,-0.055794358253479004,0.022643765434622765,-1.5156279802322388,1016.70197,
2021.02.12 11:35:40,17.0,18.0,41.07286,0.8870163,-35.157585,-0.22489311,0.5412503,9.627068,0.05968423,0.023600355,-0.012176137,-0.05614731088280678,0.023356251418590546,-1.4985605478286743,1016.70197,
2021.02.12 11:35:40,17.0,18.0,41.106033,0.8457885,-35.16004,-0.17283762,0.59682554,9.7893305,0.026100675,0.0053609647,-0.0075113154,-0.06088210642337799,0.017653878778219223,-1.4961473941802979,1016.70197,
2021.02.12 11:35:40,17.0,18.0,41.293396,-0.4031124,-35.335632,-0.281696,0.6378389,9.798778,0.058608543,0.0051170313,-0.04169551,-0.06497524678707123,0.028740158304572105,-1.5219500064849854,1016.70197,
2021.02.12 11:35:40,17.0,18.0,41.493164,0.40965366,-34.25979,-0.5619891,0.62944794,9.71215,0.06714221,-0.01049863,-0.020307872,-0.06461207568645477,0.05780009180307388,-1.5006380081176758,1016.70197,
2021.02.12 11:35:40,17.0,18.0,40.636017,-0.09885359,-34.261703,-0.48615897,0.8090157,9.501037,-0.008925706,-0.008447332,0.05839169,-0.08483489602804184,0.0511244535446167,-1.494288444519043,1016.70197,
2021.02.12 11:35:40,17.0,18.0,40.077972,0.026880741,-35.84104,-0.06790992,0.6974087,10.156722,0.0045483946,0.034725457,0.04334014,-0.06855560094118118,0.006686104461550713,-1.5081160068511963,1016.70197,
2021.02.12 11:35:41,17.0,18.0,40.373535,0.1549635,-35.945015,-0.20413013,0.6580078,9.590886,0.05799464,0.0203563,-0.018418573,-0.06848481297492981,0.021280547603964806,-1.5034078359603882,1016.70197,
2021.02.12 11:35:41,17.0,18.0,40.72232,0.6724992,-35.356697,-0.36303392,0.65820175,9.81928,0.016139088,0.017886458,-0.009799359,-0.06688588112592697,0.03695471212267876,-1.491420865058899,1016.70197,
2021.02.12 11:35:41,17.0,18.0,40.500046,-0.75953054,-35.347527,-0.61850876,0.8244476,9.644532,0.050825916,4.7120673E-4,0.017457273,-0.0851021334528923,0.06404280662536621,-1.5063618421554565,1016.70197,
2021.02.12 11:35:41,17.0,18.0,41.154587,0.07539129,-34.6669,-0.4104871,0.74447614,9.618701,-0.0019790118,-0.0063733305,0.089592375,-0.07717485725879669,0.04265005886554718,-1.49824857711792,1016.70197,
2021.02.12 11:35:41,17.0,18.0,40.551117,-1.1470232,-35.6015,-0.22782095,0.75752205,9.791091,0.007231274,0.001625588,0.06135804,-0.07719387114048004,0.023263990879058838,-1.5286706686019897,1016.70197,
2021.02.12 11:35:41,17.0,18.0,42.13095,0.0288167,-35.04496,-0.2921408,0.83171535,9.771384,0.021427277,0.014468669,0.050026406,-0.08487503975629807,0.029888682067394257,-1.4953279495239258,1016.70197,
2021.02.12 11:35:41,17.0,18.0,40.333923,-1.0865469,-34.532547,-0.32990536,0.77448297,9.63931,0.028979361,-0.0038199401,0.050117455,-0.08012735843658447,0.034211643040180206,-1.525087594985962,1016.70197,
2021.02.12 11:35:41,17.0,18.0,41.21228,-0.940166,-35.03295,-0.27116355,0.8306808,9.64244,-0.021109965,0.011849731,0.042865135,-0.08590243756771088,0.028114471584558487,-1.516952395439148,1016.70197,
2021.02.12 11:35:41,17.0,18.0,41.885025,0.02569437,-35.63244,-0.19356704,0.8939827,9.806351,0.0023756344,-4.465012E-4,0.032008525,-0.09089474380016327,0.019736384972929955,-1.489990472793579,1016.70197,
2021.02.12 11:35:41,17.0,18.0,40.00212,-1.5454459,-35.33132,-0.16403835,0.8095313,9.777786,0.015506752,7.6660636E-4,-0.0049361447,-0.0825929343700409,0.016775060445070267,-1.5345321893692017,1016.70215,
2021.02.12 11:35:41,17.0,18.0,40.265762,-0.23137331,-34.82003,-0.25725475,0.8847901,9.645721,0.016475279,-0.004128906,-0.029168325,-0.09144044667482376,0.026664026081562042,-1.4934895038604736,1016.70215,
2021.02.12 11:35:41,17.0,18.0,40.373245,-0.6906309,-35.84755,-0.23827441,0.8320284,9.723126,0.0016854375,-0.0067516137,-0.0308151,-0.08533865958452225,0.024501042440533638,-1.5088049173355103,1016.7023,
2021.02.12 11:35:41,17.0,18.0,41.11638,-0.43539572,-34.990334,-0.29222655,0.8099809,9.745396,0.003910869,-0.007220471,-0.053965908,-0.08288653939962387,0.029977131634950638,-1.506868839263916,1016.7029,
2021.02.12 11:35:41,17.0,18.0,39.937775,-0.4607072,-35.271767,-0.3811935,0.86420554,9.653563,0.008967975,-0.025518905,-0.042421024,-0.0892147645354271,0.03946683555841446,-1.4976654052734375,1016.703,
2021.02.12 11:35:41,17.0,18.0,39.807465,0.8618851,-35.79242,-0.34372306,0.83267754,9.742377,-0.004873394,-0.025735956,-0.02846493,-0.0852096751332283,0.03526660054922104,-1.4667493104934692,1016.703,
2021.02.12 11:35:42,17.0,18.0,40.293533,-0.65298796,-35.02159,-0.3074278,0.8233759,9.713484,0.016219819,-0.021542959,-0.035374615,-0.08452199399471283,0.03163902834057808,-1.5092881917953491,1016.70306,
2021.02.12 11:35:42,17.0,18.0,39.360687,0.04133606,-35.629585,-0.29933825,0.79189426,9.596295,-0.011156304,-0.009798051,-0.031922515,-0.08229443430900574,0.031182993203401566,-1.490680456161499,1016.7037,
2021.02.12 11:35:42,17.0,18.0,40.986618,0.6899662,-35.54081,-0.2391992,0.8625508,9.819821,-0.029895503,0.0011384946,-0.039699234,-0.08758701384067535,0.02435399778187275,-1.474294662475586,1016.7037,
2021.02.12 11:35:42,17.0,18.0,40.430466,0.407032,-34.9133,-0.22414978,0.8905924,9.740517,-3.910731E-4,0.008541196,-0.030779462,-0.09115423262119293,0.023008044809103012,-1.4784904718399048,1016.70386,
2021.02.12 11:35:42,17.0,18.0,40.62018,0.42511892,-36.14685,-0.22573452,0.7514036,9.769454,0.0037330335,0.003949445,-0.043554064,-0.07674203813076019,0.023102043196558952,-1.488858699798584,1016.70386,
2021.02.12 11:35:42,17.0,18.0,39.683716,-1.4592099,-35.539177,-0.39861155,0.8389609,9.589456,-0.0038012802,-0.009218916,-0.03581829,-0.08719074726104736,0.04154377803206444,-1.524150013923645,1016.70386,
2021.02.12 11:35:42,17.0,18.0,38.299927,0.09162569,-35.348663,-0.29046908,0.79204637,9.827339,-0.03257563,-0.0014013808,-0.010660734,-0.0803874284029007,0.0295486431568861,-1.489889144897461,1016.7038,
2021.02.12 11:35:42,17.0,18.0,40.415176,0.9276991,-35.787636,-0.33513442,0.8184907,9.7591715,0.0050347843,-0.0034266277,-0.001104282,-0.0836239904165268,0.03432696685194969,-1.4683107137680054,1016.7038,
2021.02.12 11:35:42,17.0,18.0,40.148163,-1.0139403,-34.24086,-0.2838031,0.7965142,9.812158,0.005970567,-3.2173097E-4,0.0051793745,-0.08096494525671005,0.028915556147694588,-1.5235317945480347,1016.70386,
2021.02.12 11:35:42,17.0,18.0,39.983444,-0.40772915,-34.45636,-0.3477491,0.89384985,9.684797,0.02684869,-0.014267653,0.0057335105,-0.09197445958852768,0.03589127957820892,-1.4963403940200806,1016.70386,
2021.02.12 11:35:42,17.0,18.0,40.41298,0.7345853,-35.18238,-0.19714008,0.7964194,9.864953,0.01154305,0.010430728,0.018332997,-0.08054148405790329,0.019981224089860916,-1.4796890020370483,1016.70386,
2021.02.12 11:35:42,17.0,18.0,41.242188,-0.087189674,-35.109802,-0.25199458,0.7748564,9.513399,0.05221864,-0.0012162713,-0.014935382,-0.0812411904335022,0.026482192799448967,-1.5001921653747559,1016.70386,
2021.02.12 11:35:42,17.0,18.0,39.829407,-0.84376717,-35.160507,-0.27159688,0.8539316,9.50673,-0.055419262,-0.0038432889,0.024087433,-0.08954714238643646,0.02856113575398922,-1.50892174243927,1016.70386,
2021.02.12 11:35:42,17.0,18.0,39.481934,0.069592,-35.1482,-0.18368638,0.8859959,9.915264,-0.03150559,0.0029213275,-0.00625824,-0.08910486102104187,0.018523497506976128,-1.4869837760925293,1016.70386,
2021.02.12 11:35:43,17.0,18.0,40.553787,0.09061289,-34.634636,-0.30238846,0.8407782,9.781982,-1.7062668E-4,0.018824019,-2.0187977E-4,-0.08570025116205215,0.030902957543730736,-1.4908771514892578,1016.70386,
2021.02.12 11:35:43,17.0,18.0,40.35881,0.03238821,-35.308685,-0.274194,0.75646615,9.637845,-7.456305E-4,0.0010428323,0.004864797,-0.07829700410366058,0.02844204753637314,-1.4976478815078735,1016.70386,
2021.02.12 11:35:43,17.0,18.0,39.104538,0.45287895,-35.182358,-0.19874041,0.8243944,9.702449,-0.04704305,0.0038102735,0.011235181,-0.08474637567996979,0.020480666309595108,-1.4799370765686035,1016.70386,
2021.02.12 11:35:43,17.0,18.0,38.644707,-0.14837217,-34.71344,-0.3426579,0.90210253,9.914138,0.03606896,-0.022532545,-0.023433419,-0.09068778902292252,0.0345488004386425,-1.487748622894287,1016.70386,
2021.02.12 11:35:43,17.0,18.0,38.34326,-0.49653244,-35.181213,-0.26947612,0.8304923,9.518889,-0.030131347,-0.0014210587,0.03203413,-0.08699172735214233,0.028302058577537537,-1.4997977018356323,1016.70386,
2021.02.12 11:35:43,17.0,18.0,40.025223,1.049262,-35.958702,-0.20342267,0.79315615,9.865532,6.5003155E-4,-0.007531489,-0.008568826,-0.08020717650651932,0.02061661146581173,-1.4694918394088745,1016.70386,
2021.02.12 11:35:43,17.0,18.0,39.302826,-0.10617161,-35.96631,-0.22327642,0.79962206,9.670425,-0.009794234,0.020312518,-0.018224407,-0.08247781544923782,0.023084482178092003,-1.494733452796936,1016.704,
2021.02.12 11:35:43,17.0,18.0,40.012344,1.0079985,-34.836777,-0.28107443,0.7901483,9.828058,2.4238609E-4,0.022596845,-0.035266556,-0.08019199967384338,0.02859138883650303,-1.471486210823059,1016.704,
2021.02.12 11:35:43,17.0,18.0,40.278366,0.55306387,-34.42119,-0.3191013,0.80019355,9.545913,-0.017029261,0.0050074663,-0.021007119,-0.08358379453420639,0.03341561183333397,-1.4806311130523682,1016.704,
2021.02.12 11:35:43,17.0,18.0,40.028366,0.5911727,-34.936638,-0.25993386,0.7999305,9.820766,-0.035084616,0.009894305,-0.030826123,-0.08124520629644394,0.02646159939467907,-1.4812564849853516,1016.704,
2021.02.12 11:35:43,17.0,18.0,39.359848,1.1005907,-35.184753,-0.25105646,0.73102695,9.730342,5.759334E-4,0.0032915235,-0.03653702,-0.07496286928653717,0.025795679539442062,-1.4720598459243774,1016.704,
2021.02.12 11:35:43,17.0,18.0,39.6351,0.76517963,-33.433174,-0.37781096,0.78903717,9.729878,-0.014378312,0.0016440705,-0.035816673,-0.08085650950670242,0.038810476660728455,-1.477479338645935,1016.704,
2021.02.12 11:35:43,17.0,18.0,39.907104,0.22366571,-35.545113,-0.3928499,0.74468786,9.742473,-0.0042845923,-0.0013853534,-0.018022297,-0.07622719556093216,0.04030159115791321,-1.4916192293167114,1016.704,
2021.02.12 11:35:43,17.0,18.0,40.3125,1.7368872,-35.18348,-0.38452038,0.7594362,9.710224,-0.008662475,0.0039237174,-0.009221427,-0.07799018919467926,0.03957885503768921,-1.45318603515625,1016.704,
2021.02.12 11:35:43,17.0,18.0,39.509094,-0.19269562,-35.127365,-0.31825626,0.72163606,9.718998,-0.01417193,0.009690604,0.007247093,-0.07407449185848236,0.03273409232497215,-1.5056328773498535,1016.704,
2021.02.12 11:35:44,17.0,18.0,39.382965,0.22751188,-36.132675,-0.34023342,0.72614616,9.707451,-0.011787361,0.017075833,-0.0039207465,-0.07461827248334885,0.03503434732556343,-1.4916375875473022,1016.7038,
2021.02.12 11:35:44,17.0,18.0,39.847794,0.45052767,-35.726006,-0.3521175,0.78411204,9.787016,-0.014058976,0.024996202,0.0016045521,-0.07989534735679626,0.035962510854005814,-1.4824663400650024,1016.7038,
2021.02.12 11:35:44,17.0,18.0,39.10842,1.6414471,-35.152557,-0.3466026,0.78233147,9.744447,0.0058508604,0.020502366,0.008755039,-0.08006260544061661,0.035554252564907074,-1.4509271383285522,1016.7038,
2021.02.12 11:35:44,17.0,18.0,39.513916,0.99408674,-34.70704,-0.27529672,0.706992,9.737117,0.005543368,0.012785203,0.0014189414,-0.07245189696550369,0.028265390545129776,-1.4780218601226807,1016.7038,
2021.02.12 11:35:44,17.0,18.0,40.48018,1.2419267,-34.509186,-0.3624148,0.77602386,9.702032,-0.0033944554,0.0052211983,-0.0048741275,-0.07976038753986359,0.03733716532588005,-1.4663360118865967,1016.7038,
2021.02.12 11:35:44,17.0,18.0,39.41681,0.81599474,-34.33596,-0.40519217,0.77204585,9.781765,-0.01339451,8.05375E-4,0.0092344,-0.07869655638933182,0.041399549692869186,-1.475235939025879,1016.7037,
2021.02.12 11:35:44,17.0,18.0,40.946365,0.9103923,-35.40103,-0.3897692,0.7664483,9.687154,-0.012896979,-0.0022083977,0.010363034,-0.07889202982187271,0.04021398723125458,-1.4742375612258911,1016.7037,
2021.02.12 11:35:44,17.0,18.0,40.1736,0.6063919,-34.882828,-0.3405793,0.7397663,9.776188,-0.015465892,0.001026893,0.010330856,-0.07548066973686218,0.03482355549931526,-1.485246181488037,1016.70355,
2021.02.12 11:35:44,17.0,18.0,40.24846,0.51486015,-35.321335,-0.34192833,0.7080038,9.697903,-0.013893377,-0.0037112026,0.0019959046,-0.07283148169517517,0.03524336591362953,-1.4892581701278687,1016.70337,
2021.02.12 11:35:44,17.0,18.0,39.70508,0.88916874,-34.957497,-0.37445852,0.7151231,9.756626,-0.01867126,0.0049553933,-0.008321712,-0.07311167567968369,0.038361091166734695,-1.4784640073776245,1016.70306,
2021.02.12 11:35:44,17.0,18.0,39.87941,2.1775336,-34.32453,-0.40546703,0.72051525,9.759587,0.001200631,-0.002106152,-0.0037545124,-0.07362942397594452,0.04152163490653038,-1.4460898637771606,1016.70306,
2021.02.12 11:35:44,17.0,18.0,40.297256,2.0859673,-35.348045,-0.31192514,0.68988353,9.663403,-0.02094056,-0.0037644356,-5.8687385E-4,-0.07123348116874695,0.03226781263947487,-1.4515832662582397,1016.7028,
2021.02.12 11:35:44,17.0,18.0,39.772064,1.0777335,-33.54641,-0.30426773,0.683203,9.765912,-0.014052725,-9.222508E-4,-0.024516474,-0.06981037557125092,0.03114602528512478,-1.4806121587753296,1016.7027,
2021.02.12 11:35:44,17.0,18.0,40.38762,0.10879755,-34.103493,-0.3738123,0.6934666,9.802842,-0.0010551012,-0.006602525,-0.02992489,-0.0705726146697998,0.03811458498239517,-1.5038163661956787,1016.70166,
2021.02.12 11:35:44,17.0,18.0,40.795914,1.0993695,-34.94728,-0.44546333,0.71989757,9.665589,0.0019717813,-0.009935424,-0.01868608,-0.07426466047763824,0.046054963022470474,-1.4733657836914062,1016.70166,
2021.02.12 11:35:45,17.0,18.0,40.204422,1.324513,-34.58554,-0.3721744,0.68093437,9.756129,-0.009268263,-0.0073290044,-0.010600665,-0.06963206082582474,0.03812926262617111,-1.4724828004837036,1016.7012,
2021.02.12 11:35:45,17.0,18.0,38.943428,0.5222659,-34.304565,-0.3445344,0.6756702,9.716329,-0.008207909,-0.008590014,-0.015118416,-0.06938442587852478,0.0354444682598114,-1.491566777229309,1016.701,
2021.02.12 11:35:45,17.0,18.0,40.170364,1.0031753,-35.677643,-0.3544562,0.6713603,9.737199,-0.016373664,-0.002998128,-0.019387664,-0.06879362463951111,0.03638620674610138,-1.4796093702316284,1016.7009,
2021.02.12 11:35:45,17.0,18.0,38.782066,1.4932051,-35.122017,-0.40714797,0.7028828,9.763715,-0.004388256,-0.0019744164,-0.019490486,-0.07180312275886536,0.04167596250772476,-1.4606688022613525,1016.7009,
2021.02.12 11:35:45,17.0,18.0,39.388306,1.407516,-34.95514,-0.37774077,0.6544028,9.764609,-0.009629851,0.002049874,-8.136078E-4,-0.0668678879737854,0.038665398955345154,-1.470105767250061,1016.70074,
2021.02.12 11:35:45,17.0,18.0,39.87578,1.8802586,-34.96747,-0.36591735,0.65410495,9.741626,-2.820458E-5,-0.006547255,1.7202576E-4,-0.06699761748313904,0.03754459694027901,-1.4592702388763428,1016.70044,
2021.02.12 11:35:45,17.0,18.0,39.752487,1.99487,-34.40809,-0.36546004,0.6806167,9.714904,-0.008600092,-0.0013146504,0.010366521,-0.06989546120166779,0.03760076314210892,-1.4543448686599731,1016.70013,
2021.02.12 11:35:45,17.0,18.0,39.127632,1.0380554,-34.43743,-0.30717394,0.626965,9.7970495,0.0015443503,-0.004396825,0.003349614,-0.06387683749198914,0.031343452632427216,-1.4839404821395874,1016.70013,
2021.02.12 11:35:45,17.0,18.0,40.178802,0.53406143,-35.275703,-0.37695503,0.6864132,9.699267,0.0015408089,-0.0045629423,0.0022355586,-0.07059867680072784,0.03884473070502281,-1.4902749061584473,1016.70013,
2021.02.12 11:35:45,17.0,18.0,38.92546,0.9342828,-35.346657,-0.28438005,0.6136021,9.784932,-0.0025858928,-8.682001E-4,0.0029615767,-0.0626005083322525,0.029054880142211914,-1.4861692190170288,1016.70013,
2021.02.12 11:35:45,17.0,18.0,38.163025,0.30599785,-34.586227,-0.3537906,0.67735034,9.711722,0.0046764594,8.412928E-5,-0.013852908,-0.0695868730545044,0.03641313314437866,-1.4948803186416626,1016.70044,
2021.02.12 11:35:45,17.0,18.0,39.897858,1.1147952,-36.17878,-0.31532523,0.6408267,9.7375345,-0.001978878,-2.1529983E-4,-9.397678E-4,-0.06568086892366409,0.03237113729119301,-1.4788113832473755,1016.70044,
2021.02.12 11:35:45,17.0,18.0,39.39087,1.2362857,-35.52114,-0.3403289,0.6386449,9.717788,0.0015468466,-0.006531601,-0.015924122,-0.065584696829319,0.03500692546367645,-1.4753320217132568,1016.70087,
2021.02.12 11:35:45,17.0,18.0,40.635315,1.1612282,-35.01912,-0.40776744,0.675684,9.73021,-0.010471577,9.7078865E-4,8.069209E-4,-0.06926996260881424,0.04188285395503044,-1.4765809774398804,1016.70087,
2021.02.12 11:35:46,17.0,18.0,40.39409,0.98047686,-34.937813,-0.3838345,0.6622346,9.709095,-0.011931319,-0.00281967,0.01469429,-0.06804917752742767,0.03951292484998703,-1.48225736618042,1016.70087,
2021.02.12 11:35:46,17.0,18.0,40.73903,0.8246784,-34.99993,-0.34371853,0.6550997,9.7568655,-0.017135518,0.0017427042,0.008801813,-0.0670003741979599,0.03521381691098213,-1.4883965253829956,1016.70087,
2021.02.12 11:35:46,17.0,18.0,40.137207,-0.34497166,-34.05332,-0.33251268,0.64796776,9.791667,-0.002950628,0.0030061714,0.016428595,-0.06604112684726715,0.03394569829106331,-1.519717812538147,1016.70087,
2021.02.12 11:35:46,17.0,18.0,39.939545,0.61107016,-35.29557,-0.31034514,0.6202002,9.782878,0.0070105656,0.0059013613,0.004783244,-0.06328001618385315,0.03171266242861748,-1.4956598281860352,1016.70087,
2021.02.12 11:35:46,17.0,18.0,39.608215,0.4939556,-34.86976,-0.38646436,0.66314197,9.705258,0.008040891,0.010052526,0.002044529,-0.06816821545362473,0.039799075573682785,-1.4930927753448486,1016.70087,
2021.02.12 11:35:46,17.0,18.0,40.044678,0.8231034,-34.994476,-0.3647717,0.6286442,9.666131,0.003917441,0.005276608,0.0026840435,-0.06489823758602142,0.03771919384598732,-1.4886184930801392,1016.70087,
2021.02.12 11:35:46,17.0,18.0,39.76126,0.25760078,-34.93273,-0.38454077,0.65465707,9.803669,-0.00910191,0.0131616425,0.011423211,-0.06662667542695999,0.03920407220721245,-1.5009254217147827,1016.70087,
2021.02.12 11:35:46,17.0,18.0,40.316483,0.8952975,-34.348244,-0.35737824,0.6571781,9.72343,-0.0036115272,0.0053889947,0.013150947,-0.06743904203176498,0.03673780336976051,-1.4862852096557617,1016.70087,
2021.02.12 11:35:46,17.0,18.0,39.579636,0.9757724,-34.092033,-0.32847086,0.67558306,9.694348,-0.013914852,0.010746637,0.009933139,-0.06953607499599457,0.03386975824832916,-1.4816148281097412,1016.70087,
2021.02.12 11:35:46,17.0,18.0,40.27643,1.5453854,-35.094795,-0.33914515,0.6515977,9.864148,0.013837064,0.002919524,-0.011655173,-0.06592249125242233,0.034368060529232025,-1.470138430595398,1016.70087,
2021.02.12 11:35:46,17.0,18.0,39.849625,1.0682073,-34.998344,-0.42266035,0.67496425,9.631326,0.011661116,0.004385678,0.0017142806,-0.06989865750074387,0.043855782598257065,-1.476253867149353,1016.70087,
2021.02.12 11:35:46,17.0,18.0,40.94963,1.0451164,-34.77941,-0.39564797,0.61962116,9.560731,-0.034548853,0.007828429,0.0024662146,-0.06466327607631683,0.041359011083841324,-1.4849365949630737,1016.70087,
2021.02.12 11:35:46,17.0,18.0,40.919678,0.60420275,-34.904846,-0.38228202,0.5875955,9.623218,-0.12107847,0.094705835,-0.030027835,-0.06093653663992882,0.0397040918469429,-1.4993776082992554,1016.7016,
2021.02.12 11:35:46,17.0,18.0,40.803894,1.0643291,-34.24774,-0.40608335,0.59090996,10.155431,-0.047251534,-0.0076810378,-0.0067283986,-0.05807475373148918,0.03996552154421806,-1.4911894798278809,1016.7021,
2021.02.12 11:35:46,17.0,18.0,38.913864,0.05470705,-35.205994,-0.47159377,0.62143964,9.846143,0.08990155,-0.07061496,-0.02774353,-0.0629594475030899,0.04785972088575363,-1.506764531135559,1016.7021,
2021.02.12 11:35:47,17.0,18.0,40.594894,1.5249157,-35.69359,-0.43373337,0.59230405,9.589909,0.064537436,-0.06263276,-0.019277228,-0.061622072011232376,0.04519730061292648,-1.4727354049682617,1016.70264,
2021.02.12 11:35:47,17.0,18.0,39.69838,0.45186615,-36.328438,-0.41237187,0.7041866,9.869393,0.045525916,-0.113780886,0.010294303,-0.0711679458618164,0.04175861179828644,-1.488420009613037,1016.7027,
2021.02.12 11:35:47,17.0,18.0,39.569107,1.2248311,-35.25625,-0.23527485,0.6392507,10.126334,0.16909567,-0.16757452,-0.038457304,-0.06302693486213684,0.02322978340089321,-1.4806859493255615,1016.7029,
2021.02.12 11:35:47,17.0,18.0,38.778397,1.4672847,-36.396835,-0.08588625,0.9975073,9.026633,0.06157433,-0.05312039,-0.024755057,-0.11005561053752899,0.00951447244733572,-1.4287387132644653,1016.7029,
