Time,X-cord,Y-cord,Mag_x,Mag_y,Mag_z,Acc_x,Acc_y,Acc_z,Gyro_x,Gyro_y,Gyro_z,Orn_x,Orn_y,Orn_z,Pressure,
2021.02.12 11:43:13,36.0,11.0,5.6813583,15.304452,-39.825684,0.1554057,0.03385926,10.243849,-0.028022498,-0.009187479,0.010012855,-0.003304933663457632,-0.015169472433626652,-0.3866646885871887,1016.5832,
2021.02.12 11:43:13,36.0,11.0,6.524399,16.24314,-39.660744,0.29959062,0.1159625,9.395192,0.13743909,0.021548891,-0.05318672,-0.012335852719843388,-0.03187685087323189,-0.43557509779930115,1016.5832,
2021.02.12 11:43:13,36.0,11.0,7.1541977,16.36687,-39.294876,-0.5176408,0.6268465,9.841306,-0.061786115,-0.009027662,-0.045044467,-0.06352195143699646,0.05255037173628807,-0.26327502727508545,1016.5832,
2021.02.12 11:43:13,36.0,11.0,5.6388702,16.958454,-38.706985,-0.46347713,0.5605112,9.793777,6.8511337E-4,-0.032515306,0.09974295,-0.05710522457957268,0.047288354486227036,-0.19600528478622437,1016.5832,
2021.02.12 11:43:13,36.0,11.0,5.756569,17.11319,-39.538177,-0.057656955,0.21039659,10.292201,-0.014309557,0.030939827,0.089833006,-0.020439164713025093,0.005601945798844099,-0.2996026277542114,1016.5832,
2021.02.12 11:43:13,36.0,11.0,5.697853,15.862894,-39.975975,-0.36260018,0.76465654,9.890311,0.19032152,-0.032203715,-0.05323069,-0.07710860669612885,0.03664574772119522,-0.22004732489585876,1016.5832,
2021.02.12 11:43:13,36.0,11.0,6.769745,16.404942,-40.493683,-0.09720498,0.30296183,8.966432,0.045073077,0.09925872,0.15691301,-0.03377361223101616,0.010840564034879208,-0.3423057496547699,1016.58307,
2021.02.12 11:43:13,36.0,11.0,7.5177994,16.396297,-39.837013,0.5618702,-0.25269392,10.033051,-0.053132292,-0.058188464,-0.043160032,0.02514144964516163,-0.05594349652528763,-0.5635969042778015,1016.5819,
2021.02.12 11:43:13,36.0,11.0,6.3842926,15.530411,-39.571777,-1.1788493,1.3604919,9.811864,0.0014596365,0.10267234,-0.13437559,-0.13680782914161682,0.11957215517759323,-0.07746990770101547,1016.5819,
2021.02.12 11:43:13,36.0,11.0,7.526535,16.105099,-39.096268,-0.9884897,0.9761688,10.696681,0.13467899,0.0010060484,0.18730327,-0.09062295407056808,0.09214916080236435,-0.19602522253990173,1016.5818,
2021.02.12 11:43:13,36.0,11.0,6.5850906,15.29643,-40.03327,0.092612885,0.35869047,8.818629,0.18445803,-0.0566641,0.21659862,-0.04064952954649925,-0.010501572862267494,-0.39278489351272583,1016.5818,
2021.02.12 11:43:13,36.0,11.0,7.431381,15.971174,-39.649223,0.46567813,0.22391199,9.383698,-0.0379414,0.057687573,0.08806911,-0.023827966302633286,-0.04958561062812805,-0.5069999694824219,1016.58154,
2021.02.12 11:43:13,36.0,11.0,9.314873,15.148138,-40.44426,0.01823633,0.43983388,10.122635,-0.009888377,0.0238854,-0.087179415,-0.04342314973473549,-0.0018015379318967462,-0.5073272585868835,1016.58154,
2021.02.12 11:43:14,36.0,11.0,7.0282593,15.0411415,-40.690025,-0.834338,0.968924,9.838487,0.0959284,-0.02937247,-0.06102563,-0.09781762212514877,0.08460106700658798,-0.1855904906988144,1016.581,
2021.02.12 11:43:14,36.0,11.0,7.873108,15.550911,-39.739105,-0.44362,0.82524323,9.4308,0.008629529,-0.022981953,0.10477758,-0.08718687295913696,0.04700483754277229,-0.30603715777397156,1016.5809,
2021.02.12 11:43:14,36.0,11.0,8.290909,15.396104,-39.497574,0.033763554,0.64240146,9.530182,-0.0649896,-0.038368333,0.07174093,-0.0673048123717308,-0.0035427878610789776,-0.4376976191997528,1016.5809,
2021.02.12 11:43:14,36.0,11.0,7.0852814,15.235702,-39.722878,0.0657598,0.5086549,9.633468,-0.094663985,-0.0024597258,0.02845078,-0.0527505986392498,-0.006826075725257397,-0.40192297101020813,1016.5809,
2021.02.12 11:43:14,36.0,11.0,8.2200775,15.383605,-40.465576,0.14730746,0.33746758,9.715354,-0.12756702,0.007296033,-0.058016185,-0.03471754118800163,-0.015161173418164253,-0.48466306924819946,1016.5809,
2021.02.12 11:43:14,36.0,11.0,6.5937576,14.401101,-39.932266,-0.3471819,0.66485924,9.980339,-0.08506905,0.025333852,-0.12382588,-0.06647852808237076,0.03477256000041962,-0.29634085297584534,1016.581,
2021.02.12 11:43:14,36.0,11.0,7.5323257,16.227345,-39.511475,-0.68042517,0.82057905,10.049319,-0.022110952,-0.014177432,0.0043474715,-0.0812891274690628,0.0676053985953331,-0.24458834528923035,1016.5813,
2021.02.12 11:43:14,36.0,11.0,7.715538,16.85158,-39.426712,-0.25810835,0.6540243,9.84829,-0.01270484,-0.0037574247,0.118638165,-0.06628986448049545,0.02620244398713112,-0.33099785447120667,1016.5813,
2021.02.12 11:43:14,36.0,11.0,6.5192337,16.422075,-40.479294,-0.31069127,0.6287529,10.067601,0.06463993,-0.05179139,0.122275285,-0.06234248727560043,0.030850714072585106,-0.2714864909648895,1016.5813,
2021.02.12 11:43:14,36.0,11.0,7.985939,16.073315,-39.5662,0.029972905,0.5053335,9.342113,0.041145924,-0.05331265,0.15889442,-0.05403904989361763,-0.0032083538826555014,-0.4196183979511261,1016.581,
2021.02.12 11:43:14,36.0,11.0,7.342613,15.995326,-39.633415,0.3117239,0.3144538,9.791945,0.050950337,0.04404404,-0.028257202,-0.032086241990327835,-0.03182397410273552,-0.46247658133506775,1016.581,
2021.02.12 11:43:14,36.0,11.0,6.8566055,14.11226,-40.323387,0.22696893,0.36692956,9.563676,0.06302623,0.019612864,-0.10647735,-0.038337405771017075,-0.023727940395474434,-0.46318763494491577,1016.5809,
2021.02.12 11:43:14,36.0,11.0,6.986664,15.773831,-40.27099,0.17508532,0.34929517,9.679197,0.019964492,0.043100204,-0.2077375,-0.03606565669178963,-0.018086854368448257,-0.4213534891605377,1016.5803,
2021.02.12 11:43:14,36.0,11.0,7.205353,14.629109,-40.137,-0.6366282,0.9037774,9.969407,0.05322613,0.03810012,-0.19911787,-0.09022517502307892,0.06377159059047699,-0.24899441003799438,1016.5801,
2021.02.12 11:43:14,36.0,11.0,9.732887,14.371355,-40.445457,-0.41822013,0.80998635,10.0776,0.08848887,0.04432713,-0.07500739,-0.0801338329911232,0.04147617518901825,-0.42902544140815735,1016.5801,
2021.02.12 11:43:15,36.0,11.0,7.1440353,14.665847,-39.899323,-0.32715598,0.8617768,9.646557,0.11471296,-0.01885217,-0.034647934,-0.08904771506786346,0.03390128165483475,-0.3082747459411621,1016.5801,
2021.02.12 11:43:15,36.0,11.0,6.7433624,15.251973,-40.30526,-0.11567923,0.73591685,9.54857,0.07099307,-0.0070662186,-0.020325936,-0.07691322267055511,0.01211422961205244,-0.3291698396205902,1016.5801,
2021.02.12 11:43:15,36.0,11.0,6.854927,14.424481,-40.606728,-0.23922509,0.9606922,9.203191,-0.002499171,-0.014450343,-0.020524748,-0.10397530347108841,0.025987859815359116,-0.3024817705154419,1016.5801,
2021.02.12 11:43:15,36.0,11.0,6.3899994,14.769813,-40.047318,-0.15929712,0.94113666,9.7430105,-0.07111206,0.055021476,-0.016262561,-0.09628451615571976,0.016348430886864662,-0.2996509373188019,1016.5801,
2021.02.12 11:43:15,36.0,11.0,6.736511,14.509022,-39.62275,-0.25828937,0.93429255,9.841527,-0.03512479,0.007537419,-0.027117692,-0.09461765736341476,0.02623882330954075,-0.30319684743881226,1016.5801,
2021.02.12 11:43:15,36.0,11.0,6.8601837,14.3957405,-39.350716,-0.23882408,0.8546478,10.047303,-0.029268723,0.038512368,-0.015533792,-0.08483429253101349,0.02376549318432808,-0.32307785749435425,1016.5801,
2021.02.12 11:43:15,36.0,11.0,6.561966,14.115656,-40.0027,-0.28504238,0.8008277,9.749397,0.008432914,-0.020535465,-0.007100216,-0.08192240446805954,0.02922859601676464,-0.30111685395240784,1016.5801,
2021.02.12 11:43:15,36.0,11.0,6.343483,14.515709,-40.02063,-0.15462404,0.66825867,9.481019,-9.364472E-4,-0.06450725,-0.0099374475,-0.07035814225673676,0.016307353973388672,-0.3177562355995178,1016.5801,
2021.02.12 11:43:15,36.0,11.0,6.246231,14.057141,-39.369232,-0.16277593,0.78727204,9.629512,-0.033582833,-0.023095137,-0.041352164,-0.08156315237283707,0.016902253031730652,-0.3132586181163788,1016.5801,
2021.02.12 11:43:15,36.0,11.0,6.096855,15.435978,-40.416702,-0.31300548,0.837061,9.973116,-0.031158086,0.0038746258,-0.008065142,-0.0836944654583931,0.031374625861644745,-0.25159764289855957,1016.57983,
2021.02.12 11:43:15,36.0,11.0,5.3075485,16.145329,-40.49398,-0.3268635,0.7453449,9.587035,0.025067426,-0.012295768,-3.4016697E-4,-0.07754413038492203,0.034081123769283295,-0.201163187623024,1016.57983,
2021.02.12 11:43:15,36.0,11.0,6.2910385,15.930966,-39.93888,-0.10451862,0.68633646,9.75183,-0.029061016,0.016292162,0.029329244,-0.07026039063930511,0.010717435739934444,-0.30380433797836304,1016.57965,
2021.02.12 11:43:15,36.0,11.0,5.89093,14.693241,-39.464752,-0.06704858,0.8051651,9.859264,0.008715337,-0.0048169266,-0.013236507,-0.0814831405878067,0.006800461560487747,-0.3049861490726471,1016.57947,
2021.02.12 11:43:15,36.0,11.0,5.3571396,15.40043,-39.472343,-0.16126655,0.78719854,9.660726,0.008584537,-0.0013211211,-0.01037662,-0.0812935084104538,0.016691455617547035,-0.24787430465221405,1016.5793,
2021.02.12 11:43:15,36.0,11.0,6.8163605,17.153013,-39.11783,-0.15143166,0.6998969,9.817271,0.01337732,0.021592474,-0.04378719,-0.07116355001926422,0.01542380265891552,-0.3026126027107239,1016.5793,
2021.02.12 11:43:16,36.0,11.0,5.646187,14.739128,-39.34632,-0.22642021,0.76901317,9.581037,0.014134973,0.00521027,-0.049262993,-0.0800701379776001,0.02362772263586521,-0.2582656741142273,1016.5784,
2021.02.12 11:43:16,36.0,11.0,6.232048,14.374877,-39.39824,-0.20600589,0.7702095,9.856267,0.021970814,-0.014781032,-0.03606317,-0.07796869426965714,0.020897962152957916,-0.30115535855293274,1016.57733,
2021.02.12 11:43:16,36.0,11.0,6.5557785,16.84317,-40.775864,-0.29989746,0.8433275,9.616421,0.0013186021,-0.019217838,-0.043972764,-0.08743054419755936,0.031175870448350906,-0.2538689374923706,1016.57733,
2021.02.12 11:43:16,36.0,11.0,5.236809,16.243359,-39.804016,-0.29831776,0.8415429,9.8182,-0.0226568,0.0023159566,-0.006322957,-0.08546431362628937,0.030374813824892044,-0.2026304304599762,1016.5772,
2021.02.12 11:43:16,36.0,11.0,5.830513,15.448739,-39.66339,-0.21544115,0.7660956,9.787922,-0.0059030787,0.0134154055,0.009417736,-0.07809140533208847,0.02200736477971077,-0.2616908550262451,1016.57654,
2021.02.12 11:43:16,36.0,11.0,5.511711,16.224619,-41.10353,-0.23128283,0.7343681,9.727348,0.0069080545,0.005633045,-0.005895603,-0.07533103972673416,0.02377207763493061,-0.23091450333595276,1016.5753,
2021.02.12 11:43:16,36.0,11.0,7.2198334,14.758187,-40.18875,-0.3084712,0.7771403,9.799535,2.55747E-4,0.016180502,0.013233527,-0.0790991559624672,0.03146775811910629,-0.3209368586540222,1016.57336,
2021.02.12 11:43:16,36.0,11.0,5.6949844,15.288245,-41.435814,-0.27333653,0.765734,9.739853,0.027701713,0.007666854,0.027467545,-0.07842651009559631,0.02805635705590248,-0.24017266929149628,1016.57263,
2021.02.12 11:43:16,36.0,11.0,5.882553,15.878765,-40.82286,-0.22660244,0.70313406,9.671394,0.0066499393,0.019126123,0.028816432,-0.07255492359399796,0.023425886407494545,-0.25612518191337585,1016.5726,
2021.02.12 11:43:16,36.0,11.0,6.539795,14.366844,-40.534492,-0.21830733,0.7796238,9.573655,-0.011725988,0.015695082,0.013941775,-0.08123396337032318,0.022798972204327583,-0.30845004320144653,1016.5726,
2021.02.12 11:43:16,36.0,11.0,6.3384094,16.185585,-39.692474,-0.13813578,0.75150377,9.624381,-0.057403866,0.018586406,0.010884723,-0.07791722565889359,0.014351706951856613,-0.2913742661476135,1016.5725,
2021.02.12 11:43:16,36.0,11.0,6.4226456,16.009865,-40.130615,-0.17183745,0.75191325,9.80511,-0.05755828,0.020930694,-0.029715195,-0.07652435451745987,0.017523501068353653,-0.29178115725517273,1016.5714,
2021.02.12 11:43:16,36.0,11.0,6.6073914,15.762867,-39.843575,-0.28356433,0.77786535,9.749276,-0.040137995,-0.0018244656,-0.014756504,-0.07958480715751648,0.029077481478452682,-0.2806360423564911,1016.5706,
2021.02.12 11:43:16,36.0,11.0,7.394287,16.605413,-41.30426,-0.32140258,0.7095628,9.729885,-0.0438088,0.001618595,0.0010682042,-0.07275771349668503,0.0330205112695694,-0.2985902428627014,1016.5705,
2021.02.12 11:43:17,36.0,11.0,6.0380096,15.68293,-38.671494,-0.19594844,0.65164804,9.826954,-0.033812605,-0.017241713,-3.6739698E-4,-0.06620224565267563,0.01993725448846817,-0.28143227100372314,1016.5699,
2021.02.12 11:43:17,36.0,11.0,6.288002,15.911782,-38.9599,-0.17490877,0.6557624,9.765904,-0.014329454,-0.018147346,-0.0013534671,-0.06703677773475647,0.017908232286572456,-0.29351142048835754,1016.5693,
2021.02.12 11:43:17,36.0,11.0,5.044281,17.386986,-39.125664,-0.16180642,0.55801564,9.72692,-0.009825353,-0.025944984,-0.020304285,-0.05729744955897331,0.016633372753858566,-0.22044171392917633,1016.5693,
2021.02.12 11:43:17,36.0,11.0,5.9229507,16.800587,-39.656097,-0.27716985,0.6329436,9.736186,-0.006862357,-0.016148739,-0.026919663,-0.06489182263612747,0.028460323810577393,-0.24280843138694763,1016.5693,
2021.02.12 11:43:17,36.0,11.0,6.127411,15.875267,-39.495903,-0.25605965,0.6063394,9.757804,-0.005786558,-0.028863715,0.0019268612,-0.06203782930970192,0.02623550221323967,-0.271210253238678,1016.5693,
2021.02.12 11:43:17,36.0,11.0,5.7024,15.270429,-39.09758,-0.13289641,0.5454144,9.699538,-0.015559407,-0.019549496,0.002682475,-0.056166548281908035,0.0137004554271698,-0.28790974617004395,1016.5693,
2021.02.12 11:43:17,36.0,11.0,5.4804916,16.000473,-39.387833,-0.16145994,0.5527618,9.716804,-0.013233833,-0.007708932,-0.017207524,-0.05681813135743141,0.016615040600299835,-0.2589445412158966,1016.5693,
2021.02.12 11:43:17,36.0,11.0,5.323105,15.868664,-39.56861,-0.22519545,0.5873086,9.866773,-0.010938246,-0.019063596,-0.011921598,-0.05943828448653221,0.022819656878709793,-0.23821373283863068,1016.5693,
2021.02.12 11:43:17,36.0,11.0,6.233803,14.68054,-39.64509,-0.2134338,0.56794095,9.631299,-0.001327842,-0.0028653322,-0.004257378,-0.05888563394546509,0.022156810387969017,-0.30517423152923584,1016.56903,
2021.02.12 11:43:17,36.0,11.0,6.726303,15.220976,-39.81388,-0.18483211,0.53293926,9.655999,-0.020345027,0.025635228,0.012186042,-0.055126532912254333,0.019139349460601807,-0.330194354057312,1016.56885,
2021.02.12 11:43:17,36.0,11.0,5.7733994,15.266874,-39.771637,-0.22550486,0.56967705,9.898937,-0.03593308,0.034760837,0.018572025,-0.057471029460430145,0.022776775062084198,-0.27072492241859436,1016.56885,
2021.02.12 11:43:17,36.0,11.0,5.072571,15.412245,-40.618134,-0.12915455,0.54103774,10.012464,0.039332747,0.006120075,0.014197032,-0.05397944152355194,0.012898662127554417,-0.2531020939350128,1016.5685,
2021.02.12 11:43:17,36.0,11.0,5.9873505,15.839225,-39.581604,-0.18603753,0.5496487,9.648784,0.046913344,0.0037385763,-4.1931076E-4,-0.056893546134233475,0.019278541207313538,-0.281377911567688,1016.5685,
2021.02.12 11:43:17,36.0,11.0,6.0256195,15.7671,-39.28132,-0.20510463,0.6092375,9.719472,0.012429748,0.032204155,0.015752904,-0.06258636713027954,0.021099314093589783,-0.2780652642250061,1016.5685,
2021.02.12 11:43:17,36.0,11.0,6.5859375,15.169532,-40.3273,-0.097870916,0.57673234,9.752693,0.02519462,0.012037136,-0.0051319813,-0.05906394496560097,0.010034934617578983,-0.33902886509895325,1016.5685,
2021.02.12 11:43:18,36.0,11.0,5.4748154,15.801156,-40.005333,-0.18879546,0.63579303,9.723862,7.8605255E-5,0.0013908745,-0.02075072,-0.06527962535619736,0.01941324956715107,-0.25015780329704285,1016.5685,
2021.02.12 11:43:18,36.0,11.0,6.2876816,15.503045,-39.966637,-0.18449259,0.62378484,9.704661,-0.0023127254,0.016090712,-0.019803777,-0.06417696923017502,0.01900842785835266,-0.29726576805114746,1016.5685,
2021.02.12 11:43:18,36.0,11.0,5.87471,15.887763,-38.988358,-0.1749984,0.61640537,9.775496,-0.009066021,0.0021032952,-0.022142906,-0.06296274065971375,0.017899829894304276,-0.27541327476501465,1016.5685,
2021.02.12 11:43:18,36.0,11.0,6.228073,15.425472,-39.86248,-0.20965298,0.62015337,9.687989,-0.010842506,0.010174724,-0.027793474,-0.06391046196222305,0.021637126803398132,-0.29042431712150574,1016.5685,
2021.02.12 11:43:18,36.0,11.0,7.9847336,16.263676,-39.811844,-0.21280493,0.64983296,9.773402,-0.017437086,0.0106107835,-0.017279956,-0.06637652963399887,0.02177044376730919,-0.3604606091976166,1016.5685,
2021.02.12 11:43:18,36.0,11.0,6.5028152,15.626156,-39.527725,-0.19758336,0.5898453,9.789205,-0.003906294,0.007000912,-0.023253433,-0.060169681906700134,0.020181061699986458,-0.3071545660495758,1016.5683,
2021.02.12 11:43:18,36.0,11.0,5.247879,16.030443,-39.617836,-0.25362515,0.64027494,9.711165,-0.0026220218,0.0042252736,-0.029790513,-0.06581417471170425,0.026110926643013954,-0.2225741147994995,1016.5683,
2021.02.12 11:43:18,36.0,11.0,5.9264145,15.658168,-39.708755,-0.22689682,0.6098102,9.839936,0.0023093768,0.0077463775,-0.012170477,-0.06187741458415985,0.023054683580994606,-0.27012717723846436,1016.5683,
2021.02.12 11:43:18,36.0,11.0,5.9974594,15.600415,-40.20629,-0.2520299,0.63487244,9.686433,0.010251952,-5.5498024E-4,-0.019153135,-0.06542675197124481,0.026012985035777092,-0.26546719670295715,1016.5683,
2021.02.12 11:43:18,36.0,11.0,6.815941,15.912714,-38.667107,-0.23400724,0.61131006,9.783643,-0.004930296,0.004607209,-0.005442858,-0.062383949756622314,0.023913651704788208,-0.3113282322883606,1016.5685,
2021.02.12 11:43:18,36.0,11.0,6.155571,15.827149,-39.231476,-0.24919009,0.64881825,9.744449,0.0074041295,-0.006756471,-0.0080112815,-0.06646357476711273,0.0255669467151165,-0.27283650636672974,1016.5685,
2021.02.12 11:43:18,36.0,11.0,5.87838,16.199265,-39.660637,-0.21955691,0.6089681,9.707549,4.5920734E-4,-0.002016698,0.0032977182,-0.06263332068920135,0.022613275796175003,-0.2608388662338257,1016.5685,
2021.02.12 11:43:18,36.0,11.0,5.277275,16.66198,-39.422333,-0.20168503,0.61449915,9.778628,-3.118629E-4,-4.8072124E-4,-0.0076182345,-0.06274520605802536,0.02062216028571129,-0.22947201132774353,1016.56885,
2021.02.12 11:43:18,36.0,11.0,5.255066,16.137562,-39.366653,-0.25431874,0.6694851,9.716022,0.0022842234,-0.0030757324,0.0036679972,-0.0687730461359024,0.026169218122959137,-0.22081995010375977,1016.5689,
2021.02.12 11:43:18,36.0,11.0,3.8945847,15.964517,-39.13614,-0.17923589,0.54933137,9.768189,0.0033529052,0.006490854,-0.0056481026,-0.05616816133260727,0.01834687776863575,-0.17332257330417633,1016.5689,
2021.02.12 11:43:19,36.0,11.0,6.127243,16.06624,-40.098366,-0.24589919,0.65826154,9.6826315,-0.004833047,0.0017387006,-0.005129811,-0.06785748898983002,0.025390446186065674,-0.26582983136177063,1016.569,
2021.02.12 11:43:19,36.0,11.0,5.7178726,16.1565,-39.255936,-0.19483717,0.5976834,9.836139,-0.008059045,0.004948726,-0.0018228593,-0.06067753583192825,0.019805707037448883,-0.2607201635837555,1016.56903,
2021.02.12 11:43:19,36.0,11.0,4.0667267,16.441166,-39.948746,-0.21916689,0.6286297,9.745396,0.02470967,-0.0040815533,-0.015599553,-0.06439981609582901,0.022485485300421715,-0.16533498466014862,1016.56915,
2021.02.12 11:43:19,36.0,11.0,5.982483,15.674298,-39.604446,-0.24015553,0.63422376,9.743453,0.01653137,-0.0060983687,0.0026825615,-0.06498092412948608,0.02464289776980877,-0.2680509090423584,1016.56915,
2021.02.12 11:43:19,36.0,11.0,6.232292,15.931649,-39.256577,-0.21331005,0.61400896,9.685554,0.004315175,3.9709313E-4,-5.0723134E-4,-0.06329427659511566,0.022019967436790466,-0.28391513228416443,1016.56915,
2021.02.12 11:43:19,36.0,11.0,6.457512,16.091236,-40.895973,-0.21845661,0.6356779,9.788185,-0.002812435,3.717374E-6,0.0011792602,-0.06483621150255203,0.02231469377875328,-0.28795626759529114,1016.5693,
2021.02.12 11:43:19,36.0,11.0,6.810463,16.397299,-39.484512,-0.25296143,0.64570206,9.741525,0.015134035,-0.0018589469,0.0052759564,-0.06616441905498505,0.02596150152385235,-0.295722097158432,1016.56964,
2021.02.12 11:43:19,36.0,11.0,6.4648514,15.695548,-39.36695,-0.16144806,0.60172284,9.695188,-0.0042085173,-0.0011378513,0.004955858,-0.06197599321603775,0.01665085181593895,-0.3103688359260559,1016.56964,
2021.02.12 11:43:19,36.0,11.0,6.6429214,16.236279,-38.97146,-0.2227037,0.6460009,9.750938,-0.0020992095,0.006591894,-0.005414084,-0.06613626331090927,0.02283523604273796,-0.2970946431159973,1016.56964,
2021.02.12 11:43:19,36.0,11.0,5.2297516,14.180016,-40.30372,-0.2640438,0.6514835,9.714774,-0.0054162317,0.003698341,-0.0019361868,-0.066936194896698,0.02717292495071888,-0.24048642814159393,1016.56964,
2021.02.12 11:43:19,36.0,11.0,5.5838776,15.975948,-39.23043,-0.23591493,0.6601029,9.757908,-0.006022489,0.0067939167,0.014405728,-0.06752541661262512,0.024172086268663406,-0.24423599243164062,1016.56964,
2021.02.12 11:43:19,36.0,11.0,5.859009,16.531883,-40.61052,-0.22773267,0.66087013,9.776966,-0.009389613,0.007940024,0.016865697,-0.06747368723154068,0.023288564756512642,-0.24993979930877686,1016.56964,
2021.02.12 11:43:19,36.0,11.0,7.472908,16.051655,-39.81436,-0.22960651,0.6631491,9.696842,0.01867245,-0.005837808,0.014312982,-0.06826276332139969,0.02367405965924263,-0.3351946771144867,1016.56964,
2021.02.12 11:43:19,36.0,11.0,5.7471848,16.222822,-39.33039,-0.07125744,0.58618885,9.760686,-0.019315876,0.009185052,0.00666382,-0.05998246744275093,0.007300324738025665,-0.2861955165863037,1016.56964,
2021.02.12 11:43:19,36.0,11.0,5.7088165,16.379536,-40.2154,-0.254638,0.68569994,9.803157,0.0097525725,0.0013351666,-0.018981934,-0.06980963796377182,0.025969263166189194,-0.2387828677892685,1016.56964,
2021.02.12 11:43:20,36.0,11.0,4.9517517,17.778698,-40.364967,-0.20395695,0.62895554,9.77119,0.016255785,0.0063322764,-0.001192326,-0.06426572799682617,0.020870266482234,-0.199296772480011,1016.5693,
2021.02.12 11:43:20,36.0,11.0,5.2124176,16.391693,-39.312653,-0.23495583,0.612366,9.721305,0.012483576,0.012895875,-0.014910414,-0.06289072334766388,0.024164460599422455,-0.22245797514915466,1016.56915,
2021.02.12 11:43:20,36.0,11.0,5.8447495,15.910485,-39.652107,-0.25215307,0.639804,9.70239,0.0026785634,0.008449895,-0.0053730416,-0.0658254325389862,0.02598291076719761,-0.254587858915329,1016.56915,
2021.02.12 11:43:20,36.0,11.0,6.5437393,15.3533,-39.334846,-0.23809451,0.6434667,9.712749,0.0060809883,0.0017579653,0.002529494,-0.06613322347402573,0.024508699774742126,-0.3016146719455719,1016.56915,
2021.02.12 11:43:20,36.0,11.0,5.387703,15.91717,-39.601547,-0.1691019,0.6244596,9.798675,-0.010474049,0.023923505,-0.0045496873,-0.06363347917795181,0.017255915328860283,-0.2501550614833832,1016.569,
2021.02.12 11:43:20,36.0,11.0,6.451355,15.614243,-38.56285,-0.27828872,0.6705208,9.638745,0.006789495,0.013197027,-0.0075088507,-0.06942442804574966,0.02886386401951313,-0.2842431366443634,1016.56915,
2021.02.12 11:43:20,36.0,11.0,5.1560364,15.724078,-39.639816,-0.29016948,0.62494904,9.7558775,-0.01968723,-0.0029448704,0.0120548,-0.06394311785697937,0.029734274372458458,-0.21466003358364105,1016.56915,
2021.02.12 11:43:20,36.0,11.0,4.538559,16.279858,-39.342194,-0.27531505,0.69363993,9.767435,-0.0053242994,-0.009268176,0.017783742,-0.07086849212646484,0.028179574757814407,-0.17821331322193146,1016.56915,
2021.02.12 11:43:20,36.0,11.0,5.650345,15.306943,-40.2034,-0.2713959,0.6408352,9.734637,-0.0071400316,-0.019245114,0.030263264,-0.06571010500192642,0.027872184291481972,-0.24744342267513275,1016.5693,
2021.02.12 11:43:20,36.0,11.0,6.198639,16.01483,-39.661057,-0.30328584,0.64133924,9.634172,-0.040509474,-0.029745052,0.0619687,-0.06643832474946976,0.03146982565522194,-0.2596592903137207,1016.56964,
2021.02.12 11:43:20,36.0,11.0,6.5287933,15.736526,-39.4738,-0.14740576,0.5941374,9.95282,-0.018651888,-0.018825961,0.061056793,-0.05961810052394867,0.01480936910957098,-0.31783515214920044,1016.56964,
2021.02.12 11:43:20,36.0,11.0,5.5127563,14.651158,-39.37171,-0.15008263,0.64788586,9.842201,0.054944765,-0.05493217,0.050797988,-0.06572487950325012,0.01524770725518465,-0.2780042588710785,1016.56964,
2021.02.12 11:43:20,36.0,11.0,6.1018066,16.010939,-39.689354,-0.12277651,0.59247357,9.834126,0.08317277,-0.086794764,0.028944883,-0.0601692833006382,0.012484091334044933,-0.2961418628692627,1016.5697,
2021.02.12 11:43:20,36.0,11.0,5.619194,15.702129,-39.90944,0.33967033,0.5458295,9.746714,0.03931391,-0.13402717,-0.08918371,-0.05590907856822014,-0.034835632890462875,-0.3731432557106018,1016.56976,
2021.02.12 11:43:20,36.0,11.0,4.7645493,15.386233,-39.666862,0.08880419,0.8315576,9.775266,0.10924801,-0.16799197,-0.16590162,-0.08485972136259079,-0.00908433087170124,-0.26762887835502625,1016.56976,
