Time,X-cord,Y-cord,Mag_x,Mag_y,Mag_z,Acc_x,Acc_y,Acc_z,Gyro_x,Gyro_y,Gyro_z,Orn_x,Orn_y,Orn_z,Pressure,
2021.02.12 11:34:33,13.0,17.0,-0.42752838,14.089145,-37.58596,-0.14700814,0.5701383,10.556409,0.12153469,-0.06134899,-0.03340981,-0.053951095789670944,0.013925060629844666,0.059009380638599396,1016.7131,
2021.02.12 11:34:33,13.0,17.0,-0.5995102,13.9443655,-37.91044,-0.65276027,0.92096037,9.3138,0.084925964,0.011205269,-0.03087033,-0.09832126647233963,0.06997086852788925,0.1826702207326889,1016.7106,
2021.02.12 11:34:33,13.0,17.0,-0.22692871,14.101842,-37.879913,-0.51638466,0.69876057,9.610917,-0.0537209,0.014951272,0.11067215,-0.07247301936149597,0.053677354007959366,0.13363534212112427,1016.70996,
2021.02.12 11:34:33,13.0,17.0,0.8565903,14.154045,-37.118454,-0.41759858,0.68318826,9.970564,-0.037684686,-0.020636719,0.1526337,-0.06835384666919708,0.04185868427157402,0.04184741899371147,1016.70905,
2021.02.12 11:34:33,13.0,17.0,0.41297913,15.49339,-36.631912,-0.4640282,0.6414342,9.588058,2.829576E-4,-0.033785436,0.19297837,-0.06672187894582748,0.0483587421476841,0.07573792338371277,1016.70905,
2021.02.12 11:34:33,13.0,17.0,0.61917114,14.850753,-36.527626,-0.14797902,0.37291875,9.531134,-0.017224483,-0.017439406,0.21278057,-0.039101727306842804,0.015524609945714474,-0.0031991300638765097,1016.70807,
2021.02.12 11:34:33,13.0,17.0,0.33181763,14.754945,-37.29419,-0.02081153,0.3998914,9.650089,-0.04696197,-0.0036796536,0.15127857,-0.04141534864902496,0.0021566119976341724,-0.015434191562235355,1016.70807,
2021.02.12 11:34:33,13.0,17.0,0.118904114,13.947366,-36.544174,0.06554761,0.35166958,9.561033,-0.042866517,-0.0057078223,0.093779184,-0.03676410764455795,-0.0068555958569049835,-0.0241710152477026,1016.70807,
2021.02.12 11:34:33,13.0,17.0,1.8013229,15.348517,-38.411125,0.2166019,0.3248389,9.387103,-0.14106406,0.015402052,0.024937605,-0.03458181023597717,-0.02307031862437725,-0.15984994173049927,1016.7076,
2021.02.12 11:34:33,13.0,17.0,0.36426544,16.22812,-37.61815,0.117354,0.40323615,9.616767,-0.19275454,0.020518623,-0.06584513,-0.04190286621451378,-0.012202455662190914,-0.046245116740465164,1016.7074,
2021.02.12 11:34:33,13.0,17.0,1.041748,15.937013,-35.54648,0.051199924,0.34970316,9.982697,-0.21267131,0.05543024,-0.089890055,-0.03501615300774574,-0.005128822289407253,-0.07116321474313736,1016.7066,
2021.02.12 11:34:34,13.0,17.0,0.005264282,14.93067,-35.937958,-0.2100401,0.41884324,10.400068,-0.08831577,0.0025890116,-0.12614457,-0.04024317488074303,0.02019328624010086,0.04399420693516731,1016.7066,
2021.02.12 11:34:34,13.0,17.0,0.61283875,16.05298,-35.85553,-0.4259962,0.44420496,9.85341,-0.03603269,-0.004749708,-0.057105284,-0.04500885680317879,0.04320647567510605,0.05300747975707054,1016.70667,
2021.02.12 11:34:34,13.0,17.0,1.1502533,16.018295,-35.64286,-0.18893142,0.29707673,10.054088,0.0099468455,-0.007299566,-0.024021853,-0.029534053057432175,0.018789291381835938,-0.02814408205449581,1016.7066,
2021.02.12 11:34:34,13.0,17.0,0.36930084,14.947085,-35.2807,-0.13979535,0.2989557,9.992667,0.06954576,-0.019913567,-0.006980952,-0.029905663803219795,0.013988880440592766,0.007768126670271158,1016.7065,
2021.02.12 11:34:34,13.0,17.0,0.6726532,15.316596,-36.20797,-0.086658455,0.30373877,9.742785,0.08926516,-0.020940965,-0.00593126,-0.031164437532424927,0.008894394151866436,-0.02132498100399971,1016.7065,
2021.02.12 11:34:34,13.0,17.0,0.77893066,15.037746,-36.72448,-0.07672305,0.3571713,9.880241,0.087989,-0.009713837,-0.01783021,-0.03613322973251343,0.007765145041048527,-0.03018009476363659,1016.7061,
2021.02.12 11:34:34,13.0,17.0,-0.017181396,15.735877,-36.20643,-0.12501718,0.40906954,9.755824,0.11594217,-0.008155519,-0.016976232,-0.0419028177857399,0.012813919223845005,0.02790178172290325,1016.7052,
2021.02.12 11:34:34,13.0,17.0,0.3566208,15.413151,-37.664948,-0.12483146,0.32608262,9.549801,0.083515905,0.0047011124,-0.030978035,-0.0341293141245842,0.013070885092020035,0.008131294511258602,1016.7051,
2021.02.12 11:34:34,13.0,17.0,-0.18000793,13.415462,-35.527985,-0.10433387,0.33832255,9.45472,0.013630433,0.029063657,-0.04456587,-0.03576601669192314,0.011034662835299969,0.038954347372055054,1016.70465,
2021.02.12 11:34:34,13.0,17.0,-0.25418854,15.226579,-37.375717,-0.18973994,0.3842727,9.659173,-0.035407584,0.04394065,-0.0658771,-0.039754562079906464,0.019640972837805748,0.05910566449165344,1016.7044,
2021.02.12 11:34:34,13.0,17.0,0.035003662,14.8932085,-36.681465,-0.24252136,0.4038894,9.808674,-0.026039062,0.012670453,-0.023613004,-0.04114094749093056,0.02472015656530857,0.0531376451253891,1016.7044,
2021.02.12 11:34:34,13.0,17.0,-0.40397644,15.051504,-36.412376,-0.30887434,0.4268084,9.663358,-0.012581576,-0.011631476,-0.0029227738,-0.04411652311682701,0.03195258229970932,0.09388875216245651,1016.70416,
2021.02.12 11:34:34,13.0,17.0,-0.8783493,14.805195,-37.40071,-0.14332871,0.47622457,9.775931,-0.045741554,-1.1034595E-4,0.037389338,-0.04867028072476387,0.014660337008535862,0.08569265156984329,1016.70374,
2021.02.12 11:34:34,13.0,17.0,0.55306244,15.500708,-36.437737,-0.081424624,0.4246113,9.922257,-0.008252531,0.008664748,0.0074819447,-0.04276628419756889,0.008206075988709927,-0.014903191477060318,1016.70374,
2021.02.12 11:34:34,13.0,17.0,-0.7301178,15.853463,-35.947502,-0.11862266,0.42163858,9.67543,-0.004136108,0.014318402,-0.0071985675,-0.04354745149612427,0.012259581126272678,0.06717242300510406,1016.70374,
2021.02.12 11:34:35,13.0,17.0,0.35009766,15.723621,-36.499977,-0.089291655,0.39614162,9.725624,-0.025520813,0.011454297,-0.011684944,-0.040707528591156006,0.009180814027786255,-8.716000593267381E-4,1016.70374,
2021.02.12 11:34:35,13.0,17.0,1.1520615,14.989816,-35.777176,-0.16856097,0.45459333,9.917206,-0.013780357,0.028318506,-0.021486701,-0.04580017924308777,0.016995184123516083,-0.032727234065532684,1016.70374,
2021.02.12 11:34:35,13.0,17.0,-0.16991425,14.666777,-36.21772,-0.21547292,0.42189196,9.603467,0.006794109,0.0017379746,-0.016093578,-0.04389195516705513,0.02243322879076004,0.06040724739432335,1016.70374,
2021.02.12 11:34:35,13.0,17.0,0.9281769,15.526265,-36.997383,-0.1521173,0.36593518,9.867592,-0.022232559,0.0038709785,-0.010058161,-0.03706316277384758,0.015414626337587833,-0.02118416503071785,1016.7035,
2021.02.12 11:34:35,13.0,17.0,-0.028274536,15.614227,-37.61769,-0.24700622,0.40776417,9.76458,0.01380357,-6.627408E-6,-0.024561696,-0.04172194004058838,0.025290751829743385,0.056990813463926315,1016.7035,
2021.02.12 11:34:35,13.0,17.0,0.247612,15.932791,-37.07731,-0.27207676,0.36723232,9.737774,0.003427856,-0.011600314,-1.1857459E-4,-0.03767959028482437,0.02793307602405548,0.045472536236047745,1016.7035,
2021.02.12 11:34:35,13.0,17.0,1.3322754,15.870538,-37.429863,-0.24067192,0.414188,9.752549,0.013623852,-0.014651017,0.00867591,-0.0424313060939312,0.024672839790582657,-0.02341018244624138,1016.7035,
2021.02.12 11:34:35,13.0,17.0,1.0277939,15.870713,-36.828255,-0.12974785,0.32328084,9.788789,0.018514689,-0.017211147,0.010305312,-0.03301072493195534,0.013253964483737946,-0.031585704535245895,1016.7035,
2021.02.12 11:34:35,13.0,17.0,-0.38393402,13.855878,-36.610405,-0.22820379,0.47487685,9.744465,0.01908298,-0.022148594,0.0017521048,-0.04868113622069359,0.023414531722664833,0.07928037643432617,1016.7035,
2021.02.12 11:34:35,13.0,17.0,0.17549896,15.136787,-37.822502,-0.0911373,0.39724994,9.815231,0.02672774,-0.018837687,0.0221875,-0.04044898971915245,0.009285026229918003,0.010548895224928856,1016.7035,
2021.02.12 11:34:35,13.0,17.0,1.1769257,15.236095,-37.685753,-0.095029175,0.41711745,9.678845,0.01602798,-0.014804968,-0.012150735,-0.04306706041097641,0.009817918762564659,-0.0478639118373394,1016.7035,
2021.02.12 11:34:35,13.0,17.0,-0.33738708,15.098869,-37.342934,-0.2135218,0.45006493,9.787093,0.024094313,-0.01997013,-0.010450545,-0.045942265540361404,0.02181321009993553,0.06846443563699722,1016.70374,
2021.02.12 11:34:35,13.0,17.0,0.025886536,15.046293,-36.63836,-0.14393885,0.4685873,9.825328,0.016722962,-0.012528409,0.0029191568,-0.04765055328607559,0.014648729003965855,0.03044222854077816,1016.70374,
2021.02.12 11:34:35,13.0,17.0,-0.31266022,14.814875,-37.050102,-0.04315394,0.47511712,9.578693,0.0072653885,-0.020072946,-0.0033813089,-0.04956033453345299,0.00450517050921917,0.02882630005478859,1016.70374,
2021.02.12 11:34:35,13.0,17.0,-1.8744888,13.735984,-35.749695,0.02160143,0.42663017,9.896869,0.017179707,0.009096592,-0.05214201,-0.04308081418275833,-0.0021826494485139847,0.11716052144765854,1016.70374,
2021.02.12 11:34:36,13.0,17.0,-1.0477905,13.475755,-37.283806,-0.13240524,0.5471646,9.481277,-0.016422972,-0.017712668,-0.042603012,-0.05764046683907509,0.013964008539915085,0.10019437223672867,1016.7035,
2021.02.12 11:34:36,13.0,17.0,-0.23429108,14.577589,-37.688034,-0.042792756,0.48440465,9.973903,-0.021442782,0.0025040128,-0.057077177,-0.048528630286455154,0.004290446173399687,0.024157650768756866,1016.70325,
2021.02.12 11:34:36,13.0,17.0,-1.181015,14.039662,-36.074593,-0.22799645,0.6050342,9.720715,0.018289898,-0.0022197166,-0.053976372,-0.06214449927210808,0.023450402542948723,0.12406712025403976,1016.7032,
2021.02.12 11:34:36,13.0,17.0,-0.55820465,14.802295,-37.484222,-0.07029587,0.45600212,9.664265,-0.015707925,-0.005780063,-0.031047048,-0.047148142009973526,0.00727366516366601,0.05015255883336067,1016.7032,
2021.02.12 11:34:36,13.0,17.0,-1.246521,14.298604,-36.353493,-0.08937638,0.46957266,9.843664,-0.0073346333,-0.0054436587,-0.053230077,-0.04766494035720825,0.009079335257411003,0.09813152253627777,1016.7032,
2021.02.12 11:34:36,13.0,17.0,-1.3785172,14.584895,-36.48828,-0.21711455,0.49396667,9.759094,0.009689737,-0.003910476,-0.044251993,-0.05056038871407509,0.022243738174438477,0.1326693743467331,1016.7032,
2021.02.12 11:34:36,13.0,17.0,-0.2524643,15.148763,-37.345627,-0.22930579,0.53141683,9.630136,-0.0113289,-0.012064591,-0.009452634,-0.055111195892095566,0.023806774988770485,0.06633192300796509,1016.7031,
2021.02.12 11:34:36,13.0,17.0,-1.2851562,15.051304,-37.142532,-0.093889326,0.4643619,9.90749,0.004142832,-0.00781425,-0.006721329,-0.04683340713381767,0.009476317092776299,0.09729304909706116,1016.7032,
2021.02.12 11:34:36,13.0,17.0,-1.447815,15.853546,-36.730103,-0.15389211,0.4550934,9.746332,0.007957545,7.26241E-4,-0.009472864,-0.0466541163623333,0.015788434073328972,0.11503133177757263,1016.7032,
2021.02.12 11:34:36,13.0,17.0,-1.776886,14.214185,-36.60003,-0.21817337,0.4969349,9.628907,-0.014094009,0.005147189,0.003864588,-0.05154969543218613,0.02265428751707077,0.1606513112783432,1016.7032,
2021.02.12 11:34:36,13.0,17.0,-1.5489044,14.446836,-36.665054,-0.1426063,0.51250225,9.805445,-0.01849816,0.010162069,0.02306669,-0.05221408233046532,0.01454255823045969,0.12673510611057281,1016.7032,
2021.02.12 11:34:36,13.0,17.0,-1.2768784,14.731051,-37.038765,-0.12951554,0.4499484,9.768828,-4.1866468E-4,0.03471479,0.015721688,-0.046023037284612656,0.013257266022264957,0.1072566956281662,1016.7032,
2021.02.12 11:34:36,13.0,17.0,-1.3040619,14.244271,-35.547157,-0.20432967,0.516443,9.749663,-0.0062225545,0.032203734,0.024606729,-0.05290928855538368,0.020954543724656105,0.12654337286949158,1016.7032,
2021.02.12 11:34:36,13.0,17.0,-0.17081451,14.477353,-36.93383,-0.11991296,0.53533477,9.770951,-0.0031894217,0.010889711,0.052329592,-0.05472956597805023,0.012271777726709843,0.03785775974392891,1016.7032,
2021.02.12 11:34:36,13.0,17.0,0.17356873,15.259141,-36.771194,-0.007778724,0.46663025,9.852628,0.0012651794,0.0126724085,0.029921457,-0.04732561856508255,7.895074086263776E-4,-0.008511198684573174,1016.7032,
2021.02.12 11:34:37,13.0,17.0,0.54904175,15.894208,-37.663574,-0.18943422,0.51521134,9.718577,0.023795845,-0.0020118793,0.0092060855,-0.05295342206954956,0.019489500671625137,0.010358103550970554,1016.7032,
2021.02.12 11:34:37,13.0,17.0,-0.3436432,13.683208,-36.03232,-0.15300916,0.47572842,9.729106,0.0026924957,0.018707301,0.027068127,-0.04885249584913254,0.015725653618574142,0.05893664062023163,1016.7032,
2021.02.12 11:34:37,13.0,17.0,-1.3406296,15.509452,-36.711227,-0.18971734,0.5042083,9.715889,0.014163148,0.004603803,0.016333027,-0.05183885619044304,0.019524022936820984,0.11774972081184387,1016.70294,
2021.02.12 11:34:37,13.0,17.0,0.60365295,14.781211,-36.872658,-0.25290123,0.5250526,9.80368,0.012498626,0.006725234,0.023396004,-0.053487807512283325,0.02579084038734436,0.020761333405971527,1016.70294,
2021.02.12 11:34:37,13.0,17.0,-0.047286987,14.422132,-36.84841,-0.16306673,0.49749696,9.651089,0.0052452097,0.024611369,0.030216906,-0.05149535462260246,0.016894591972231865,0.04106982424855232,1016.70294,
2021.02.12 11:34:37,13.0,17.0,0.71401215,14.946152,-36.4925,-0.08523493,0.42165685,9.898488,0.01225111,0.05262301,5.6651025E-4,-0.04257079213857651,0.008610691875219345,-0.024244146421551704,1016.70294,
2021.02.12 11:34:37,13.0,17.0,-0.34144592,14.198549,-37.573647,-0.11968186,0.5152641,9.674139,-0.010009123,0.03553568,-0.014761362,-0.05320766195654869,0.012370687909424305,0.04979823902249336,1016.70294,
2021.02.12 11:34:37,13.0,17.0,0.3323059,14.879409,-37.46579,-0.18960108,0.5552049,9.840213,0.016203353,0.00923826,-0.04188668,-0.05635185167193413,0.01926560141146183,0.022954484447836876,1016.70294,
2021.02.12 11:34:37,13.0,17.0,1.2046432,15.062352,-37.178886,-0.27261117,0.61763,9.625981,-0.0011969183,-0.0032867803,-0.011054916,-0.0640493631362915,0.02831278368830681,-0.008709881454706192,1016.7032,
2021.02.12 11:34:37,13.0,17.0,0.90566254,15.344747,-37.575645,-0.20596085,0.50801694,9.876765,0.0060184035,0.0014095011,-0.016451344,-0.05137912184000015,0.02085004560649395,-0.007074347231537104,1016.7032,
2021.02.12 11:34:37,13.0,17.0,0.62607574,15.791774,-37.055664,-0.26771843,0.6242363,9.668462,0.0013735667,0.0041468167,-0.017378325,-0.06445005536079407,0.027682792395353317,0.022031178697943687,1016.7032,
2021.02.12 11:34:37,13.0,17.0,-1.4520111,14.125455,-37.014107,-0.30451837,0.53415173,9.751582,0.01903303,-0.012379599,-0.015091382,-0.054694607853889465,0.031217442825436592,0.16026991605758667,1016.7032,
2021.02.12 11:34:37,13.0,17.0,0.9176178,14.137408,-35.669594,-0.34029052,0.5206554,9.538175,-0.038440086,-0.013721045,0.015406238,-0.05449775606393814,0.035661567002534866,0.022084295749664307,1016.7032,
2021.02.12 11:34:37,13.0,17.0,0.114349365,13.89279,-36.613182,-0.19686615,0.60056347,9.912026,-0.051846854,0.022859307,0.0021835684,-0.06050349026918411,0.01985873281955719,0.03808361664414406,1016.7032,
2021.02.12 11:34:37,13.0,17.0,0.15761566,14.19834,-35.876015,-0.32883233,0.5305248,9.911669,0.015802005,0.006696368,-0.0029231654,-0.05344489961862564,0.033164121210575104,0.06403958052396774,1016.7032,
2021.02.12 11:34:38,13.0,17.0,-0.7665863,14.456974,-37.37902,-0.35778642,0.5115878,9.499203,-0.01058223,-0.0035500564,0.02589092,-0.05376584455370903,0.03764709085226059,0.13139651715755463,1016.7032,
2021.02.12 11:34:38,13.0,17.0,-1.5573959,14.488244,-37.529373,-0.16688883,0.5142017,9.994071,-0.015756123,0.008197124,0.026989328,-0.05139819532632828,0.0166972316801548,0.1324140727519989,1016.70325,
2021.02.12 11:34:38,13.0,17.0,0.23422241,16.116606,-37.146637,-0.26405627,0.5965883,9.712804,0.03350262,-0.015583594,0.0021790431,-0.061323199421167374,0.027179716154932976,0.042201194912195206,1016.7033,
2021.02.12 11:34:38,13.0,17.0,-0.2610855,15.74919,-38.080383,-0.22408457,0.49581185,9.7879305,0.022393921,-0.014521809,0.009239122,-0.050598934292793274,0.022889969870448112,0.06406677514314651,1016.70374,
2021.02.12 11:34:38,13.0,17.0,-0.4768448,14.988142,-36.466896,-0.1556442,0.48271823,9.447026,-0.033143144,-0.03198415,-0.005566026,-0.05104605853557587,0.016473978757858276,0.06394089758396149,1016.70374,
2021.02.12 11:34:38,13.0,17.0,-0.9599304,14.368049,-36.612152,-0.22790031,0.5401247,10.341015,0.047363408,0.0016472234,-0.06168071,-0.052171241492033005,0.022034918889403343,0.10823430120944977,1016.70386,
2021.02.12 11:34:38,13.0,17.0,-1.6976242,14.519493,-37.236214,-0.5676168,0.62014365,9.086917,0.05077986,-0.10752097,0.007528645,-0.06800798326730728,0.0623842254281044,0.23191379010677338,1016.704,
2021.02.12 11:34:38,13.0,17.0,-1.4278641,14.5832,-37.33728,0.09921097,0.5037573,9.806081,-0.07480095,0.0015349055,0.028478477,-0.05132419243454933,-0.010116945020854473,0.06363070756196976,1016.704,
2021.02.12 11:34:38,13.0,17.0,-1.426506,14.192028,-37.46293,0.0962758,0.666052,9.978496,-0.0031718821,0.018591648,-0.050900277,-0.06664677709341049,-0.009648027829825878,0.06385313719511032,1016.704,
2021.02.12 11:34:38,13.0,17.0,-0.3208313,14.510167,-38.197876,-0.05239929,0.55022055,9.7742,0.03523082,0.01019717,-0.108839065,-0.0562329962849617,0.005360928364098072,0.031587615609169006,1016.70435,
2021.02.12 11:34:38,13.0,17.0,-1.4725952,14.071195,-36.43654,-0.3342798,0.5431035,9.609757,0.0038141117,0.00903181,-0.08757901,-0.05642172694206238,0.03477143868803978,0.16848091781139374,1016.70435,
2021.02.12 11:34:38,13.0,17.0,-1.3983536,14.585461,-37.409805,-0.3583373,0.5953982,9.636544,-0.020809766,-0.0075963563,-0.037129216,-0.06166449189186096,0.03716812655329704,0.16386696696281433,1016.7047,
2021.02.12 11:34:38,13.0,17.0,0.43868256,14.601538,-36.31282,-0.23876333,0.5692355,9.886452,-0.0080435835,-0.007390456,-4.9396418E-5,-0.05749710276722908,0.024145863950252533,0.026287805289030075,1016.70496,
2021.02.12 11:34:38,13.0,17.0,-1.4818802,14.475158,-36.38646,-0.16935982,0.50693744,9.692673,-0.00858487,-0.021082845,0.007979141,-0.05224553123116493,0.01747119426727295,0.12875336408615112,1016.7052,
2021.02.12 11:34:38,13.0,17.0,-2.147606,14.866278,-36.749596,-0.19175422,0.48725772,9.647118,-0.016818564,-0.0175488,-0.017740898,-0.05045527592301369,0.019874224439263344,0.170647531747818,1016.7052,
2021.02.12 11:34:39,13.0,17.0,-0.25862122,15.583833,-36.647446,-0.18273152,0.4971358,9.770875,-0.041131858,0.007523036,-0.004503584,-0.05082664638757706,0.01869947463274002,0.05411205440759659,1016.70526,
2021.02.12 11:34:39,13.0,17.0,-1.3325348,15.36551,-37.233215,-0.20021284,0.5288515,9.801705,-0.022521174,5.655313E-4,-0.0073461235,-0.053891561925411224,0.020423486828804016,0.12005443125963211,1016.7057,
2021.02.12 11:34:39,13.0,17.0,0.19042969,14.448048,-36.409065,-0.14697526,0.4662725,9.884209,-0.022346674,0.028166676,-0.0064190887,-0.04713333025574684,0.014868608675897121,0.021729106083512306,1016.70575,
2021.02.12 11:34:39,13.0,17.0,-1.2401657,14.55678,-36.42222,-0.16160609,0.55065393,9.700225,0.008454255,-0.0010065257,-0.021608787,-0.05669841915369034,0.016658494248986244,0.11081884056329727,1016.70575,
2021.02.12 11:34:39,13.0,17.0,0.29335022,15.316646,-37.382477,-0.13882689,0.5087078,9.958702,0.009469345,0.010882931,-0.012898569,-0.05103243142366409,0.013939357362687588,0.01323766727000475,1016.70575,
2021.02.12 11:34:39,13.0,17.0,-0.44276428,14.390176,-37.3834,-0.23637418,0.48778164,9.576973,0.027743854,-6.73008E-5,-0.035238728,-0.050873320549726486,0.024676503613591194,0.08369512856006622,1016.70593,
2021.02.12 11:34:39,13.0,17.0,-0.85383606,14.486382,-36.75949,-0.31530383,0.53757685,9.86725,-0.006983362,8.302228E-4,0.004162793,-0.05439940094947815,0.031943708658218384,0.12254762649536133,1016.7061,
2021.02.12 11:34:39,13.0,17.0,-1.1071777,14.295607,-37.890274,-0.251487,0.55408496,9.7272,0.017603213,-0.012560196,0.03092701,-0.05688197910785675,0.02584823966026306,0.12633666396141052,1016.7061,
2021.02.12 11:34:39,13.0,17.0,0.109375,16.374569,-37.51271,-0.09582057,0.47672346,9.737031,0.010487001,0.0018192354,0.023092164,-0.04891841113567352,0.009840522892773151,0.014280468225479126,1016.7061,
2021.02.12 11:34:39,13.0,17.0,-1.5341492,14.331512,-36.364853,-0.11743989,0.49784863,9.739146,-6.425971E-4,0.0048768944,0.0059592566,-0.051070138812065125,0.01205795630812645,0.12140035629272461,1016.7061,
2021.02.12 11:34:39,13.0,17.0,-0.53912354,14.457148,-36.93563,-0.22624834,0.52373403,9.74318,0.007111217,0.011755299,-0.007089657,-0.05368777737021446,0.023217028006911278,0.08485538512468338,1016.7061,
2021.02.12 11:34:39,13.0,17.0,-1.7553253,14.657813,-36.800995,-0.2786552,0.60470754,9.683627,-0.0072015934,0.018235262,0.011818656,-0.062339670956134796,0.02876797318458557,0.16477422416210175,1016.70624,
2021.02.12 11:34:39,13.0,17.0,-0.59454346,14.649615,-38.18138,-0.16976406,0.49459505,9.790031,-8.253434E-4,0.015494122,0.015462896,-0.0504697784781456,0.017338765785098076,0.07574350386857986,1016.7064,
2021.02.12 11:34:39,13.0,17.0,-1.5469055,15.197462,-36.814972,-0.18998592,0.525956,9.681394,-0.0069621974,0.008433112,0.0035087604,-0.05426269397139549,0.01962130144238472,0.1313849687576294,1016.7065,
2021.02.12 11:34:39,13.0,17.0,-0.4723816,14.229846,-37.14627,-0.22699165,0.5792324,9.763936,-0.017182244,0.013624247,0.008437779,-0.0592382475733757,0.023243779316544533,0.08124546706676483,1016.7065,
2021.02.12 11:34:40,13.0,17.0,0.24908447,15.915036,-37.44863,-0.22140928,0.5797965,9.808281,-0.0062802155,0.0017130544,0.005177399,-0.05902924761176109,0.022569876164197922,0.03292940929532051,1016.70654,
2021.02.12 11:34:40,13.0,17.0,0.12765503,15.874279,-37.5903,-0.20151083,0.57179767,9.795325,0.007852418,-0.008358466,0.012039652,-0.05829606577754021,0.020569240674376488,0.03577321395277977,1016.70654,
2021.02.12 11:34:40,13.0,17.0,-0.5226517,14.687595,-36.558167,-0.2030875,0.5318034,9.711377,0.011354502,-3.3622608E-4,-0.004283956,-0.054694291204214096,0.020909277722239494,0.07707661390304565,1016.70654,
2021.02.12 11:34:40,13.0,17.0,-0.34014893,14.923092,-36.529366,-0.22859518,0.563446,9.762394,0.005081206,-0.0037478409,-0.0012282573,-0.05763624235987663,0.023411614820361137,0.07018346339464188,1016.70654,
2021.02.12 11:34:40,13.0,17.0,0.06993866,14.464578,-37.375916,-0.2460159,0.5460654,9.735892,-4.8714763E-4,-0.0017951106,-0.0063028145,-0.05601131170988083,0.025263587012887,0.05282660201191902,1016.70654,
2021.02.12 11:34:40,13.0,17.0,-0.49674225,15.93028,-37.252502,-0.2824132,0.5678895,9.686961,0.0050926516,-0.01040857,0.007736422,-0.05853227898478508,0.029145698994398117,0.08728254586458206,1016.7067,
2021.02.12 11:34:40,13.0,17.0,-0.423378,15.263413,-37.261932,-0.1952659,0.5271859,9.86522,-0.007853841,0.023007214,-6.110638E-4,-0.05337762087583542,0.019790781661868095,0.06726732105016708,1016.7068,
2021.02.12 11:34:40,13.0,17.0,-0.6828232,14.70347,-36.884872,-0.29006073,0.56170803,9.6295595,0.018019065,0.006775464,-0.0014959411,-0.05823926255106926,0.03011280670762062,0.10618063807487488,1016.7068,
2021.02.12 11:34:40,13.0,17.0,0.30020905,15.575038,-36.643463,-0.2652856,0.55008084,9.754458,-0.015732598,-0.007860947,0.012404783,-0.05631231516599655,0.027189642190933228,0.03950275853276253,1016.7068,
2021.02.12 11:34:40,13.0,17.0,-1.2069397,15.231897,-36.064133,-0.23424298,0.5823748,9.843335,0.003498213,-0.014867017,0.015903782,-0.05907880514860153,0.023792624473571777,0.11855795234441757,1016.70685,
2021.02.12 11:34:40,13.0,17.0,-0.095199585,14.73263,-36.934807,-0.16357692,0.5693352,9.72701,0.04416768,-0.02277848,-0.0052541816,-0.0584564208984375,0.0168151892721653,0.04244270175695419,1016.70685,
2021.02.12 11:34:40,13.0,17.0,-1.7465591,14.863401,-36.8033,-0.26793608,0.6208852,9.728484,0.002634275,-0.024670478,0.013011465,-0.06371083855628967,0.02753443829715252,0.15930990874767303,1016.7071,
2021.02.12 11:34:40,13.0,17.0,-0.1425476,14.785215,-36.52594,-0.2550241,0.6273605,9.722912,0.0149250105,-0.04061017,0.022782592,-0.06441251933574677,0.02622317709028721,0.06423424184322357,1016.7072,
2021.02.12 11:34:40,13.0,17.0,-0.053329468,15.047539,-37.132957,-0.19325106,0.6346324,9.75772,0.008690496,-0.04011801,0.029480834,-0.06493483483791351,0.01980235055088997,0.04522591456770897,1016.70734,
2021.02.12 11:34:40,13.0,17.0,-0.6137085,14.223051,-36.29293,-0.09424139,0.62216574,9.778885,0.022213021,-0.034408703,0.020170506,-0.06353480368852615,0.009636934846639633,0.05832970142364502,1016.70734,
2021.02.12 11:34:41,13.0,17.0,-0.18843079,14.44546,-37.4068,-0.09794427,0.7077759,9.74118,0.025675733,-0.03969855,0.018479945,-0.07252702116966248,0.010054321959614754,0.03296622261404991,1016.70795,
2021.02.12 11:34:41,13.0,17.0,-0.45910645,13.505133,-37.512863,-0.07636026,0.6467468,9.933002,0.059156995,-0.042186562,-2.7138786E-4,-0.0650172233581543,0.007687379606068134,0.04693586006760597,1016.70825,
2021.02.12 11:34:41,13.0,17.0,-0.99095154,13.996631,-37.056282,0.12576401,0.74023455,9.31029,0.035198905,-0.033231936,-0.033028405,-0.07933302968740463,-0.013507244177162647,0.02902352809906006,1016.70844,
