Time,X-cord,Y-cord,Mag_x,Mag_y,Mag_z,Acc_x,Acc_y,Acc_z,Gyro_x,Gyro_y,Gyro_z,Orn_x,Orn_y,Orn_z,Pressure,
2021.01.30 16:00:54,69.0,24.0,23.4,-36.239998,-40.86,-4.6927786,8.739103,-0.40463245,0.06289591,-0.121713065,0.06628804,-1.0764540433883667,1.6568081378936768,1.565216302871704,1016.1489,
2021.01.30 16:00:54,69.0,24.0,23.279999,-36.36,-41.219997,-4.8771377,8.432636,-0.14844504,-0.014073113,-0.039246257,-0.06077193,-1.0462366342544556,1.6012238264083862,1.5506393909454346,1016.1489,
2021.01.30 16:00:54,69.0,24.0,24.06,-36.12,-41.219997,-5.073468,8.439818,-0.09577099,-0.04156205,-0.031915877,-0.040613376,-1.0294641256332397,1.5896708965301514,1.5387020111083984,1016.13965,
2021.01.30 16:00:54,69.0,24.0,24.0,-36.36,-41.94,-4.8364353,8.796566,-0.12450229,-0.002466674,-0.07773077,0.03818824,-1.0679594278335571,1.596533179283142,1.510830283164978,1016.1367,
2021.01.30 16:00:54,69.0,24.0,24.9,-36.3,-42.42,-4.68799,9.031204,0.50758624,-0.06294233,-0.039857123,0.06567718,-1.089608073234558,1.4629427194595337,1.3421381711959839,1016.1367,
2021.01.30 16:00:54,69.0,24.0,24.84,-36.18,-42.84,-4.819675,8.652909,0.045491222,0.009750632,-0.022752898,0.006423248,-1.0625752210617065,1.5613579750061035,1.4667985439300537,1016.1365,
2021.01.30 16:00:54,69.0,24.0,24.18,-36.6,-43.559998,-4.9944572,8.724737,-0.31125572,0.08305446,-0.02519636,-0.052219816,-1.0500462055206299,1.6330360174179077,1.5624743700027466,1016.1365,
2021.01.30 16:00:54,69.0,24.0,24.06,-36.0,-43.559998,-4.95136,8.875577,0.09577099,0.05984158,0.0010708468,-0.011291845,-1.0618565082550049,1.551456332206726,1.4735950231552124,1016.14185,
2021.01.30 16:00:54,69.0,24.0,23.82,-35.76,-43.62,-4.9106574,8.669669,0.08619389,0.06533937,0.02245113,-0.022898283,-1.0553693771362305,1.5532456636428833,1.4839247465133667,1016.1426,
2021.01.30 16:00:54,69.0,24.0,24.06,-35.64,-43.44,-4.635316,8.171659,-0.6560313,0.18995588,0.01756421,-0.08093048,-1.0505448579788208,1.7113914489746094,1.620941162109375,1016.1426,
2021.01.30 16:00:55,69.0,24.0,24.42,-35.88,-42.96,-5.236279,8.023215,-0.7134939,0.17957117,0.007179499,-0.069934905,-0.9883490800857544,1.7062220573425293,1.665865421295166,1016.13525,
2021.01.30 16:00:55,69.0,24.0,25.08,-36.719997,-42.96,-5.516409,8.475733,-0.4070267,-0.026290419,-0.038635395,-0.08031962,-0.9925838112831116,1.6444475650787354,1.6103768348693848,1016.13525,
2021.01.30 16:00:55,69.0,24.0,25.56,-37.2,-42.6,-4.5706706,8.655303,-0.3423813,-0.048892435,-0.034359336,0.03207959,-1.083783745765686,1.6455650329589844,1.5189441442489624,1016.14014,
2021.01.30 16:00:55,69.0,24.0,26.099998,-37.8,-42.239998,-5.011217,8.609812,0.2657645,-0.08187916,-0.034359336,0.08766833,-1.0430798530578613,1.5178120136260986,1.4388240575790405,1016.14233,
2021.01.30 16:00:55,69.0,24.0,25.74,-37.62,-42.42,-5.262616,8.669669,-0.52674043,-0.11669847,-0.005648671,0.0033689218,-1.0230215787887573,1.6705551147460938,1.6005840301513672,1016.14233,
2021.01.30 16:00:55,69.0,24.0,24.9,-36.899998,-42.12,-4.5515165,8.6984005,-0.10055954,0.0030311134,-0.0349702,0.030246992,-1.088614821434021,1.5928863286972046,1.474508285522461,1016.1404,
2021.01.30 16:00:55,69.0,24.0,24.779999,-36.54,-42.059998,-4.850801,8.722343,-0.12450229,-0.053168487,-7.61749E-4,-0.0314504,-1.0631153583526611,1.5964570045471191,1.5020136833190918,1016.1404,
2021.01.30 16:00:55,69.0,24.0,24.06,-36.3,-42.6,-4.9992456,8.559532,0.028731298,-0.065385796,0.024894591,-0.04855462,-1.0421757698059082,1.5650492906570435,1.5077792406082153,1016.1421,
2021.01.30 16:00:55,69.0,24.0,24.0,-36.42,-42.6,-4.982486,8.616995,-0.09337672,-0.01834917,0.015731612,-0.024120014,-1.046472191810608,1.589535117149353,1.5278791189193726,1016.1367,
2021.01.30 16:00:55,69.0,24.0,24.42,-36.6,-42.84,-5.0136113,8.571504,-0.05027977,-0.026901282,0.013899017,-0.0015180002,-1.0415198802947998,1.580824613571167,1.5191482305526733,1016.1367,
2021.01.30 16:00:55,69.0,24.0,24.3,-36.78,-42.899998,-5.133325,8.55235,-0.035914123,-0.040951185,0.038944494,-0.03328299,-1.0302014350891113,1.5777925252914429,1.5325425863265991,1016.1323,
2021.01.30 16:00:55,69.0,24.0,24.539999,-36.6,-42.719997,-4.9106574,8.545167,-0.16759923,-0.0036884043,0.015731612,0.018640552,-1.0489580631256104,1.6049127578735352,1.5305248498916626,1016.1323,
2021.01.30 16:00:55,69.0,24.0,24.779999,-36.42,-42.6,-4.9274178,8.626573,0.014365649,-0.052557625,0.028559782,0.025970936,-1.0518275499343872,1.5678808689117432,1.4872517585754395,1016.136,
2021.01.30 16:00:55,69.0,24.0,24.779999,-36.239998,-42.899998,-5.054314,8.511647,0.16041641,-0.03667513,0.0151207475,0.022305744,-1.0347185134887695,1.5390684604644775,1.4771615266799927,1016.13184,
2021.01.30 16:00:55,69.0,24.0,25.14,-35.94,-42.84,-4.8340406,8.609812,-0.24182175,-0.0091861915,-0.005648671,0.040020835,-1.0586656332015991,1.6207793951034546,1.5161406993865967,1016.13184,
2021.01.30 16:00:55,69.0,24.0,25.08,-36.059998,-42.96,-5.0040345,8.636149,0.019154198,-0.020792631,4.5998153E-4,0.044296894,-1.045636773109436,1.566968560218811,1.4832141399383545,1016.12573,
2021.01.30 16:00:55,69.0,24.0,25.019999,-36.059998,-42.96,-4.8555894,8.561927,0.07901107,-0.038507726,0.026727187,0.0149753615,-1.0548518896102905,1.55452561378479,1.4636168479919434,1016.12573,
2021.01.30 16:00:56,69.0,24.0,25.38,-36.0,-42.54,-4.862772,8.703189,-0.13168511,-0.021403495,0.021229401,0.04185343,-1.0611159801483154,1.5978699922561646,1.4882161617279053,1016.1284,
2021.01.30 16:00:56,69.0,24.0,24.779999,-36.6,-43.079998,-4.7167215,8.686429,0.07901107,-0.039118588,0.027948918,0.025360072,-1.0732853412628174,1.554046630859375,1.455506682395935,1016.1328,
2021.01.30 16:00:56,69.0,24.0,24.779999,-36.42,-42.899998,-4.9106574,8.605023,0.08140534,-0.017738305,0.00962296,0.02291661,-1.0521605014801025,1.5542205572128296,1.474989414215088,1016.1328,
2021.01.30 16:00:56,69.0,24.0,24.84,-36.059998,-43.2,-4.929812,8.626573,0.035914123,-0.030566474,0.021229401,-0.011902709,-1.051608920097351,1.5635113716125488,1.4792941808700562,1016.1306,
2021.01.30 16:00:56,69.0,24.0,24.359999,-35.94,-43.14,-4.8986864,8.626573,0.021548472,0.005474574,-0.0062595364,0.001536326,-1.0543403625488281,1.5663975477218628,1.4873231649398804,1016.1306,
2021.01.30 16:00:56,69.0,24.0,24.42,-35.52,-42.899998,-5.106988,8.571504,0.05506832,-0.010407922,0.0010708468,-0.011291845,-1.033437728881836,1.560013771057129,1.4960448741912842,1016.13306,
2021.01.30 16:00:56,69.0,24.0,24.72,-35.219997,-43.02,-4.9346004,8.650515,-0.12210801,-0.012851384,0.01756421,-0.007015787,-1.0522639751434326,1.5955365896224976,1.5002014636993408,1016.13306,
2021.01.30 16:00:56,69.0,24.0,24.3,-35.46,-42.96,-4.740664,8.566715,0.22506183,0.0048637087,-0.012979054,0.032690454,-1.0648835897445679,1.5233571529388428,1.4320839643478394,1016.13306,
2021.01.30 16:00:56,69.0,24.0,24.24,-35.64,-42.96,-5.054314,8.691217,0.028731298,0.0060854396,0.007179499,0.0070341136,-1.0440518856048584,1.5651118755340576,1.4950919151306152,1016.1333,
2021.01.30 16:00:56,69.0,24.0,24.84,-35.579998,-43.14,-4.7981267,8.676852,-0.0071828244,0.009750632,0.011455556,0.010699305,-1.0656675100326538,1.5722932815551758,1.467788815498352,1016.1333,
2021.01.30 16:00:56,69.0,24.0,24.779999,-35.94,-43.32,-4.905869,8.707977,0.22027329,-0.0030775391,0.0352793,0.009477574,-1.0573105812072754,1.5259264707565308,1.4387388229370117,1016.12695,
2021.01.30 16:00:56,69.0,24.0,24.72,-36.059998,-43.559998,-4.8340406,8.628966,-0.17717634,0.015248418,0.028559782,0.008255844,-1.059861183166504,1.6074317693710327,1.514064073562622,1016.14185,
2021.01.30 16:00:56,69.0,24.0,24.9,-36.239998,-43.8,-4.846012,8.621783,0.10774237,0.0036419786,0.025505457,-0.003961461,-1.0586309432983398,1.5485668182373047,1.4604978561401367,1016.14185,
2021.01.30 16:00:56,69.0,24.0,24.66,-36.42,-43.5,-4.8747435,8.628966,-0.10774237,-0.007964461,0.023061996,-0.006404922,-1.0564600229263306,1.5928949117660522,1.509324073791504,1016.1467,
2021.01.30 16:00:56,69.0,24.0,24.66,-36.48,-43.079998,-4.843618,8.600235,-0.06464542,0.012804957,4.5998153E-4,-9.071349E-4,-1.0578402280807495,1.5841420888900757,1.4999417066574097,1016.1467,
2021.01.30 16:00:56,69.0,24.0,25.26,-36.18,-42.78,-4.9417834,8.576292,0.0047885496,-0.0042992695,0.006568634,-0.011291845,-1.0480495691299438,1.5698273181915283,1.4807789325714111,1016.1521,
2021.01.30 16:00:57,69.0,24.0,25.56,-36.239998,-42.42,-4.7741838,8.662486,-0.014365649,0.0030311134,-0.01358992,0.011921035,-1.0670815706253052,1.573805332183838,1.458763599395752,1016.1587,
2021.01.30 16:00:57,69.0,24.0,25.8,-35.88,-42.78,-4.72151,8.696006,-0.062251143,-0.01590571,-0.010535593,0.033912186,-1.0733442306518555,1.5839802026748657,1.4541120529174805,1016.1587,
2021.01.30 16:00:57,69.0,24.0,25.859999,-35.82,-43.44,-4.972909,8.614601,-0.11971374,-0.013462248,-0.005648671,-0.008237517,-1.0471359491348267,1.594864845275879,1.4899084568023682,1016.1599,
2021.01.30 16:00:57,69.0,24.0,25.38,-36.059998,-43.559998,-4.745453,8.667274,-0.045491222,-0.034231666,0.0029034426,3.145956E-4,-1.0698447227478027,1.5803823471069336,1.4667024612426758,1016.1599,
2021.01.30 16:00:57,69.0,24.0,25.019999,-35.64,-44.1,-5.047131,8.645726,0.16041641,-0.07210531,0.04199882,0.0045906524,-1.042175054550171,1.5390233993530273,1.4596904516220093,1016.1548,
2021.01.30 16:00:57,69.0,24.0,24.0,-35.579998,-43.379997,-4.757424,8.705584,-0.071828246,-0.049503297,0.027338052,0.010699305,-1.0706120729446411,1.5858932733535767,1.4927818775177002,1016.15796,
2021.01.30 16:00:57,69.0,24.0,23.16,-34.98,-42.54,-4.8819265,8.655303,0.1340794,-0.025068687,0.016953342,-2.9626966E-4,-1.057077407836914,1.5433387756347656,1.4758228063583374,1016.15796,
2021.01.30 16:00:57,69.0,24.0,22.92,-34.5,-41.76,-4.9561486,8.624178,0.12210801,0.006696305,4.5998153E-4,0.001536326,-1.0490710735321045,1.5461636781692505,1.4845082759857178,1016.1511,
2021.01.30 16:00:57,69.0,24.0,22.38,-34.68,-41.04,-4.860378,8.684034,-0.14126222,-0.008575326,0.015731612,0.0027580566,-1.0603630542755127,1.599852204322815,1.5339630842208862,1016.14404,
2021.01.30 16:00:57,69.0,24.0,22.68,-34.68,-40.86,-5.0375543,8.597841,0.098165266,0.0030311134,-0.00320521,-0.003961461,-1.0407193899154663,1.5513120889663696,1.5036745071411133,1016.14404,
2021.01.30 16:00:57,69.0,24.0,22.92,-34.68,-40.5,-4.824464,8.621783,0.019154198,0.002420248,0.001681712,0.0033689218,-1.0606346130371094,1.5668261051177979,1.491603970527649,1016.13574,
2021.01.30 16:00:57,69.0,24.0,22.92,-34.92,-40.68,-4.520391,8.712766,-0.12929083,-0.005521,-0.0025943446,0.028414397,-1.0920361280441284,1.5993902683258057,1.4931303262710571,1016.13574,
2021.01.30 16:00:57,69.0,24.0,23.16,-34.86,-40.44,-4.946572,8.71516,0.25379312,-0.0018558087,-0.0117573235,0.005812383,-1.0539898872375488,1.5195343494415283,1.4518241882324219,1016.14185,
2021.01.30 16:00:57,69.0,24.0,23.16,-34.62,-40.14,-4.731087,8.645726,-0.071828246,0.02135707,-0.01847684,0.014364496,-1.0700440406799316,1.58597731590271,1.4929286241531372,1016.1477,
2021.01.30 16:00:57,69.0,24.0,23.519999,-34.38,-40.26,-4.7957325,8.71516,0.11492519,0.010972362,-0.014811649,0.0033689218,-1.067621111869812,1.5468368530273438,1.4488017559051514,1016.1477,
2021.01.30 16:00:57,69.0,24.0,23.58,-34.2,-40.5,-4.817281,8.638543,0.052674048,0.016470147,-0.026418088,0.0076449784,-1.0620735883712769,1.5598623752593994,1.4638005495071411,1016.15063,
2021.01.30 16:00:57,69.0,24.0,23.46,-34.2,-40.5,-4.853195,8.691217,0.12450229,0.009750632,-0.016644245,0.013142766,-1.061385154724121,1.545148253440857,1.4534178972244263,1016.15063,
2021.01.30 16:00:58,69.0,24.0,23.46,-34.5,-41.16,-4.6472874,8.729526,-0.06464542,0.02135707,-0.012979054,0.023527475,-1.0815534591674805,1.5847058296203613,1.4749772548675537,1016.1555,
2021.01.30 16:00:58,69.0,24.0,22.92,-34.98,-41.16,-4.807704,8.719949,0.22027329,0.017691879,-0.014811649,0.024749205,-1.0664772987365723,1.525011658668518,1.451762318611145,1016.1553,
2021.01.30 16:00:58,69.0,24.0,22.98,-35.52,-40.92,-4.7693954,8.727132,-0.1340794,0.025633126,-0.01725511,3.145956E-4,-1.0704765319824219,1.598901391029358,1.5201237201690674,1016.1553,
2021.01.30 16:00:58,69.0,24.0,23.16,-35.34,-41.16,-5.0040345,8.674458,0.18675344,0.016470147,-0.005648671,-0.0076266527,-1.047256588935852,1.5334930419921875,1.479042410850525,1016.14624,
2021.01.30 16:00:58,69.0,24.0,22.859999,-35.219997,-40.86,-4.7693954,8.688824,-0.18914771,0.019524476,-1.5088372E-4,0.008866709,-1.0684577226638794,1.6104341745376587,1.5314393043518066,1016.14624,
2021.01.30 16:00:58,69.0,24.0,23.1,-35.399998,-41.16,-4.6305275,8.707977,-0.009577099,0.034185242,-0.01847684,0.02169488,-1.0820660591125488,1.5728645324707031,1.4812475442886353,1016.1509,
2021.01.30 16:00:58,69.0,24.0,22.74,-35.46,-40.62,-4.8220696,8.755863,0.031125572,-0.016516576,0.012066421,-0.016178766,-1.0673880577087402,1.5643415451049805,1.4957796335220337,1016.1509,
2021.01.30 16:00:58,69.0,24.0,22.74,-35.579998,-40.62,-4.6736245,8.648121,-0.011971374,-0.0049101347,0.005346903,-0.022898283,-1.0753358602523804,1.5733578205108643,1.4972318410873413,1016.1443,
2021.01.30 16:00:58,69.0,24.0,22.68,-35.64,-40.92,-4.9585433,8.633755,0.062251143,-2.321288E-5,0.014509882,-0.024120014,-1.049438714981079,1.558242678642273,1.512781023979187,1016.13696,
2021.01.30 16:00:58,69.0,24.0,22.439999,-35.46,-40.8,-4.697567,8.686429,-0.117319465,-0.0091861915,0.01756421,-0.015567901,-1.0749181509017944,1.5957657098770142,1.5233559608459473,1016.13696,
2021.01.30 16:00:58,69.0,24.0,22.68,-35.04,-41.28,-4.8986864,8.652909,0.21787901,-0.011629653,-0.0025943446,-0.003350596,-1.0552287101745605,1.52634859085083,1.4708987474441528,1016.13794,
2021.01.30 16:00:58,69.0,24.0,22.439999,-34.559998,-41.46,-4.8388295,8.624178,-0.117319465,-0.025679555,0.013899017,-0.024730878,-1.0593630075454712,1.5950369834899902,1.5286235809326172,1016.14795,
2021.01.30 16:00:58,69.0,24.0,22.8,-34.32,-41.34,-4.862772,8.633755,-0.016759925,-0.005521,0.0047360384,0.0021471912,-1.0578515529632568,1.5742429494857788,1.5009154081344604,1016.14795,
2021.01.30 16:00:58,69.0,24.0,22.98,-34.2,-41.64,-4.819675,8.743892,0.11013664,-6.3407817E-4,-0.0068704016,0.008255844,-1.0669182538986206,1.5479488372802734,1.4632155895233154,1016.15063,
2021.01.30 16:00:58,69.0,24.0,22.439999,-34.44,-41.52,-4.764607,8.71516,-0.05506832,-0.022014363,0.004125173,0.011921035,-1.0704596042633057,1.5823535919189453,1.5051746368408203,1016.15063,
2021.01.30 16:00:58,69.0,24.0,22.74,-34.559998,-41.52,-4.9968514,8.607418,0.25379312,0.010361496,-0.0068704016,-0.005183192,-1.044257640838623,1.5200493335723877,1.4697471857070923,1016.1433,
2021.01.30 16:00:59,69.0,24.0,22.38,-35.1,-41.7,-4.678413,8.770228,-0.076616794,0.018302744,-0.009313863,0.016807957,-1.0806983709335327,1.5871715545654297,1.5086218118667603,1016.1433,
2021.01.30 16:00:59,69.0,24.0,22.32,-35.399998,-41.579998,-4.96812,8.657698,0.105348095,-2.321288E-5,0.020618534,-0.006404922,-1.0497384071350098,1.5495946407318115,1.5101348161697388,1016.1433,
2021.01.30 16:00:59,69.0,24.0,22.68,-35.16,-41.399998,-4.807704,8.739103,0.011971374,0.017081015,0.0010708468,-0.022287419,-1.0678465366363525,1.56830632686615,1.4980202913284302,1016.1489,
2021.01.30 16:00:59,69.0,24.0,22.38,-35.46,-41.16,-4.9417834,8.547561,0.07422252,0.024411395,0.018175073,-0.011902709,-1.0465481281280518,1.5557780265808105,1.5179938077926636,1016.1489,
2021.01.30 16:00:59,69.0,24.0,22.68,-35.28,-40.739998,-4.850801,8.686429,-0.18675344,0.033574376,0.0132881515,-0.01923309,-1.0611854791641235,1.6092767715454102,1.541839599609375,1016.14136,
2021.01.30 16:00:59,69.0,24.0,22.56,-35.1,-40.68,-4.8723493,8.669669,-0.12689656,0.0085289,0.0077903643,0.008255844,-1.0586421489715576,1.596834659576416,1.5336169004440308,1016.14136,
2021.01.30 16:00:59,69.0,24.0,22.619999,-35.1,-40.62,-4.819675,8.6433325,-0.009577099,0.014637553,0.0029034426,-0.0057940567,-1.0621225833892822,1.572783350944519,1.5071616172790527,1016.1406,
2021.01.30 16:00:59,69.0,24.0,22.8,-35.34,-40.8,-4.8364353,8.636149,-0.13647367,0.019524476,-0.0074812663,0.0033689218,-1.0601214170455933,1.5990066528320312,1.5320451259613037,1016.1467,
2021.01.30 16:00:59,69.0,24.0,22.5,-35.399998,-40.739998,-4.7358756,8.6984005,0.047885496,0.010361496,-0.0117573235,0.013142766,-1.072199821472168,1.560685396194458,1.4921289682388306,1016.1467,
2021.01.30 16:00:59,69.0,24.0,22.68,-35.7,-39.899998,-4.896292,8.645726,-0.023942748,0.0018093829,-0.011146458,0.0021471912,-1.0555007457733154,1.5756862163543701,1.5215427875518799,1016.147,
2021.01.30 16:00:59,69.0,24.0,22.439999,-35.64,-40.44,-4.9417834,8.626573,-0.34716985,0.019524476,-0.017865976,0.005812383,-1.0495123863220215,1.6409330368041992,1.589747667312622,1016.147,
2021.01.30 16:00:59,69.0,24.0,22.26,-35.46,-39.96,-4.843618,8.681641,0.22506183,0.0060854396,-0.019087706,0.016197093,-1.0614378452301025,1.5243641138076782,1.4748632907867432,1016.14355,
2021.01.30 16:00:59,69.0,24.0,22.56,-35.28,-40.079998,-4.7334814,8.693612,-0.22745611,-0.013462248,-0.00320521,0.040631704,-1.0717180967330933,1.6188119649887085,1.5413587093353271,1016.14746,
2021.01.30 16:00:59,69.0,24.0,22.5,-35.04,-40.8,-4.9346004,8.609812,-0.045491222,0.010361496,-0.0044269403,0.0052015176,-1.0503450632095337,1.580014944076538,1.5276744365692139,1016.14746,
2021.01.30 16:00:59,69.0,24.0,22.02,-34.739998,-40.079998,-4.6472874,8.696006,-0.18914771,-0.002466674,0.005346903,0.009477574,-1.0796520709991455,1.6114745140075684,1.5322449207305908,1016.1394,
2021.01.30 16:00:59,69.0,24.0,21.66,-34.559998,-39.54,-4.764607,8.707977,0.1699935,0.0036419786,-0.0068704016,0.021084012,-1.0698727369308472,1.5351330041885376,1.477465271949768,1016.1394,
2021.01.30 16:00:59,69.0,24.0,21.66,-34.62,-39.42,-4.7286925,8.710372,-0.24182175,-0.010407922,0.00840123,0.011921035,-1.072887659072876,1.6218910217285156,1.5534462928771973,1016.14624,
2021.01.30 16:01:00,69.0,24.0,21.48,-34.62,-39.239998,-4.8388295,8.674458,-0.083799616,0.021967936,-0.011146458,-0.0015180002,-1.0619014501571655,1.588112711906433,1.5381195545196533,1016.1492,
2021.01.30 16:01:00,69.0,24.0,21.96,-34.559998,-39.36,-4.7693954,8.624178,-0.13886794,0.017081015,-0.008702997,9.254609E-4,-1.065453290939331,1.5999045372009277,1.533948540687561,1016.1492,
2021.01.30 16:01:00,69.0,24.0,21.9,-34.92,-39.96,-4.7957325,8.6984005,-0.08619389,0.023800531,-0.017865976,0.0027580566,-1.0668604373931885,1.588767409324646,1.529091477394104,1016.14746,
2021.01.30 16:01:00,69.0,24.0,21.18,-34.739998,-39.899998,-4.680807,8.746285,-0.062251143,-2.321288E-5,-0.015422515,0.010699305,-1.079368233680725,1.584094762802124,1.5257574319839478,1016.14746,
2021.01.30 16:01:00,69.0,24.0,21.3,-34.68,-39.78,-4.8579836,8.631361,-0.11971374,-0.0049101347,-0.0025943446,-0.009459249,-1.058026909828186,1.5954340696334839,1.553741216659546,1016.1499,
2021.01.30 16:01:00,69.0,24.0,20.88,-35.1,-39.899998,-4.946572,8.672064,-0.11253092,0.018302744,-0.019087706,0.0021471912,-1.0523122549057007,1.5935416221618652,1.5720700025558472,1016.1448,
2021.01.30 16:01:00,69.0,24.0,20.76,-35.16,-39.78,-4.6329217,8.739103,-0.12929083,-0.024457823,0.009012095,0.010699305,-1.08316969871521,1.5986961126327515,1.5490037202835083,1016.1448,
2021.01.30 16:01:00,69.0,24.0,20.76,-35.16,-40.02,-4.802915,8.6984005,-0.047885496,0.0060854396,-0.011146458,0.01131017,-1.0662747621536255,1.5807660818099976,1.5502324104309082,1016.1428,
2021.01.30 16:01:00,69.0,24.0,20.88,-35.399998,-40.14,-4.7286925,8.667274,-0.14126222,-0.008575326,0.0035143078,-0.014957035,-1.0711653232574463,1.6006609201431274,1.5632575750350952,1016.1428,
2021.01.30 16:01:00,69.0,24.0,21.06,-35.76,-40.2,-4.802915,8.727132,0.026337024,-0.0042992695,0.0029034426,0.0021471912,-1.0676836967468262,1.5653128623962402,1.5358500480651855,1016.14575,
2021.01.30 16:01:00,69.0,24.0,21.539999,-35.52,-40.14,-4.6999617,8.719949,-0.34716985,-0.007964461,0.0029034426,-0.005183192,-1.0753084421157837,1.6445289850234985,1.5850119590759277,1016.1421,
2021.01.30 16:01:00,69.0,24.0,22.199999,-36.059998,-40.32,-4.7286925,8.650515,0.16759923,-0.0036884043,-0.005648671,-9.071349E-4,-1.0702743530273438,1.5353680849075317,1.484625220298767,1016.1421,
2021.01.30 16:01:00,69.0,24.0,22.26,-35.88,-40.5,-4.7550297,8.770228,-0.21787901,-0.026290419,0.005346903,-0.005183192,-1.0735384225845337,1.6165850162506104,1.5515347719192505,1016.1438,
2021.01.30 16:01:00,69.0,24.0,22.38,-35.94,-40.62,-4.810098,8.669669,0.098165266,0.009139766,-0.019087706,0.009477574,-1.064172387123108,1.5503909587860107,1.4999319314956665,1016.1438,
2021.01.30 16:01:00,69.0,24.0,22.5,-36.36,-40.86,-4.7598186,8.707977,-0.3040729,0.014637553,-0.011146458,0.006423248,-1.0697063207626343,1.634592890739441,1.5721631050109863,1016.14844,
2021.01.30 16:01:00,69.0,24.0,21.9,-35.76,-40.44,-4.723904,8.746285,-0.05985687,0.0366287,-0.03374847,0.039409973,-1.0755490064620972,1.583466649055481,1.5260883569717407,1016.14746,
2021.01.30 16:01:00,69.0,24.0,21.6,-35.94,-39.84,-4.819675,8.696006,-0.18196489,0.011583227,-0.020309437,0.012531901,-1.064401626586914,1.6085330247879028,1.5676112174987793,1016.14746,
2021.01.30 16:01:01,69.0,24.0,21.539999,-35.64,-39.48,-4.640105,8.736709,-0.0023942748,0.0036419786,-0.032526743,0.0052015176,-1.0825759172439575,1.5713123083114624,1.5129152536392212,1016.1482,
2021.01.30 16:01:01,69.0,24.0,20.939999,-35.46,-38.94,-4.503631,8.775017,-0.85236186,0.028687455,-0.08017423,0.02291661,-1.089433193206787,1.7578449249267578,1.6794697046279907,1016.1482,
2021.01.30 16:01:01,69.0,24.0,21.0,-36.12,-39.36,-5.032766,8.662486,0.062251143,-0.01712744,-0.0117573235,0.024749205,-1.0444432497024536,1.5584278106689453,1.5597732067108154,1016.1465,
