Time,X-cord,Y-cord,Mag_x,Mag_y,Mag_z,Acc_x,Acc_y,Acc_z,Gyro_x,Gyro_y,Gyro_z,Orn_x,Orn_y,Orn_z,Pressure,
2021.02.11 11:46:06,48.0,16.0,-4.2599998,-29.58,-24.3,0.07422252,0.74701375,10.0439825,0.054600358,0.038100276,-0.15602721,-0.07423555850982666,-0.007389615289866924,2.9953091144561768,1019.7024,
2021.02.11 11:46:06,48.0,16.0,-4.2599998,-29.34,-24.18,-0.4740664,0.57223165,9.402317,0.025889691,0.030159026,-0.15541634,-0.060708798468112946,0.0503775030374527,2.947465419769287,1019.72876,
2021.02.11 11:46:06,48.0,16.0,-4.38,-29.519999,-24.0,-0.019154198,0.6895511,10.051166,-0.027866451,-0.042533934,-0.015528195,-0.06849663704633713,0.0019056671299040318,2.98376727104187,1019.7251,
2021.02.11 11:46:06,48.0,16.0,-4.2,-29.76,-24.18,-0.014365649,0.6703969,9.862018,0.013672386,-0.018099327,-0.0075869467,-0.06787317991256714,0.0014566632453352213,2.9917469024658203,1019.7251,
2021.02.11 11:46:06,48.0,16.0,-4.3199997,-30.119999,-24.06,0.3232271,0.52674043,9.541185,0.14928447,-0.023597112,0.0070738196,-0.055119484663009644,-0.033864088356494904,3.0203142166137695,1019.73,
2021.02.11 11:46:06,48.0,16.0,-4.56,-30.42,-24.0,0.21069619,0.63208854,9.284998,0.09675006,-0.027873171,-0.010641272,-0.06795401126146317,-0.022688215598464012,3.002686023712158,1019.73,
2021.02.11 11:46:06,48.0,16.0,-4.62,-30.48,-24.0,-0.03351985,0.72546524,9.682447,-0.057798848,-0.016877595,-0.017971655,-0.07478562742471695,0.003461905289441347,2.9786245822906494,1019.73315,
2021.02.11 11:46:06,48.0,16.0,-4.68,-30.359999,-24.06,0.043096945,0.88588166,9.680053,-0.044970676,0.0020592269,-0.011863003,-0.09126109629869461,-0.004452110268175602,2.9799280166625977,1019.73413,
2021.02.11 11:46:06,48.0,16.0,-4.3199997,-30.359999,-24.06,0.08858817,0.81644773,9.864412,-0.021146933,0.028937297,0.003408628,-0.08257545530796051,-0.008980341255664825,2.9974310398101807,1019.73413,
2021.02.11 11:46:06,48.0,16.0,-4.3199997,-30.24,-24.359999,0.105348095,0.83081335,9.665688,0.024667962,0.01977432,0.016847664,-0.08573909848928452,-0.010898751206696033,2.9979941844940186,1019.7368,
2021.02.11 11:46:06,48.0,16.0,-4.5,-30.24,-24.359999,0.11253092,0.49082634,9.347249,-0.01748174,0.055204503,0.0040194932,-0.0524582713842392,-0.012038351967930794,2.9971470832824707,1019.7368,
2021.02.11 11:46:06,48.0,16.0,-4.8599997,-30.42,-24.119999,0.18914771,0.7589851,10.149331,-0.060853172,-0.00221683,-8.6742867E-4,-0.07462994009256363,-0.018634313717484474,2.9882442951202393,1019.7412,
2021.02.11 11:46:06,48.0,16.0,-5.1,-30.3,-24.06,0.18675344,0.7853221,9.514848,0.075369775,-0.024818843,-0.006976081,-0.08233404159545898,-0.019625060260295868,2.979029417037964,1019.7395,
2021.02.11 11:46:06,48.0,16.0,-5.22,-30.24,-24.06,0.15323359,0.84996754,9.3831625,0.03993959,-0.038257882,-0.008197811,-0.09032580256462097,-0.016329247504472733,2.970531940460205,1019.7395,
2021.02.11 11:46:06,48.0,16.0,-4.62,-30.119999,-24.3,0.0047885496,0.86912173,9.862018,-0.044359814,-0.028484035,-0.026523769,-0.08790107816457748,-4.855547158513218E-4,2.9777305126190186,1019.73584,
2021.02.11 11:46:07,48.0,16.0,-4.74,-30.0,-24.119999,0.16520496,0.82602483,9.620196,0.0014550809,-0.031538364,-0.006976081,-0.08564096689224243,-0.017171034589409828,2.9873595237731934,1019.73584,
2021.02.11 11:46:07,48.0,16.0,-4.92,-29.76,-24.18,0.19393626,0.83081335,9.531608,-0.0046535716,-0.017488461,-0.018582521,-0.08692639321088791,-0.0203438401222229,2.982205390930176,1019.7439,
2021.02.11 11:46:07,48.0,16.0,-4.5,-29.58,-24.0,0.13886794,0.8547561,9.73991,-0.032142505,-0.011990674,-0.03141069,-0.08752500265836716,-0.014256654307246208,2.9908134937286377,1019.7444,
2021.02.11 11:46:07,48.0,16.0,-4.44,-29.64,-24.18,0.047885496,0.86912173,9.747093,-0.008318763,-0.0071037523,-0.0417954,-0.08893100172281265,-0.004912757780402899,2.98502516746521,1019.7444,
2021.02.11 11:46:07,48.0,16.0,-3.6599998,-29.46,-24.6,0.098165266,0.80687064,9.550762,0.009396329,0.0014483616,-0.028356366,-0.08427776396274567,-0.010277903638780117,3.0173540115356445,1019.75635,
2021.02.11 11:46:07,48.0,16.0,-3.72,-29.64,-24.24,0.047885496,0.8092649,9.675264,-0.024201259,0.006946149,-0.025302038,-0.0834474042057991,-0.0049492293037474155,3.0114941596984863,1019.75635,
2021.02.11 11:46:07,48.0,16.0,-4.2,-29.699999,-24.42,0.038308397,0.845179,9.804555,-0.0064861667,-3.8423424E-4,-0.013695599,-0.08598946779966354,-0.003907184116542339,2.9933853149414062,1019.749,
2021.02.11 11:46:07,48.0,16.0,-4.68,-29.76,-24.539999,0.10774237,0.8044763,9.629773,0.017337577,-0.0034385605,-0.014917329,-0.0833417996764183,-0.011187996715307236,2.98337459564209,1019.74585,
2021.02.11 11:46:07,48.0,16.0,-5.3399997,-30.119999,-24.3,0.11492519,0.7853221,9.629773,0.006952868,-0.0052711563,-0.011252138,-0.08136563748121262,-0.011933794245123863,2.9634175300598145,1019.74585,
2021.02.11 11:46:07,48.0,16.0,-5.2799997,-30.06,-24.96,0.08140534,0.81644773,9.725544,0.003898542,-0.0064928867,-0.0100304065,-0.08374951034784317,-0.008370066061615944,2.961569309234619,1019.7407,
2021.02.11 11:46:07,48.0,16.0,-4.92,-30.359999,-25.019999,0.117319465,0.7685622,9.608225,0.017948443,-0.019321056,-8.6742867E-4,-0.07981415838003159,-0.01220970880240202,2.9797675609588623,1019.7407,
2021.02.11 11:46:07,48.0,16.0,-4.8599997,-30.359999,-25.14,0.16041641,0.84039044,9.656111,0.011228925,-0.022375382,-8.6742867E-4,-0.08680131286382675,-0.016611414030194283,2.984598398208618,1019.7363,
2021.02.11 11:46:07,48.0,16.0,-4.62,-29.939999,-25.38,0.16759923,0.80687064,9.648928,0.01183979,-0.016877595,0.0015760323,-0.08341620117425919,-0.017367979511618614,2.9919514656066895,1019.74146,
2021.02.11 11:46:07,48.0,16.0,-4.68,-29.939999,-25.199999,0.15083931,0.79250497,9.644139,0.010007194,-0.017488461,0.0015760323,-0.08198057115077972,-0.01563923992216587,2.98848557472229,1019.74146,
2021.02.11 11:46:07,48.0,16.0,-4.7999997,-30.0,-24.96,0.18675344,0.80208206,9.687236,-9.883799E-4,-0.008325483,9.651671E-4,-0.0825941190123558,-0.019275911152362823,2.9876701831817627,1019.7373,
2021.02.11 11:46:07,48.0,16.0,-4.74,-29.939999,-24.24,0.21309046,0.8236305,9.62259,0.008174599,-0.01382327,0.0015760323,-0.08536449074745178,-0.022141193971037865,2.99133563041687,1019.7373,
2021.02.11 11:46:08,48.0,16.0,-5.22,-29.939999,-23.88,0.18914771,0.7877164,9.6585045,-0.01259482,0.0026700918,-0.008808677,-0.08136112987995148,-0.019581038504838943,2.972862720489502,1019.7444,
2021.02.11 11:46:08,48.0,16.0,-5.16,-30.119999,-24.0,0.2466103,0.8356019,9.73991,-0.0064861667,-0.0071037523,-0.0100304065,-0.08555470407009125,-0.02531415782868862,2.9801788330078125,1019.74756,
2021.02.11 11:46:08,48.0,16.0,-5.3399997,-29.88,-23.88,0.20590763,0.80208206,9.668081,-0.014427415,-0.00221683,-0.013084734,-0.08275364339351654,-0.021294454112648964,2.969526767730713,1019.74756,
2021.02.11 11:46:08,48.0,16.0,-4.98,-30.0,-24.539999,0.16759923,0.7829279,9.60583,-0.008929628,2.26631E-4,-0.009419543,-0.08131339401006699,-0.017445886507630348,2.979898452758789,1019.74634,
2021.02.11 11:46:08,48.0,16.0,-4.68,-30.119999,-24.66,0.20351335,0.79250497,9.742304,-0.0064861667,-0.013212404,-8.6742867E-4,-0.08115042746067047,-0.02088661678135395,2.994036912918091,1019.74634,
2021.02.11 11:46:08,48.0,16.0,-4.62,-30.06,-24.24,0.16520496,0.77574503,9.507666,0.016115846,-0.009547212,-2.565634E-4,-0.08139897137880325,-0.017374224960803986,2.9926791191101074,1019.7405,
2021.02.11 11:46:08,48.0,16.0,-4.68,-30.06,-24.539999,0.22266756,0.7709565,9.797373,-0.01748174,-0.007714617,0.011349876,-0.07850811630487442,-0.022723359987139702,2.995635509490967,1019.73926,
2021.02.11 11:46:08,48.0,16.0,-5.16,-30.119999,-24.119999,0.21069619,0.80687064,9.584282,0.011228925,-0.0058820215,0.00829555,-0.0839686244726181,-0.02197997458279133,2.977661609649658,1019.73926,
2021.02.11 11:46:08,48.0,16.0,-5.16,-30.24,-24.0,0.22266756,0.80208206,9.620196,0.0014550809,-0.00221683,0.014404203,-0.08316024392843246,-0.023141713812947273,2.9794023036956787,1019.74146,
2021.02.11 11:46:08,48.0,16.0,-5.22,-30.0,-24.48,0.2657645,0.82123625,9.6585045,0.003898542,2.26631E-4,0.010128146,-0.08479131013154984,-0.0275091715157032,2.9795918464660645,1019.74146,
2021.02.11 11:46:08,48.0,16.0,-4.92,-30.06,-24.359999,0.21548474,0.8092649,9.608225,0.01183979,0.005724418,-2.565634E-4,-0.08400692045688629,-0.022423353046178818,2.9861409664154053,1019.74194,
2021.02.11 11:46:08,48.0,16.0,-5.04,-29.82,-24.359999,0.21787901,0.80208206,9.651321,0.008785464,0.008778744,-0.0027000243,-0.08289437741041183,-0.02257121168076992,2.980886936187744,1019.73,
2021.02.11 11:46:08,48.0,16.0,-5.16,-29.76,-24.48,0.26097596,0.8044763,9.6585045,0.012450655,0.006946149,-0.008808677,-0.08307001739740372,-0.027013754472136497,2.9801688194274902,1019.73,
2021.02.11 11:46:08,48.0,16.0,-5.3399997,-29.82,-24.3,0.2370332,0.83081335,9.58907,0.017948443,0.0026700918,-0.011252138,-0.0863996148109436,-0.024714067578315735,2.9715940952301025,1019.7278,
2021.02.11 11:46:08,48.0,16.0,-5.46,-29.76,-24.3,0.22027329,0.8571504,9.682447,0.009396329,0.005724418,-0.0100304065,-0.0882733166217804,-0.022745829075574875,2.9649994373321533,1019.7278,
2021.02.11 11:46:08,48.0,16.0,-5.4,-30.0,-24.06,0.2466103,0.8140534,9.682447,0.014283251,0.0032809572,-0.0051434855,-0.08385083824396133,-0.02546432428061962,2.971529960632324,1019.73584,
2021.02.11 11:46:08,48.0,16.0,-5.4,-29.88,-24.0,0.19393626,0.8571504,9.613013,0.014894117,0.006946149,-0.015528195,-0.08891244977712631,-0.02017161063849926,2.9655020236968994,1019.74365,
2021.02.11 11:46:09,48.0,16.0,-5.04,-29.939999,-23.76,0.19393626,0.8284191,9.744699,0.0063420027,0.011222205,-0.010641272,-0.08479166030883789,-0.019899092614650726,2.978863000869751,1019.74365,
2021.02.11 11:46:09,48.0,16.0,-4.98,-29.76,-23.519999,0.21309046,0.818842,9.62259,0.018559307,0.006335283,-0.006365216,-0.08487057685852051,-0.022141195833683014,2.9817380905151367,1019.75024,
2021.02.11 11:46:09,48.0,16.0,-4.68,-29.76,-23.699999,0.17717634,0.85236186,9.653716,0.013061521,0.005724418,-0.0027000243,-0.08805052936077118,-0.01835111528635025,2.9887542724609375,1019.75024,
2021.02.11 11:46:09,48.0,16.0,-4.44,-30.0,-24.119999,0.23463893,0.82123625,9.668081,0.014283251,8.374963E-4,0.0021868974,-0.08471480011940002,-0.024264678359031677,3.004065752029419,1019.75073,
2021.02.11 11:46:09,48.0,16.0,-4.5,-29.76,-24.6,0.2370332,0.84996754,9.620196,-9.883799E-4,0.0051135533,-0.0039217547,-0.088096983730793,-0.024634139612317085,3.000828266143799,1019.75586,
2021.02.11 11:46:09,48.0,16.0,-4.3199997,-29.939999,-24.6,0.16281068,0.81644773,9.672871,-0.0046535716,0.0142765315,-0.0039217547,-0.08419448137283325,-0.016830092296004295,3.0018229484558105,1019.75586,
2021.02.11 11:46:09,48.0,16.0,-4.5,-29.88,-24.66,0.22745611,0.8140534,9.512454,-0.021757798,0.0020592269,0.0070738196,-0.08534538000822067,-0.023906845599412918,3.0011942386627197,1019.75635,
2021.02.11 11:46:09,48.0,16.0,-4.68,-30.3,-24.72,0.2083019,0.845179,9.761458,-0.028477317,0.005724418,0.0015760323,-0.08634831756353378,-0.021335981786251068,2.9946391582489014,1019.75635,
2021.02.11 11:46:09,48.0,16.0,-5.04,-30.599998,-24.779999,0.21309046,0.8356019,9.627379,0.008785464,0.0020592269,0.0015760323,-0.08655627071857452,-0.02213018387556076,2.9844188690185547,1019.76,
2021.02.11 11:46:09,48.0,16.0,-5.1,-30.48,-24.779999,0.17717634,0.8356019,9.732727,-0.0070970324,0.005724418,-0.0014782939,-0.08563072979450226,-0.018202172592282295,2.9784693717956543,1019.75195,
2021.02.11 11:46:09,48.0,16.0,-4.98,-30.599998,-24.6,0.19393626,0.8475733,9.687236,0.010007194,0.005724418,-0.00453262,-0.08725418150424957,-0.020017100498080254,2.9845361709594727,1019.75195,
2021.02.11 11:46:09,48.0,16.0,-5.22,-30.42,-24.359999,0.1699935,0.88588166,9.632168,0.009396329,0.010000475,-0.0033108897,-0.09169895201921463,-0.01764668896794319,2.972501039505005,1019.7495,
2021.02.11 11:46:09,48.0,16.0,-4.7999997,-30.3,-24.0,0.20111908,0.8739103,9.711179,0.018559307,2.26631E-4,-0.0057543507,-0.08972924947738647,-0.02070709690451622,2.9892427921295166,1019.7495,
2021.02.11 11:46:09,48.0,16.0,-4.92,-30.599998,-23.939999,0.12689656,0.85954463,9.555551,0.018559307,-0.00221683,-0.008197811,-0.08970308303833008,-0.013279099017381668,2.9805493354797363,1019.75977,
2021.02.11 11:46:09,48.0,16.0,-4.74,-30.42,-24.24,0.11013664,0.8667275,9.660899,-0.011373089,0.004502688,9.651671E-4,-0.08946967124938965,-0.011399754323065281,2.984222888946533,1019.7551,
2021.02.11 11:46:09,48.0,16.0,-4.3199997,-30.119999,-24.06,0.20351335,0.845179,9.641745,-0.005875302,0.0020592269,0.007684685,-0.08741544932126999,-0.021104389801621437,3.005812644958496,1019.7551,
2021.02.11 11:46:09,48.0,16.0,-4.74,-30.42,-24.6,0.17717634,0.86193895,9.651321,-0.01381655,0.008778744,0.0070738196,-0.08905664086341858,-0.01835566572844982,2.990196466445923,1019.751,
2021.02.11 11:46:10,48.0,16.0,-4.62,-30.119999,-24.6,0.21548474,0.8571504,9.677659,-0.013205685,0.010000475,0.0052412236,-0.08831772208213806,-0.02226252667605877,2.9963037967681885,1019.751,
2021.02.11 11:46:10,48.0,16.0,-4.98,-30.48,-24.48,0.19393626,0.8379962,9.584282,-0.01381655,0.010000475,0.004630359,-0.08719488233327866,-0.02023206278681755,2.9840469360351562,1019.76245,
2021.02.11 11:46:10,48.0,16.0,-4.92,-30.539999,-24.3,0.1987248,0.8667275,9.785401,-0.019925203,0.004502688,0.0040194932,-0.08832485973834991,-0.02030550129711628,2.986300468444824,1019.75854,
2021.02.11 11:46:10,48.0,16.0,-4.68,-30.42,-23.76,0.20111908,0.7972935,9.545974,-0.0077078976,0.0038918226,0.0015760323,-0.08330963551998138,-0.021065354347229004,2.9951529502868652,1019.75854,
2021.02.11 11:46:10,48.0,16.0,-4.8599997,-30.779999,-24.18,0.18675344,0.82123625,9.797373,-0.023590395,0.009389609,-0.00453262,-0.08361148834228516,-0.019059274345636368,2.989241600036621,1019.76294,
2021.02.11 11:46:10,48.0,16.0,-4.5,-30.42,-24.3,0.23224466,0.82602483,9.617802,0.019170174,-0.0040494255,-0.012473868,-0.08564990758895874,-0.024142682552337646,3.00384783744812,1019.76294,
2021.02.11 11:46:10,48.0,16.0,-4.5,-30.359999,-24.3,0.16520496,0.76616794,9.613013,0.0051202727,0.0051135533,-0.01980425,-0.0795213058590889,-0.017183862626552582,2.9984867572784424,1019.7649,
2021.02.11 11:46:10,48.0,16.0,-4.62,-30.24,-24.6,0.16041641,0.84996754,9.708784,-9.883799E-4,0.004502688,-0.023469443,-0.0873117446899414,-0.016521308571100235,2.992109537124634,1019.7612,
2021.02.11 11:46:10,48.0,16.0,-4.62,-30.179998,-24.18,0.16041641,0.7805336,9.560339,0.005731138,0.0020592269,-0.01980425,-0.08145079016685486,-0.01677779108285904,2.9927830696105957,1019.7612,
2021.02.11 11:46:10,48.0,16.0,-4.5,-29.939999,-24.18,0.12929083,0.7972935,9.70639,-0.018092608,0.004502688,-0.016749926,-0.0819498598575592,-0.013319388031959534,2.992729902267456,1019.7556,
2021.02.11 11:46:10,48.0,16.0,-4.92,-30.3,-24.3,0.19393626,0.7853221,9.670476,-0.010762224,0.0038918226,-0.013084734,-0.08101417869329453,-0.020051781088113785,2.985856294631958,1019.7556,
2021.02.11 11:46:10,48.0,16.0,-4.7999997,-30.179998,-24.119999,0.14844504,0.75180227,9.60583,-0.008929628,-0.0071037523,-0.008808677,-0.07809669524431229,-0.015452410094439983,2.9858906269073486,1019.7446,
2021.02.11 11:46:10,48.0,16.0,-4.74,-30.06,-24.3,0.15083931,0.81165916,9.682447,-0.011373089,-0.0034385605,-0.008197811,-0.0836222693324089,-0.015577374957501888,2.9866480827331543,1019.7446,
2021.02.11 11:46:10,48.0,16.0,-4.98,-30.119999,-24.0,0.14605077,0.76137936,9.646533,-0.0022101104,0.004502688,0.0015760323,-0.07875550538301468,-0.015139076858758926,2.97895884513855,1019.7446,
2021.02.11 11:46:10,48.0,16.0,-4.44,-29.519999,-23.46,0.083799616,0.74222517,9.684841,-0.015038281,0.009389609,0.003408628,-0.07648546248674393,-0.008652442134916782,2.9894800186157227,1019.7449,
2021.02.11 11:46:10,48.0,16.0,-4.44,-29.64,-23.46,0.19154198,0.7805336,9.677659,-0.018092608,-0.00221683,0.015625933,-0.08046325296163559,-0.019789597019553185,2.9988224506378174,1019.7449,
2021.02.11 11:46:11,48.0,16.0,-4.7999997,-29.4,-23.16,0.18914771,0.749408,9.644139,-0.011983954,-0.002827695,0.01868026,-0.07753536850214005,-0.019610194489359856,2.9849510192871094,1019.7407,
2021.02.11 11:46:11,48.0,16.0,-4.74,-29.64,-23.519999,0.18196489,0.74222517,9.641745,-0.016260011,0.006335283,0.010128146,-0.07681523263454437,-0.018870370462536812,2.987975597381592,1019.73315,
2021.02.11 11:46:11,48.0,16.0,-4.8599997,-29.76,-24.42,0.22027329,0.75180227,9.601042,-0.022979528,0.008778744,0.0027977629,-0.07812431454658508,-0.022938620299100876,2.9879374504089355,1019.73315,
2021.02.11 11:46:11,48.0,16.0,-4.62,-29.939999,-24.42,0.16041641,0.7326481,9.543579,-0.0046535716,0.007557014,0.0052412236,-0.07660762965679169,-0.016807248815894127,2.9922728538513184,1019.7444,
2021.02.11 11:46:11,48.0,16.0,-4.38,-29.939999,-24.72,0.19393626,0.75659084,9.763853,-0.008318763,-0.00221683,-2.565634E-4,-0.07731923460960388,-0.01986006461083889,3.0032918453216553,1019.7444,
2021.02.11 11:46:11,48.0,16.0,-4.3199997,-29.76,-24.66,0.15562786,0.75659084,9.60583,0.01183979,-0.00221683,-0.0027000243,-0.07859116792678833,-0.016199978068470955,3.001145601272583,1019.74146,
2021.02.11 11:46:11,48.0,16.0,-4.2599998,-30.06,-24.359999,0.14605077,0.723071,9.687236,0.003898542,-0.0046602907,9.651671E-4,-0.07449503242969513,-0.015075476840138435,3.004237651824951,1019.7407,
2021.02.11 11:46:11,48.0,16.0,-4.56,-29.88,-24.3,0.16759923,0.7350424,9.60583,0.01183979,-0.0040494255,-0.0014782939,-0.07636003941297531,-0.017445888370275497,2.9946155548095703,1019.7407,
2021.02.11 11:46:11,48.0,16.0,-4.74,-30.24,-24.42,0.14365649,0.7302538,9.660899,2.3335053E-4,0.0038918226,-0.0020891593,-0.07543681561946869,-0.014868793077766895,2.9882102012634277,1019.7378,
2021.02.11 11:46:11,48.0,16.0,-4.7999997,-30.3,-24.0,0.15802214,0.7685622,9.644139,0.003898542,0.0026700918,-0.0033108897,-0.07951346039772034,-0.016383837908506393,2.9870948791503906,1019.7378,
2021.02.11 11:46:11,48.0,16.0,-5.1,-30.0,-24.24,0.17238778,0.723071,9.663293,-3.7751472E-4,0.012443936,0.005852089,-0.0746755376458168,-0.01783755235373974,2.9770238399505615,1019.7405,
2021.02.11 11:46:11,48.0,16.0,-4.98,-29.82,-24.48,0.24182175,0.7302538,9.541185,-0.010762224,0.013054801,0.005852089,-0.07636365294456482,-0.02533961832523346,2.986400604248047,1019.74316,
2021.02.11 11:46:11,48.0,16.0,-4.62,-29.519999,-24.42,0.19633053,0.72785956,9.675264,-0.009540493,0.014887397,-0.011863003,-0.07507207989692688,-0.02028922364115715,2.9932761192321777,1019.74316,
2021.02.11 11:46:11,48.0,16.0,-4.68,-29.58,-24.84,0.17478207,0.7110996,9.687236,-0.011373089,0.011222205,-0.011863003,-0.0732625275850296,-0.018040554597973824,2.989889144897461,1019.7495,
2021.02.11 11:46:11,48.0,16.0,-4.62,-29.519999,-24.48,0.16281068,0.68715686,9.6585045,-0.0064861667,0.019163454,-0.020415118,-0.07101553678512573,-0.01685512065887451,2.990893840789795,1019.7495,
2021.02.11 11:46:11,48.0,16.0,-4.8599997,-29.699999,-24.42,0.16759923,0.68715686,9.663293,-0.008318763,0.01977432,-0.024080308,-0.07097988575696945,-0.01734216697514057,2.9838545322418213,1019.7505,
2021.02.11 11:46:11,48.0,16.0,-5.04,-29.46,-24.539999,0.14844504,0.6943397,9.665688,-0.032142505,0.005724418,-0.020415118,-0.07170391082763672,-0.015356731601059437,2.974363088607788,1019.7468,
2021.02.11 11:46:12,48.0,16.0,-4.74,-29.4,-24.24,0.05506832,0.64166564,9.668081,-0.02664472,0.016109128,-0.022247713,-0.06627123057842255,-0.0056958282366395,2.977130174636841,1019.7468,
2021.02.11 11:46:12,48.0,16.0,-4.56,-29.88,-24.6,0.10774237,0.63208854,9.744699,0.016726712,0.0020592269,-0.024691174,-0.0647701695561409,-0.011056060902774334,2.990816116333008,1019.74365,
2021.02.11 11:46:12,48.0,16.0,-4.3199997,-29.76,-24.779999,0.0670397,0.6488485,9.557945,0.019781038,0.0038918226,-0.020415118,-0.06778011471033096,-0.007013913244009018,2.9946448802948,1019.74365,
2021.02.11 11:46:12,48.0,16.0,-3.78,-29.699999,-24.6,0.1340794,0.6608198,9.75667,0.008174599,-9.950994E-4,-0.014306464,-0.0676204115152359,-0.013741467148065567,3.019146680831909,1019.73584,
2021.02.11 11:46:12,48.0,16.0,-4.14,-29.82,-24.84,0.14126222,0.6608198,9.620196,0.014894117,-3.8423424E-4,-0.012473868,-0.06857578456401825,-0.014682866632938385,3.007791757583618,1019.73267,
2021.02.11 11:46:12,48.0,16.0,-4.5,-29.34,-24.48,0.11253092,0.6751855,9.768641,-0.005264437,0.007557014,-0.0100304065,-0.06900332868099213,-0.011519098654389381,2.989835262298584,1019.73267,
2021.02.11 11:46:12,48.0,16.0,-4.56,-29.64,-23.88,0.16520496,0.7015225,9.613013,0.011228925,-0.0016059647,-0.00453262,-0.0728364884853363,-0.017183862626552582,2.993536949157715,1019.7366,
2021.02.11 11:46:12,48.0,16.0,-4.7999997,-30.179998,-23.82,0.11253092,0.68715686,9.715967,0.0063420027,0.0020592269,-0.008197811,-0.07060220837593079,-0.0115815419703722,2.98374342918396,1019.7366,
2021.02.11 11:46:12,48.0,16.0,-4.56,-30.119999,-24.119999,0.102953814,0.69194543,9.627379,0.011228925,0.0014483616,-0.00453262,-0.07174520939588547,-0.010693448595702648,2.990792751312256,1019.74,
2021.02.11 11:46:12,48.0,16.0,-3.84,-30.179998,-24.24,0.19393626,0.69194543,9.656111,-0.005264437,0.0032809572,0.0027977629,-0.07152215391397476,-0.020081602036952972,3.02394962310791,1019.74316,
2021.02.11 11:46:12,48.0,16.0,-3.9599998,-29.699999,-24.779999,0.12689656,0.71828246,9.632168,-0.010762224,0.016719991,3.5430185E-4,-0.07442700862884521,-0.013173485174775124,3.011505603790283,1019.74316,
2021.02.11 11:46:12,48.0,16.0,-4.02,-29.519999,-24.84,0.17238778,0.7326481,9.727939,-0.0070970324,0.010000475,9.651671E-4,-0.07516013830900192,-0.01771903969347477,3.0124738216400146,1019.7434,
2021.02.11 11:46:12,48.0,16.0,-4.08,-29.64,-24.96,0.090982445,0.7110996,9.608225,-0.0015992452,0.020385183,0.0021868974,-0.07387148588895798,-0.009468941949307919,3.003789186477661,1019.7434,
2021.02.11 11:46:12,48.0,16.0,-4.3199997,-29.58,-25.199999,0.23224466,0.7853221,9.6585045,-0.024201259,0.021606915,0.018069394,-0.08110705018043518,-0.024040980264544487,3.0070643424987793,1019.7422,
2021.02.11 11:46:12,48.0,16.0,-3.8999999,-29.519999,-25.14,0.21069619,0.72546524,9.744699,-0.027866451,0.028937297,0.014404203,-0.07429278641939163,-0.021618254482746124,3.020460605621338,1019.7427,
