Time,X-cord,Y-cord,Mag_x,Mag_y,Mag_z,Acc_x,Acc_y,Acc_z,Gyro_x,Gyro_y,Gyro_z,Orn_x,Orn_y,Orn_z,Pressure,
2021.02.08 17:01:38,50.0,17.0,-5.4,14.46,-39.78,-0.08619126,0.89782566,8.453926,0.06352998,-0.031154128,-0.0030543262,-0.10580015927553177,0.010195058770477772,0.3029288947582245,1020.18384,
2021.02.08 17:01:38,50.0,17.0,-5.1,14.5199995,-39.54,-0.19871874,0.91937345,9.44752,0.045814894,0.028099801,0.0036651916,-0.09698696434497833,0.021030856296420097,0.3138763904571533,1020.18384,
2021.02.08 17:01:38,50.0,17.0,-4.68,14.4,-39.78,0.047884032,0.91937345,9.890448,-0.16310102,-0.09590584,0.07391469,-0.09268826246261597,-0.004841404501348734,0.2440294623374939,1020.20605,
2021.02.08 17:01:38,50.0,17.0,-4.62,14.5199995,-39.54,0.22266077,0.7541735,9.80665,-0.11911872,-0.026267206,0.115453534,-0.07673352211713791,-0.02270117774605751,0.20934262871742249,1020.20605,
2021.02.08 17:01:38,50.0,17.0,-4.5,14.46,-39.48,0.1436521,0.7062895,9.610326,-0.053145275,-0.027488936,0.13194689,-0.07335273176431656,-0.014946568757295609,0.2220086008310318,1020.20605,
2021.02.08 17:01:39,50.0,17.0,-4.68,14.82,-39.12,0.035913024,0.7637503,9.519346,-0.06536258,0.0421497,0.10629055,-0.08005932718515396,-0.003772617783397436,0.24796031415462494,1020.20605,
2021.02.08 17:01:39,50.0,17.0,-4.56,15.0,-39.239998,0.059855044,0.6775591,9.210494,-0.12889257,0.076358154,0.07086037,-0.07342999428510666,-0.006498478818684816,0.23677347600460052,1020.20483,
2021.02.08 17:01:39,50.0,17.0,-4.38,14.94,-39.36,0.51954174,0.7757214,9.349358,-0.020158553,-0.005497787,0.092240654,-0.08265400677919388,-0.055512685328722,0.1200241670012474,1020.20483,
2021.02.08 17:01:39,50.0,17.0,-4.3199997,15.12,-39.18,0.50038815,0.5410896,10.053253,-0.086132,-0.028710667,0.07513642,-0.05370410159230232,-0.04973271116614342,0.13667312264442444,1020.20483,
2021.02.08 17:01:39,50.0,17.0,-3.84,14.94,-39.719997,0.3878607,0.49559975,10.0508585,-0.1459968,0.005497787,0.0067195175,-0.04923270270228386,-0.038570668548345566,0.1357220858335495,1020.20483,
2021.02.08 17:01:39,50.0,17.0,-4.08,15.24,-39.42,0.08140286,0.61770403,9.411607,-0.06658431,-0.005497787,-0.018936822,-0.06553571671247482,-0.008648984134197235,0.20714211463928223,1020.2053,
2021.02.08 17:01:39,50.0,17.0,-4.2,15.599999,-38.94,0.12449849,0.79487497,9.624691,-0.012217305,-0.044593163,-0.03848451,-0.08239320665597916,-0.012934600934386253,0.1945631057024002,1020.2053,
2021.02.08 17:01:39,50.0,17.0,-4.44,15.9,-38.82,-0.05267244,0.7110779,9.983821,-0.027488936,-0.039095376,-0.04520403,-0.07110197097063065,0.005275730974972248,0.24451079964637756,1020.2053,
2021.02.08 17:01:39,50.0,17.0,-4.62,16.02,-38.7,-0.11492168,0.51235914,9.890448,-0.030543262,0.019547688,-0.044593163,-0.051753681153059006,0.011618939228355885,0.27455371618270874,1020.2053,
2021.02.08 17:01:39,50.0,17.0,-4.62,15.839999,-38.399998,0.18674773,0.5554548,9.272743,0.036651913,0.008552114,-0.007941248,-0.05981828644871712,-0.020136704668402672,0.20922572910785675,1020.2151,
2021.02.08 17:01:39,50.0,17.0,-4.68,15.599999,-38.34,0.23463176,0.58897364,9.61272,0.069027774,0.02565634,0.025045475,-0.061175569891929626,-0.02440362237393856,0.20590335130691528,1020.2151,
2021.02.08 17:01:39,50.0,17.0,-4.5,15.78,-38.7,0.33039984,0.6871359,9.809045,-0.037873644,0.015271631,-0.0067195175,-0.06989748775959015,-0.03367045149207115,0.17142124474048615,1020.2151,
2021.02.08 17:01:39,50.0,17.0,-4.38,15.78,-38.76,0.08379706,0.6751649,9.615114,-0.028710667,0.013439035,-0.01160644,-0.07010139524936676,-0.008714918978512287,0.21557499468326569,1020.2151,
2021.02.08 17:01:39,50.0,17.0,-4.56,16.26,-39.12,-0.01436521,0.6344634,9.746795,-0.02565634,0.053145275,-0.045814894,-0.06500279903411865,0.0014738383470103145,0.24126730859279633,1020.22144,
2021.02.08 17:01:39,50.0,17.0,-4.56,16.26,-39.0,0.035913024,0.6584055,9.677363,-0.05009095,0.028099801,-0.040927973,-0.06793047487735748,-0.0037110168486833572,0.2298366129398346,1020.22144,
2021.02.08 17:01:39,50.0,17.0,-4.68,15.78,-38.76,-0.055066638,0.58418524,9.935937,-0.02321288,0.047036625,-0.0421497,-0.05872667580842972,0.005542112048715353,0.265142023563385,1020.22144,
2021.02.08 17:01:39,50.0,17.0,-4.74,15.719999,-38.28,-0.02873042,0.61291564,9.44752,-0.027488936,0.029932396,-0.04642576,-0.06478473544120789,0.0030410445760935545,0.2612485885620117,1020.22144,
2021.02.08 17:01:39,50.0,17.0,-4.56,15.719999,-38.219997,-0.007182605,0.6464345,9.765948,0.05131268,0.004886922,-0.028099801,-0.06609626114368439,7.354742847383022E-4,0.24682068824768066,1020.2241,
2021.02.08 17:01:39,50.0,17.0,-4.44,15.78,-38.52,-0.04309563,0.62967503,9.576807,0.0,-0.016493361,-0.027488936,-0.06565482914447784,0.0044999695383012295,0.24731199443340302,1020.2241,
2021.02.08 17:01:39,50.0,17.0,-4.3199997,15.9,-38.52,-0.0047884034,0.6751649,9.753978,0.01160644,0.004886922,-0.03970624,-0.06910920143127441,4.909179406240582E-4,0.23010937869548798,1020.2241,
2021.02.08 17:01:39,50.0,17.0,-4.3199997,16.38,-39.0,-0.05267244,0.6344634,9.605537,-0.03726278,0.016493361,-0.035430185,-0.06595504283905029,0.005483494605869055,0.2352764904499054,1020.2241,
2021.02.08 17:01:39,50.0,17.0,-4.44,16.38,-39.18,-0.05267244,0.6584055,9.65821,0.0067195175,-0.002443461,-0.044593163,-0.06806423515081406,0.005453589837998152,0.24013620615005493,1020.2263,
2021.02.08 17:01:39,50.0,17.0,-4.7999997,16.38,-39.12,0.007182605,0.7062895,9.775525,-0.021991149,-0.018936822,-0.028099801,-0.07212545722723007,-7.347537903115153E-4,0.24409718811511993,1020.2263,
2021.02.08 17:01:39,50.0,17.0,-4.7999997,16.02,-39.66,-0.050278235,0.5315128,9.765948,-0.014660766,-0.015271631,-0.026267206,-0.05437074601650238,0.005148275755345821,0.26902174949645996,1020.2263,
2021.02.08 17:01:40,50.0,17.0,-4.8599997,15.839999,-39.54,-0.06703765,0.5410896,9.600749,0.020158553,-0.014049901,-0.018936822,-0.05629817396402359,0.006982430350035429,0.277392715215683,1020.2263,
2021.02.08 17:01:40,50.0,17.0,-4.92,15.36,-39.36,-0.031124622,0.5674258,9.572019,0.014049901,-0.0067195175,-0.0012217305,-0.05921002849936485,0.0032516142819076777,0.2783980965614319,1020.22876,
2021.02.08 17:01:40,50.0,17.0,-4.74,15.179999,-39.3,0.04309563,0.5315128,9.552865,0.0061086523,-0.019547688,0.004886922,-0.0555812232196331,-0.004511247389018536,0.2572835385799408,1020.22876,
2021.02.08 17:01:40,50.0,17.0,-4.68,15.42,-38.7,-0.016759412,0.50757074,9.76116,-0.01038471,0.0018325958,0.01038471,-0.051952145993709564,0.0017169471830129623,0.26618191599845886,1020.22876,
2021.02.08 17:01:40,50.0,17.0,-4.38,14.94,-38.7,0.016759412,0.5722142,9.797073,-0.03481932,6.1086525E-4,0.01282817,-0.05834028497338295,-0.001710653305053711,0.24612469971179962,1020.22876,
2021.02.08 17:01:40,50.0,17.0,-4.08,15.059999,-38.64,0.045489833,0.6368576,9.753978,0.01282817,-0.01038471,0.016493361,-0.06519883871078491,-0.004663687665015459,0.21869511902332306,1020.2202,
2021.02.08 17:01:40,50.0,17.0,-4.2,14.639999,-38.52,-0.055066638,0.5602432,9.751583,-0.010995574,0.0018325958,0.009773844,-0.05738751217722893,0.0056468830443918705,0.25677433609962463,1020.2202,
2021.02.08 17:01:40,50.0,17.0,-4.38,14.639999,-38.46,-0.05746084,0.48123455,9.516952,0.04337143,0.012217305,0.007330383,-0.0505220927298069,0.006037662737071514,0.27159222960472107,1020.2202,
2021.02.08 17:01:40,50.0,17.0,-4.14,14.28,-38.16,-0.06464344,0.48362875,9.662998,0.0421497,-0.007330383,0.021380283,-0.05000670999288559,0.006689691916108131,0.26542747020721436,1020.2202,
2021.02.08 17:01:40,50.0,17.0,-4.14,14.099999,-38.16,-0.02633622,0.5530606,9.710882,0.01038471,0.01282817,0.02321288,-0.05689099803566933,0.002712025074288249,0.25548791885375977,1020.2195,
2021.02.08 17:01:40,50.0,17.0,-4.02,14.7,-38.1,0.06943185,0.58418524,9.3733,0.019547688,0.004886922,0.029932396,-0.062242183834314346,-0.007407272234559059,0.21588796377182007,1020.2195,
2021.02.08 17:01:40,50.0,17.0,-3.6599998,14.639999,-37.98,0.047884032,0.5506664,9.837775,0.012217305,0.01160644,0.018936822,-0.055915672332048416,-0.004867325536906719,0.2046772986650467,1020.2195,
2021.02.08 17:01:40,50.0,17.0,-3.9599998,15.179999,-38.399998,-0.055066638,0.5530606,9.794679,-0.052534413,0.02565634,0.0,-0.056404631584882736,0.005622038152068853,0.236591637134552,1020.2195,
2021.02.08 17:01:40,50.0,17.0,-4.08,15.299999,-38.34,-0.04309563,0.56982,9.636662,-0.009773844,0.014660766,-0.012217305,-0.059061069041490555,0.004472019616514444,0.23785918951034546,1020.2168,
2021.02.08 17:01:40,50.0,17.0,-4.2599998,15.24,-38.34,0.023942016,0.59615624,9.507375,0.017104227,-0.009773844,0.0067195175,-0.06262242794036865,-0.002518251771107316,0.23215942084789276,1020.2168,
2021.02.08 17:01:40,50.0,17.0,-4.08,15.24,-38.52,0.055066638,0.5291186,9.947908,-0.010995574,0.0012217305,0.009162978,-0.053138043731451035,-0.005535442382097244,0.2203196883201599,1020.2168,
2021.02.08 17:01:40,50.0,17.0,-4.2599998,15.42,-38.46,0.074220255,0.557849,9.622296,-0.04642576,6.1086525E-4,0.0018325958,-0.057908084243535995,-0.00771320890635252,0.2212226241827011,1020.2168,
2021.02.08 17:01:40,50.0,17.0,-4.08,15.24,-38.64,-0.11971009,0.6440403,9.689334,0.025045475,0.007941248,-0.004886922,-0.06636631488800049,0.012354203499853611,0.251098096370697,1020.2129,
2021.02.08 17:01:40,50.0,17.0,-3.54,15.599999,-38.94,-0.047884032,0.533907,9.854534,-0.017104227,0.023823744,-0.03176499,-0.054125264286994934,0.004859047941863537,0.20784668624401093,1020.2129,
2021.02.08 17:01:40,50.0,17.0,-3.54,15.719999,-38.94,-0.038307227,0.5482722,9.583989,-0.016493361,-0.004276057,-0.015271631,-0.05714435875415802,0.003996980842202902,0.2034047693014145,1020.2129,
2021.02.08 17:01:40,50.0,17.0,-3.48,15.36,-38.82,-0.02633622,0.5434838,9.876082,0.020158553,0.0012217305,-0.004276057,-0.05497465655207634,0.002666660351678729,0.202324777841568,1020.2129,
2021.02.08 17:01:40,50.0,17.0,-3.3,15.48,-38.579998,0.08379706,0.59376204,9.603143,-0.008552114,-0.012217305,0.0036651916,-0.06174901872873306,-0.008725782856345177,0.1646619588136673,1020.2085,
2021.02.08 17:01:40,50.0,17.0,-3.6,15.179999,-38.52,0.076614454,0.5506664,9.722853,0.03176499,-0.007330383,0.0018325958,-0.05657410994172096,-0.007879669778048992,0.18790976703166962,1020.2085,
2021.02.08 17:01:40,50.0,17.0,-4.2,15.36,-38.7,0.009576807,0.533907,9.775525,-0.0018325958,-0.0030543262,-0.0012217305,-0.05456246808171272,-9.79671604000032E-4,0.23416763544082642,1020.2085,
2021.02.08 17:01:40,50.0,17.0,-4.2599998,15.96,-38.52,0.011971008,0.59376204,9.643845,0.021380283,0.007941248,-0.015882496,-0.06149135157465935,-0.0012413101503625512,0.226265549659729,1020.2085,
2021.02.08 17:01:41,50.0,17.0,-4.44,16.14,-38.7,-0.038307227,0.5410896,9.765948,0.005497787,6.1086525E-4,-0.007941248,-0.055348727852106094,0.003922509960830212,0.24641990661621094,1020.20996,
2021.02.08 17:01:41,50.0,17.0,-4.56,16.02,-38.579998,0.05267244,0.58897364,9.660604,0.017104227,-0.02321288,-6.1086525E-4,-0.06089027598500252,-0.005452238954603672,0.23286791145801544,1020.20996,
2021.02.08 17:01:41,50.0,17.0,-4.08,15.599999,-38.52,0.08619126,0.5554548,9.627085,0.028710667,-0.01282817,-0.009773844,-0.05763089284300804,-0.008952757343649864,0.2068881243467331,1020.20996,
2021.02.08 17:01:41,50.0,17.0,-4.44,15.0,-38.879997,-0.062249243,0.62249243,9.682152,0.009162978,0.01038471,-0.013439035,-0.06420308351516724,0.006429188884794712,0.2623881995677948,1020.20996,
2021.02.08 17:01:41,50.0,17.0,-4.2,14.759999,-38.7,0.031124622,0.5243302,9.634268,0.008552114,0.015882496,-0.015882496,-0.05436953902244568,-0.0032306050416082144,0.23739002645015717,1020.2117,
2021.02.08 17:01:41,50.0,17.0,-4.2599998,14.82,-38.82,0.17956513,0.6440403,9.799467,-0.004886922,-0.02443461,-0.019547688,-0.06561660021543503,-0.018321918323636055,0.20185180008411407,1020.2117,
2021.02.08 17:01:41,50.0,17.0,-4.56,14.94,-39.059998,-0.011971008,0.60333884,9.615114,0.007941248,-0.014660766,-0.014049901,-0.06266678869724274,0.0012450191425159574,0.25953879952430725,1020.2117,
2021.02.08 17:01:41,50.0,17.0,-4.3199997,15.0,-38.579998,0.033518825,0.5746084,9.660604,-0.009162978,-0.01160644,-0.021991149,-0.05940919741988182,-0.0034696271177381277,0.23787112534046173,1020.2117,
2021.02.08 17:01:41,50.0,17.0,-4.74,15.299999,-38.579998,-0.0047884034,0.5506664,9.603143,0.0067195175,-0.01038471,-0.018936822,-0.05727957561612129,4.986287676729262E-4,0.2657746970653534,1020.2129,
2021.02.08 17:01:41,50.0,17.0,-5.22,15.179999,-38.16,-0.031124622,0.6368576,9.792285,-0.019547688,-0.0036651916,-0.01160644,-0.06494487822055817,0.0031784733291715384,0.29427722096443176,1020.2129,
2021.02.08 17:01:41,50.0,17.0,-5.22,15.299999,-37.86,0.035913024,0.6607997,9.627085,-0.018325957,-0.02076942,0.0018325958,-0.06853167712688446,-0.0037303981371223927,0.27708005905151367,1020.2129,
2021.02.08 17:01:41,50.0,17.0,-5.1,15.299999,-38.34,0.019153614,0.58657944,9.8042555,0.01038471,-0.015271631,0.004886922,-0.059757716953754425,-0.0019535995088517666,0.27867239713668823,1020.2129,
2021.02.08 17:01:41,50.0,17.0,-4.8599997,15.24,-38.16,0.090979666,0.58418524,9.8042555,-0.022602014,-0.017104227,0.018936822,-0.0595119446516037,-0.0092793432995677,0.2521990239620209,1020.2134,
2021.02.08 17:01:41,50.0,17.0,-4.2599998,15.42,-38.7,0.079008654,0.63206923,9.481039,0.020158553,-0.0030543262,0.01038471,-0.0665658637881279,-0.008333140052855015,0.2157883197069168,1020.2134,
2021.02.08 17:01:41,50.0,17.0,-4.44,15.599999,-38.52,0.076614454,0.60812724,9.91439,0.010995574,0.004886922,0.005497787,-0.06125926226377487,-0.007727447897195816,0.2270258218050003,1020.2134,
2021.02.08 17:01:41,50.0,17.0,-4.62,15.66,-38.16,0.007182605,0.6368576,9.490616,0.002443461,-0.014660766,0.01038471,-0.06700345128774643,-7.568111177533865E-4,0.2473643571138382,1020.2134,
2021.02.08 17:01:41,50.0,17.0,-4.7999997,16.199999,-38.52,0.035913024,0.61052144,9.813833,0.03604105,0.020158553,0.008552114,-0.06212981417775154,-0.0036594122648239136,0.2459229677915573,1020.209,
2021.02.08 17:01:41,50.0,17.0,-5.22,16.14,-38.82,0.1388637,0.6392518,9.701305,0.009162978,-0.007941248,0.013439035,-0.0657915472984314,-0.014312940649688244,0.2448967844247818,1020.209,
2021.02.08 17:01:41,50.0,17.0,-4.92,16.08,-39.0,0.095768064,0.6344634,9.600749,0.03604105,-0.0036651916,0.010995574,-0.06598556786775589,-0.00997473020106554,0.23869222402572632,1020.209,
2021.02.08 17:01:41,50.0,17.0,-4.7999997,15.9,-39.239998,-0.047884032,0.59136784,9.497798,0.032375857,0.0012217305,0.0036651916,-0.06218262016773224,0.005041550379246473,0.26651468873023987,1020.209,
2021.02.08 17:01:41,50.0,17.0,-4.5,15.0,-39.12,0.045489833,0.557849,9.627085,0.0018325958,0.02565634,6.1086525E-4,-0.05788041651248932,-0.0047251577489078045,0.24526943266391754,1020.2051,
2021.02.08 17:01:41,50.0,17.0,-4.38,15.059999,-38.34,0.17717093,0.6967127,9.706094,-0.015882496,-0.008552114,0.01038471,-0.07164615392684937,-0.018251551315188408,0.2041662186384201,1020.2051,
2021.02.08 17:01:41,50.0,17.0,-4.02,14.94,-38.399998,0.08379706,0.6679823,9.847352,-0.017104227,-0.0061086523,0.01282817,-0.06772749125957489,-0.008509398438036442,0.20790493488311768,1020.2051,
2021.02.08 17:01:41,50.0,17.0,-3.78,14.7,-38.46,0.02873042,0.5770026,9.631873,-0.018936822,0.0067195175,-0.0030543262,-0.059833768755197525,-0.0029828399419784546,0.21266639232635498,1020.2051,
2021.02.08 17:01:41,50.0,17.0,-3.8999999,14.82,-38.579998,-0.019153614,0.5626374,9.569624,0.014049901,0.0061086523,-0.0067195175,-0.05872637405991554,0.002001498593017459,0.22906114161014557,1020.2053,
2021.02.08 17:01:41,50.0,17.0,-3.72,14.82,-38.879997,0.06464344,0.6440403,9.579201,-0.004276057,0.0036651916,0.0036651916,-0.06713064014911652,-0.00674821063876152,0.19619490206241608,1020.2053,
2021.02.08 17:01:42,50.0,17.0,-3.8999999,14.88,-39.12,0.04070143,0.6871359,9.682152,-0.009162978,-0.012217305,0.0012217305,-0.07084991782903671,-0.004203733988106251,0.2089901566505432,1020.2053,
2021.02.08 17:01:42,50.0,17.0,-3.6599998,15.24,-39.059998,0.011971008,0.62488663,9.809045,-0.03481932,0.020158553,0.0036651916,-0.06361912935972214,-0.001220404519699514,0.20140206813812256,1020.2053,
2021.02.08 17:01:42,50.0,17.0,-3.36,15.12,-38.82,0.031124622,0.62249243,9.682152,-0.015271631,0.0018325958,0.002443461,-0.06420408189296722,-0.0032146277371793985,0.18198838829994202,1020.208,
2021.02.08 17:01:42,50.0,17.0,-3.12,14.82,-38.76,0.16998832,0.61770403,9.591172,0.029932396,-0.028099801,0.016493361,-0.06430450081825256,-0.01772155798971653,0.1398337036371231,1020.208,
2021.02.08 17:01:42,50.0,17.0,-3.4199998,14.639999,-38.399998,-0.007182605,0.61291564,9.691729,-0.008552114,6.1086525E-4,0.0061086523,-0.06315697729587555,7.411065744236112E-4,0.1997428834438324,1020.208,
2021.02.08 17:01:42,50.0,17.0,-4.2,14.7,-38.34,-0.04070143,0.6488287,9.646238,-0.017715093,0.01038471,0.0012217305,-0.06716059148311615,0.004219384398311377,0.24781955778598785,1020.208,
2021.02.08 17:01:42,50.0,17.0,-4.44,15.24,-38.52,-0.0047884034,0.60094464,9.883265,-0.01282817,-0.004886922,0.0067195175,-0.0607294924557209,4.844960931222886E-4,0.2487962245941162,1020.2041,
2021.02.08 17:01:42,50.0,17.0,-4.98,15.719999,-38.7,0.090979666,0.641646,9.583989,-0.0018325958,-0.007941248,0.009773844,-0.06684701889753342,-0.009492594748735428,0.24725250899791718,1020.2041,
2021.02.08 17:01:42,50.0,17.0,-5.16,15.839999,-38.52,-0.01436521,0.5674258,9.629479,0.023823744,0.005497787,0.009773844,-0.05885777994990349,0.0014917940134182572,0.28097298741340637,1020.2041,
2021.02.08 17:01:42,50.0,17.0,-5.16,16.02,-38.76,-0.0023942017,0.5530606,9.811439,-0.03359759,0.02687807,0.0061086523,-0.05630936473608017,2.4402147391811013E-4,0.2770954668521881,1020.2041,
2021.02.08 17:01:42,50.0,17.0,-5.58,15.54,-38.82,0.11492168,0.6775591,9.801862,-0.007330383,0.0,0.010995574,-0.06901103258132935,-0.011723937466740608,0.2746867835521698,1020.2041,
2021.02.08 17:01:42,50.0,17.0,-5.22,15.059999,-38.76,0.08379706,0.6536171,9.7563715,0.008552114,6.1086525E-4,0.013439035,-0.06689145416021347,-0.008588746190071106,0.2705498933792114,1020.2041,
2021.02.08 17:01:42,50.0,17.0,-4.98,15.059999,-38.76,0.009576807,0.533907,9.519346,0.005497787,0.013439035,0.0061086523,-0.05602779611945152,-0.0010060358326882124,0.27962493896484375,1020.2041,
2021.02.08 17:01:42,50.0,17.0,-4.68,14.639999,-38.82,0.019153614,0.557849,9.722853,0.020158553,0.0036651916,0.004276057,-0.05731208622455597,-0.0019699556287378073,0.2668464481830597,1020.2041,
2021.02.08 17:01:42,50.0,17.0,-4.7999997,14.88,-38.879997,0.059855044,0.62728083,9.753978,-0.015271631,0.0018325958,0.0012217305,-0.0642206147313118,-0.006136398296803236,0.25713494420051575,1020.2031,
2021.02.08 17:01:42,50.0,17.0,-4.74,15.299999,-38.46,-0.06943185,0.5650316,9.49301,-0.009162978,0.008552114,0.007941248,-0.059449080377817154,0.007313867099583149,0.27857276797294617,1020.2031,
2021.02.08 17:01:42,50.0,17.0,-4.74,15.48,-38.52,0.04309563,0.5410896,9.698911,0.020158553,0.0036651916,0.0067195175,-0.05573038011789322,-0.0044433181174099445,0.25394678115844727,1020.2031,
2021.02.08 17:01:42,50.0,17.0,-4.8599997,15.599999,-38.28,0.031124622,0.60333884,9.868899,-0.018936822,-0.007330383,0.02076942,-0.061059076339006424,-0.0031537984032183886,0.2587168216705322,1020.2031,
2021.02.08 17:01:42,50.0,17.0,-4.62,15.54,-38.28,0.059855044,0.6440403,9.698911,-0.023823744,0.002443461,0.015271631,-0.0663047581911087,-0.006171237677335739,0.23832687735557556,1020.1926,
2021.02.08 17:01:42,50.0,17.0,-4.92,15.299999,-38.52,0.031124622,0.60812724,9.643845,0.010995574,-0.0018325958,0.016493361,-0.06297488510608673,-0.0032273968681693077,0.26466214656829834,1020.1926,
2021.02.08 17:01:42,50.0,17.0,-5.1,15.24,-38.64,0.0,0.59855044,9.744401,0.004886922,0.009773844,0.007941248,-0.06134798377752304,1.0E-6,0.28234684467315674,1020.1926,
2021.02.08 17:01:42,50.0,17.0,-4.98,15.42,-38.52,-0.021547815,0.5770026,9.698911,-0.008552114,0.010995574,0.007330383,-0.05942130461335182,0.002221670001745224,0.2790434956550598,1020.1926,
2021.02.08 17:01:42,50.0,17.0,-5.2799997,15.96,-37.98,0.10295067,0.6512229,9.816227,0.0018325958,0.0036651916,0.014660766,-0.06624075770378113,-0.010487420484423637,0.2587488293647766,1020.1948,
2021.02.08 17:01:42,50.0,17.0,-5.52,16.08,-38.04,-0.0047884034,0.5793968,9.615114,0.004886922,-0.01160644,0.015882496,-0.06018617004156113,4.980079247616231E-4,0.2933216691017151,1020.1948,
2021.02.08 17:01:42,50.0,17.0,-5.2799997,15.96,-38.28,-0.04070143,0.5410896,9.56723,0.02321288,0.0067195175,0.009773844,-0.05649586021900177,0.004254228435456753,0.292185515165329,1020.1948,
2021.02.08 17:01:43,50.0,17.0,-4.8599997,15.719999,-38.76,0.038307227,0.59376204,9.722853,-0.0030543262,-0.01160644,0.01038471,-0.06099248677492142,-0.003939896356314421,0.25504636764526367,1020.1948,
2021.02.08 17:01:43,50.0,17.0,-4.3199997,15.179999,-39.3,0.1364695,0.6607997,9.703699,0.01160644,-0.014049901,0.021991149,-0.06798604130744934,-0.0140627296641469,0.20833680033683777,1020.1953,
2021.02.08 17:01:43,50.0,17.0,-3.9599998,15.36,-39.12,0.07182605,0.58897364,9.691729,-0.004886922,-0.01038471,6.1086525E-4,-0.06069444119930267,-0.007410931400954723,0.2043752670288086,1020.1953,
2021.02.08 17:01:43,50.0,17.0,-3.78,15.48,-39.0,0.02633622,0.59136784,9.677363,0.015271631,-0.0012217305,-0.002443461,-0.0610322467982769,-0.0027214183937758207,0.20319853723049164,1020.1953,
2021.02.08 17:01:43,50.0,17.0,-4.3199997,15.24,-38.7,0.04070143,0.59136784,9.7324295,-0.0012217305,-0.007330383,-0.0012217305,-0.06068746745586395,-0.004182017873972654,0.23250989615917206,1020.1953,
2021.02.08 17:01:43,50.0,17.0,-4.08,15.42,-38.879997,0.055066638,0.58897364,9.495404,0.02565634,-0.02321288,0.0030543262,-0.06194683164358139,-0.005799228325486183,0.2132640928030014,1020.20605,
2021.02.08 17:01:43,50.0,17.0,-4.02,15.059999,-38.879997,0.05267244,0.5626374,9.646238,0.021380283,-0.01160644,-0.0067195175,-0.05826025828719139,-0.00546035822480917,0.21664607524871826,1020.20605,
2021.02.08 17:01:43,50.0,17.0,-4.2,15.0,-38.399998,0.035913024,0.59855044,9.720459,-0.021380283,-0.008552114,-6.1086525E-4,-0.06149829179048538,-0.003694564336910844,0.22998802363872528,1020.20605,
2021.02.08 17:01:43,50.0,17.0,-4.02,15.42,-38.64,0.10055647,0.6679823,9.629479,0.007330383,-0.005497787,-0.009773844,-0.06925375759601593,-0.010442186146974564,0.19762861728668213,1020.20605,
2021.02.08 17:01:43,50.0,17.0,-4.2599998,15.179999,-38.399998,0.045489833,0.62488663,9.78989,-0.018325957,0.007330383,-0.008552114,-0.06374262273311615,-0.00464657973498106,0.2279209941625595,1020.20386,
2021.02.08 17:01:43,50.0,17.0,-4.08,14.82,-38.46,0.06703765,0.6607997,9.622296,-0.0012217305,0.009773844,-0.01038471,-0.06856449693441391,-0.006966794840991497,0.21540704369544983,1020.20386,
2021.02.08 17:01:43,50.0,17.0,-4.02,14.58,-39.18,0.062249243,0.63206923,9.651027,0.013439035,0.0,-0.007330383,-0.06539767980575562,-0.006449923384934664,0.21670669317245483,1020.20386,
2021.02.08 17:01:43,50.0,17.0,-3.9599998,14.759999,-39.0,0.08379706,0.61052144,9.773131,-0.017715093,0.009162978,-0.007330383,-0.06238601729273796,-0.008574018254876137,0.20815618336200714,1020.20386,
2021.02.08 17:01:43,50.0,17.0,-3.78,14.58,-38.879997,0.05267244,0.6464345,9.655815,-0.014049901,-0.0012217305,-0.002443461,-0.06684693694114685,-0.0054549421183764935,0.20516088604927063,1020.2063,
2021.02.08 17:01:43,50.0,17.0,-3.78,14.94,-38.94,0.009576807,0.62009823,9.639056,6.1086525E-4,0.018936822,-0.009162978,-0.06424327939748764,-9.935416746884584E-4,0.2116830050945282,1020.2063,
2021.02.08 17:01:43,50.0,17.0,-3.4199998,15.299999,-38.7,0.0047884034,0.533907,9.634268,-0.014660766,0.016493361,-0.010995574,-0.05536086484789848,-4.97017870657146E-4,0.19281834363937378,1020.2063,
2021.02.08 17:01:43,50.0,17.0,-3.6599998,15.059999,-38.76,0.06464344,0.61530983,9.629479,0.0018325958,-0.004886922,-0.008552114,-0.06381037086248398,-0.006712976843118668,0.19185343384742737,1020.2063,
2021.02.08 17:01:43,50.0,17.0,-4.14,15.48,-38.82,0.045489833,0.61770403,9.873688,-0.019547688,0.01282817,-0.005497787,-0.06247853487730026,-0.004607145208865404,0.21807868778705597,1020.208,
2021.02.08 17:01:43,50.0,17.0,-4.5,15.48,-38.64,0.031124622,0.581791,9.631873,-0.022602014,0.0030543262,-0.01160644,-0.060329072177410126,-0.0032314080744981766,0.24124455451965332,1020.208,
2021.02.08 17:01:43,50.0,17.0,-4.98,15.36,-38.64,0.0023942017,0.56982,9.773131,0.015882496,0.01282817,-0.01038471,-0.058238815516233444,-2.4497794220224023E-4,0.2754996120929718,1020.208,
2021.02.08 17:01:43,50.0,17.0,-4.62,15.179999,-38.04,0.0,0.5770026,9.624691,-0.017104227,0.015882496,-0.01160644,-0.05987858027219772,1.0E-6,0.2591131627559662,1020.208,
2021.02.08 17:01:43,50.0,17.0,-3.9599998,15.12,-37.8,0.0023942017,0.59376204,9.586384,0.02687807,-0.0018325958,-0.0067195175,-0.06185903400182724,-2.4975024280138314E-4,0.22291283309459686,1020.20996,
2021.02.08 17:01:43,50.0,17.0,-3.6,15.179999,-37.68,0.019153614,0.5506664,9.871294,-0.015882496,0.021380283,-6.1086525E-4,-0.05572675168514252,-0.00194033223669976,0.2016146183013916,1020.20996,
2021.02.08 17:01:43,50.0,17.0,-3.3,15.059999,-37.98,0.1316811,0.61530983,9.624691,-0.007941248,-0.0061086523,0.004276057,-0.06383750587701797,-0.01368073932826519,0.15794755518436432,1020.20996,
2021.02.08 17:01:43,50.0,17.0,-3.6599998,15.48,-38.34,0.019153614,0.59136784,9.742006,0.018936822,6.1086525E-4,0.0036651916,-0.06062837317585945,-0.001966082490980625,0.19899632036685944,1020.20996,
2021.02.08 17:01:44,50.0,17.0,-4.08,15.54,-38.76,-0.007182605,0.61291564,9.722853,-0.016493361,0.009162978,-0.008552114,-0.0629553347826004,7.38734204787761E-4,0.22504645586013794,1020.22095,
2021.02.08 17:01:44,50.0,17.0,-3.9599998,15.9,-39.12,-0.05746084,0.51235914,9.844957,-0.020158553,0.032375857,-0.0067195175,-0.05199500918388367,0.005836509633809328,0.2297169417142868,1020.22095,
2021.02.08 17:01:44,50.0,17.0,-4.02,16.199999,-38.879997,0.08140286,0.58897364,9.564836,-0.031154128,0.009773844,-0.012217305,-0.061497099697589874,-0.00851043313741684,0.19619311392307281,1020.22095,
2021.02.08 17:01:44,50.0,17.0,-3.78,16.08,-38.879997,0.011971008,0.5243302,9.722853,0.0012217305,0.015882496,-0.007330383,-0.053875379264354706,-0.0012312232283875346,0.20279380679130554,1020.22095,
2021.02.08 17:01:44,50.0,17.0,-3.8999999,15.9,-38.76,0.09816227,0.5554548,9.603143,-0.014660766,-0.01160644,-0.014049901,-0.05777355283498764,-0.01022153440862894,0.1910640001296997,1020.2185,
2021.02.08 17:01:44,50.0,17.0,-3.84,15.719999,-38.64,-0.016759412,0.533907,9.765948,-0.017715093,-0.0036651916,-0.009162978,-0.054615821689367294,0.00171610526740551,0.21596595644950867,1020.2185,
2021.02.08 17:01:44,50.0,17.0,-4.3199997,15.719999,-38.28,-0.04070143,0.5602432,9.615114,-0.03604105,0.021991149,-0.016493361,-0.05820060893893242,0.0042330422438681126,0.24509742856025696,1020.2185,
2021.02.08 17:01:44,50.0,17.0,-4.62,15.42,-38.219997,0.07182605,0.60812724,9.859323,-0.014660766,-0.015271631,-0.015271631,-0.06160075590014458,-0.007284960709512234,0.23993568122386932,1020.2185,
2021.02.08 17:01:44,50.0,17.0,-4.56,15.42,-38.28,0.01436521,0.60812724,9.801862,-0.02443461,-0.013439035,-0.007330383,-0.06196252629160881,-0.0014655583072453737,0.248345285654068,1020.2178,
2021.02.08 17:01:44,50.0,17.0,-5.1,15.0,-38.399998,-0.035913024,0.533907,9.615114,6.1086525E-4,0.008552114,-0.02076942,-0.055470533668994904,0.0037350421771407127,0.29744988679885864,1020.2178,
2021.02.08 17:01:44,50.0,17.0,-4.5,15.059999,-38.879997,0.033518825,0.521936,9.629479,0.014660766,-0.004886922,-0.007941248,-0.05414857342839241,-0.0034808414056897163,0.2493046224117279,1020.2178,
2021.02.08 17:01:44,50.0,17.0,-4.02,15.059999,-38.52,-0.0047884034,0.5386954,9.8042555,-0.01038471,0.0,-0.007330383,-0.05488985776901245,4.884004592895508E-4,0.2312784492969513,1020.2178,
2021.02.08 17:01:44,50.0,17.0,-4.14,15.12,-38.579998,0.0047884034,0.59855044,9.679757,-0.004886922,0.01038471,-0.01160644,-0.061756640672683716,-4.946821718476713E-4,0.23162047564983368,1020.2173,
2021.02.08 17:01:44,50.0,17.0,-4.02,15.54,-38.28,-0.059855044,0.5315128,9.655815,0.017104227,0.0030543262,-0.009162978,-0.054989323019981384,0.006198780611157417,0.2370815873146057,1020.2173,
2021.02.08 17:01:44,50.0,17.0,-4.5,15.179999,-38.16,-0.02633622,0.5267244,9.751583,0.009773844,0.010995574,-0.0061086523,-0.053961608558893204,0.0027007057797163725,0.26126742362976074,1020.2173,
2021.02.08 17:01:44,50.0,17.0,-4.68,15.24,-38.52,0.055066638,0.5554548,9.730036,0.004276057,0.002443461,-0.0012217305,-0.05702380836009979,-0.0056593879126012325,0.25085681676864624,1020.2173,
2021.02.08 17:01:44,50.0,17.0,-4.2599998,15.059999,-38.16,0.08140286,0.5674258,9.581595,0.021380283,-0.004886922,0.0012217305,-0.05914917588233948,-0.00849554780870676,0.22379358112812042,1020.2097,
2021.02.08 17:01:44,50.0,17.0,-4.2599998,14.94,-38.399998,-0.055066638,0.49799395,9.588778,0.022602014,0.004276057,-0.0030543262,-0.05188761278986931,0.005742758512496948,0.2590043842792511,1020.2097,
2021.02.08 17:01:44,50.0,17.0,-4.5,15.0,-38.1,-0.01436521,0.5530606,9.67018,0.008552114,0.009773844,-0.0030543262,-0.05713007226586342,0.0014855152694508433,0.2596819996833801,1020.2097,
2021.02.08 17:01:44,50.0,17.0,-4.92,15.54,-38.16,-0.007182605,0.5410896,9.607931,-0.014660766,0.009162978,0.004886922,-0.05625753104686737,7.475703023374081E-4,0.2731916308403015,1020.2097,
2021.02.08 17:01:44,50.0,17.0,-5.1,15.78,-38.64,0.07182605,0.58657944,9.639056,-0.015271631,0.009773844,0.0061086523,-0.06077781319618225,-0.007451426703482866,0.2598409056663513,1020.2024,
2021.02.08 17:01:44,50.0,17.0,-4.8599997,15.78,-38.28,0.08140286,0.5650316,9.385271,-0.016493361,0.012217305,0.005497787,-0.06012924388051033,-0.00867325160652399,0.24572069942951202,1020.2024,
2021.02.08 17:01:44,50.0,17.0,-4.3199997,15.719999,-38.46,0.016759412,0.545878,9.631873,-0.0421497,0.032375857,-0.009773844,-0.056613482534885406,-0.0017399933421984315,0.23363572359085083,1020.2024,
2021.02.08 17:01:44,50.0,17.0,-4.14,15.42,-38.28,-0.22026655,0.50038815,9.911995,-0.1001819,0.03604105,-0.01282817,-0.050427842885255814,0.02221856638789177,0.2804051637649536,1020.2024,
2021.02.08 17:01:44,50.0,17.0,-4.14,15.42,-38.28,0.0023942017,0.61770403,9.907207,-0.08552113,0.02565634,-0.01160644,-0.06226835399866104,-2.4166263756342232E-4,0.22837190330028534,1020.2058,
2021.02.08 17:01:45,50.0,17.0,-4.38,15.42,-38.399998,-0.10534488,0.5291186,9.385271,0.002443461,-0.028099801,0.03481932,-0.05631439760327339,0.011224018409848213,0.2674853503704071,1020.2058,
2021.02.08 17:01:45,50.0,17.0,-4.5,15.48,-38.399998,0.074220255,0.59136784,9.579201,0.06963864,0.02321288,0.02076942,-0.061654478311538696,-0.0077479081228375435,0.23160715401172638,1020.2058,
2021.02.08 17:01:45,50.0,17.0,-4.2599998,15.599999,-38.76,-0.045489833,0.40940848,9.871294,-0.07452556,0.017715093,0.029321533,-0.04145045951008797,0.004608262330293655,0.25266024470329285,1020.2058,
2021.02.08 17:01:45,50.0,17.0,-4.08,15.599999,-38.34,-0.055066638,0.46208093,9.552865,-0.03176499,0.023823744,0.031154128,-0.04833245277404785,0.005764347035437822,0.24188251793384552,1020.2073,
2021.02.08 17:01:45,50.0,17.0,-4.5,15.66,-38.34,-0.30406362,0.41180268,8.456321,0.009773844,0.040927973,0.032375857,-0.04862780496478081,0.035941481590270996,0.3239488899707794,1020.2073,
2021.02.08 17:01:45,50.0,17.0,-4.5,16.14,-38.34,0.25857377,0.5315128,10.785878,-0.036651913,0.015882496,0.047647487,-0.04922463372349739,-0.02396877110004425,0.19619348645210266,1020.2073,
2021.02.08 17:01:45,50.0,17.0,-4.62,16.32,-38.16,0.34476504,0.79008657,11.027693,0.028099801,-0.056199603,0.08124508,-0.07148866355419159,-0.0312533900141716,0.17824435234069824,1020.2073,
