Time,X-cord,Y-cord,Mag_x,Mag_y,Mag_z,Acc_x,Acc_y,Acc_z,Gyro_x,Gyro_y,Gyro_z,Orn_x,Orn_y,Orn_z,Pressure,
2021.02.11 16:24:40,34.0,25.0,-26.3387,-14.667701,-22.355875,0.34103587,0.9750145,10.35329,0.07635893,-0.0012081873,0.048514396,-0.09384683519601822,-0.032927948981523514,2.0229318141937256,1014.9993,
2021.02.11 16:24:40,34.0,25.0,-26.305626,-12.758479,-22.910513,0.52906734,0.851898,9.082547,-0.2221956,0.03771584,-0.007279287,-0.09336408972740173,-0.058185238391160965,1.9669878482818604,1014.9988,
2021.02.11 16:24:40,34.0,25.0,-26.047226,-11.651082,-23.846731,0.07975384,0.72212785,9.643345,-0.14268294,0.04087639,0.04061305,-0.07474149018526077,-0.008270161226391792,1.933915615081787,1014.99866,
2021.02.11 16:24:40,34.0,25.0,-25.400673,-12.471084,-23.67159,0.4933698,0.80241483,9.678985,0.025339654,0.016583141,0.045677517,-0.08260687440633774,-0.05092921853065491,1.976238489151001,1014.99866,
2021.02.11 16:24:40,34.0,25.0,-25.443169,-11.933633,-22.9056,0.36676252,0.66956407,9.858986,-0.041337945,0.012855328,0.028279582,-0.06776323914527893,-0.03718369081616402,1.9674274921417236,1014.99866,
2021.02.11 16:24:40,34.0,25.0,-25.086243,-11.854915,-24.880789,0.24763483,0.77245545,9.9397,-0.019979507,0.040393032,-0.021964954,-0.07753431051969528,-0.024908559396862984,1.9534441232681274,1014.99866,
2021.02.11 16:24:40,34.0,25.0,-25.86348,-11.606732,-23.206327,0.22522086,0.7612972,9.858388,0.0013328233,0.033864122,-0.011473633,-0.07705031335353851,-0.02284163422882557,1.9379689693450928,1014.99866,
2021.02.11 16:24:40,34.0,25.0,-25.340424,-11.514047,-23.988363,0.12575133,0.7665377,9.470756,0.041765027,-0.010361178,-0.0025199293,-0.08075419813394547,-0.013277076184749603,1.9341882467269897,1014.99866,
2021.02.11 16:24:40,34.0,25.0,-25.835434,-11.864491,-24.401606,0.4313588,0.52299637,9.397733,-0.009400683,-0.00947967,0.06496028,-0.055535636842250824,-0.04586811363697052,1.9704147577285767,1014.99866,
2021.02.11 16:24:40,34.0,25.0,-25.948997,-10.69987,-24.715994,0.92811424,0.16743147,9.406021,-0.10534919,-0.032539513,0.030159935,-0.017712576314806938,-0.09835397452116013,1.9825395345687866,1014.99506,
2021.02.11 16:24:41,34.0,25.0,-25.506073,-12.797948,-23.994856,0.010246833,0.81652147,9.850715,-0.110326394,0.027696721,-0.17252952,-0.0827004611492157,-0.0010402117623016238,1.9706850051879883,1014.99457,
2021.02.11 16:24:41,34.0,25.0,-25.510475,-12.800197,-24.420916,-0.42567408,1.0085194,10.428922,-0.09734125,-0.003818322,-0.057639565,-0.0963246151804924,0.040794048458337784,1.9480465650558472,1014.993,
2021.02.11 16:24:41,34.0,25.0,-25.75975,-13.084096,-23.987104,0.46321702,0.32401082,9.156575,0.07073995,-0.030233607,0.08945746,-0.03532569482922554,-0.05054536834359169,2.032039165496826,1014.993,
2021.02.11 16:24:41,34.0,25.0,-25.994003,-11.833756,-25.015982,0.66574544,0.32132125,9.609225,-0.093866475,-0.0061128954,0.019218877,-0.033346496522426605,-0.06917136907577515,1.99515962600708,1014.993,
2021.02.11 16:24:41,34.0,25.0,-25.677841,-11.843291,-22.65605,0.15401582,0.6874397,10.480342,-0.08582564,-0.005666505,-0.06981107,-0.06549236923456192,-0.014694629237055779,1.9571996927261353,1014.993,
2021.02.11 16:24:41,34.0,25.0,-25.277863,-11.245782,-23.285143,0.023661414,0.57245797,9.635079,0.087798,-0.02979767,-0.018980203,-0.05934398993849754,-0.002455752110108733,1.9428330659866333,1014.993,
2021.02.11 16:24:41,34.0,25.0,-25.728477,-11.965884,-24.239637,0.49173355,0.37997743,9.51234,0.014315343,-0.021707587,0.032581553,-0.03987133502960205,-0.051648303866386414,1.9915815591812134,1014.993,
2021.02.11 16:24:41,34.0,25.0,-26.047272,-12.2637,-24.105944,0.48014283,0.43503198,9.961109,0.024059743,-0.020570055,-0.05259267,-0.043594758957624435,-0.04816446453332901,1.9923996925354004,1014.993,
2021.02.11 16:24:41,34.0,25.0,-25.247368,-11.438424,-23.782007,0.29194853,0.55932647,9.743724,0.010906083,-0.0016522848,-0.04280703,-0.057315174490213394,-0.029953762888908386,1.958491563796997,1014.993,
2021.02.11 16:24:41,34.0,25.0,-24.89238,-11.803863,-24.726603,0.29881558,0.4200457,9.718474,8.390215E-5,0.020182926,-0.02832663,-0.043174099177122116,-0.030737485736608505,1.9880791902542114,1014.993,
2021.02.11 16:24:41,34.0,25.0,-24.57228,-11.170283,-23.27957,0.19249503,0.532711,9.610594,1.6974215E-4,0.0043233694,-0.03263705,-0.05536182224750519,-0.020026784390211105,1.9583503007888794,1014.993,
2021.02.11 16:24:41,34.0,25.0,-25.377647,-11.9647665,-24.276392,0.29451883,0.5552126,9.883421,-0.037171938,0.006742816,0.008668767,-0.05609232932329178,-0.029790464788675308,1.975062608718872,1014.993,
2021.02.11 16:24:41,34.0,25.0,-26.248886,-11.407472,-23.84482,0.21331547,0.59479445,9.930508,0.004562155,0.009851443,-0.0034104178,-0.059810440987348557,-0.02147751860320568,1.9390512704849243,1014.993,
2021.02.11 16:24:41,34.0,25.0,-25.325172,-12.245023,-23.673384,0.31785762,0.5226763,9.748004,0.01700959,-0.007008546,0.021114672,-0.053539108484983444,-0.032595906406641006,1.989373803138733,1014.993,
2021.02.11 16:24:41,34.0,25.0,-25.097794,-13.003106,-23.968683,0.38121364,0.51157653,9.709865,0.018535506,-0.0022516812,0.015101836,-0.052597153931856155,-0.03924029320478439,2.0212719440460205,1014.993,
2021.02.11 16:24:42,34.0,25.0,-26.197044,-13.240535,-23.143648,0.33289275,0.5858266,9.818974,0.027440228,-0.008090131,-0.00505655,-0.05955793336033821,-0.033890027552843094,2.005323886871338,1014.993,
2021.02.11 16:24:42,34.0,25.0,-25.250862,-12.4353075,-24.189722,0.28945783,0.59735256,9.752063,0.021662425,-0.009711726,-9.0660213E-4,-0.06115066632628441,-0.02967298962175846,1.988677978515625,1014.993,
2021.02.11 16:24:42,34.0,25.0,-25.69896,-13.20803,-23.95194,0.41334113,0.5398275,9.8035965,0.006194222,-0.008031595,-0.01454832,-0.05495994910597801,-0.04213723540306091,2.0174529552459717,1014.99335,
2021.02.11 16:24:42,34.0,25.0,-25.486038,-12.549373,-23.072153,0.2038482,0.6002801,9.6377535,0.028245492,-0.0011912878,-0.04765551,-0.06219000741839409,-0.02114785462617874,1.987357258796692,1014.9944,
2021.02.11 16:24:42,34.0,25.0,-26.15673,-11.554215,-24.235025,0.21668637,0.61207724,9.809081,-0.009283867,0.011820338,-0.017634474,-0.0623030848801136,-0.022086791694164276,1.9425629377365112,1014.99457,
2021.02.11 16:24:42,34.0,25.0,-25.430168,-11.818084,-24.31862,0.25278708,0.5995021,9.762742,0.018754803,0.0055151046,-0.012576009,-0.061309635639190674,-0.025887256488204002,1.9633839130401611,1014.99506,
2021.02.11 16:24:42,34.0,25.0,-26.189026,-13.906508,-23.841566,0.23764503,0.5983235,9.678768,0.018302236,0.012625097,-0.00500318,-0.06172103062272072,-0.024548297747969627,2.0209860801696777,1014.99506,
2021.02.11 16:24:42,34.0,25.0,-25.894814,-12.40462,-23.603437,0.26309884,0.6092307,9.688787,-0.001833722,0.010367448,0.00572655,-0.06277421116828918,-0.027148308232426643,1.9769198894500732,1014.998,
2021.02.11 16:24:42,34.0,25.0,-26.042892,-14.243333,-23.137228,0.24755986,0.6007809,9.889328,0.02410282,-0.002689979,0.014692561,-0.06065690517425537,-0.0250278040766716,2.035939931869507,1014.99805,
2021.02.11 16:24:42,34.0,25.0,-25.742752,-13.662196,-23.42084,0.28846797,0.59499073,9.7795725,-0.015721317,-1.5843412E-4,0.024448225,-0.060738906264305115,-0.029488442465662956,2.023179292678833,1014.9987,
2021.02.11 16:24:42,34.0,25.0,-25.514473,-12.56511,-23.664766,0.21049644,0.6548373,9.759109,0.0074912994,0.0024155953,0.0030814193,-0.0669841542840004,-0.021565884351730347,1.9825273752212524,1014.9993,
2021.02.11 16:24:42,34.0,25.0,-24.698784,-13.34522,-24.273794,0.28355423,0.5775566,9.684368,0.002967348,-0.0046018716,0.024299303,-0.059542011469602585,-0.029271217063069344,2.0292868614196777,1014.99994,
2021.02.11 16:24:42,34.0,25.0,-25.98906,-12.42377,-24.150377,0.31986493,0.6007891,9.810403,-0.013746053,-0.00412999,0.010113879,-0.06113122031092644,-0.032593123614788055,1.9783419370651245,1015.0003,
2021.02.11 16:24:43,34.0,25.0,-26.112267,-12.06545,-24.161947,0.26820296,0.6565072,9.664937,0.003994471,-0.009942243,-0.0071317395,-0.067796491086483,-0.027742980048060417,1.9573777914047241,1015.0003,
2021.02.11 16:24:43,34.0,25.0,-25.361496,-12.557233,-23.749926,0.2866492,0.58725756,9.771977,-0.01042449,-0.002104442,0.00432753,-0.05999814718961716,-0.029325388371944427,1.9927109479904175,1015.0014,
2021.02.11 16:24:43,34.0,25.0,-23.82238,-12.931268,-24.031046,0.2699031,0.6138241,9.747308,-0.0017829272,-0.002170825,-0.008824969,-0.06286662817001343,-0.027682941406965256,2.0268492698669434,1015.00165,
2021.02.11 16:24:43,34.0,25.0,-24.81733,-12.47869,-24.524813,0.26992694,0.58928746,9.715201,-0.01502113,-0.015974361,-0.0054298863,-0.06055868789553642,-0.02777683176100254,1.9961776733398438,1015.0018,
2021.02.11 16:24:43,34.0,25.0,-25.407349,-12.456771,-23.65153,0.25739285,0.6344929,9.798144,-0.0048665176,-0.015083972,-6.9983036E-4,-0.06464391201734543,-0.026263510808348656,1.9838896989822388,1015.00195,
2021.02.11 16:24:43,34.0,25.0,-24.507576,-12.614572,-24.447485,0.29245207,0.59072405,9.745481,0.0033658126,-0.016503895,0.006454044,-0.0605139285326004,-0.02999999187886715,2.006720781326294,1015.00214,
2021.02.11 16:24:43,34.0,25.0,-25.731064,-11.317904,-24.426989,0.34551033,0.56786746,9.725251,-8.706681E-4,-0.011894518,0.0029650542,-0.05828811600804329,-0.035512201488018036,1.947283387184143,1015.0029,
2021.02.11 16:24:43,34.0,25.0,-24.960098,-11.963668,-23.526941,0.32588622,0.57774955,9.801377,0.0018674745,-0.009939117,-0.008985004,-0.05884518101811409,-0.033236775547266006,1.9810974597930908,1015.003,
2021.02.11 16:24:43,34.0,25.0,-25.224968,-11.438916,-23.701773,0.21479362,0.6323507,9.734182,0.02048766,0.007534965,-0.013915395,-0.06485497206449509,-0.022062333300709724,1.950069546699524,1015.003,
2021.02.11 16:24:43,34.0,25.0,-26.384636,-13.368417,-23.077276,0.28900516,0.5849509,9.735461,0.007982703,0.008486285,0.005958508,-0.05998605489730835,-0.029677104204893112,2.005078077316284,1015.00336,
2021.02.11 16:24:43,34.0,25.0,-26.336578,-12.857305,-23.389292,0.29533258,0.6162155,9.712232,0.012940534,0.00828133,0.0035676837,-0.06333324313163757,-0.03039894625544548,1.9863256216049194,1015.00366,
2021.02.11 16:24:43,34.0,25.0,-25.324585,-12.663939,-23.987967,0.20161729,0.6643972,9.73204,0.012383825,0.01623216,-9.1018446E-4,-0.06814870983362198,-0.020713893696665764,1.9867832660675049,1015.00385,
2021.02.11 16:24:43,34.0,25.0,-25.717354,-12.917592,-24.095446,0.30259424,0.64488435,9.818982,0.011767437,0.015328049,0.024193764,-0.06555209308862686,-0.03080752119421959,1.9945495128631592,1015.0043,
2021.02.11 16:24:44,34.0,25.0,-25.525703,-12.817481,-23.70154,0.2719955,0.63720876,9.7840805,0.04352463,0.024615249,0.007512793,-0.065010204911232,-0.02779264561831951,1.9942997694015503,1015.0044,
2021.02.11 16:24:44,34.0,25.0,-26.160484,-12.676795,-24.115538,0.20796089,0.6372009,9.7474785,0.04871085,0.031992402,0.008547882,-0.06526315957307816,-0.021331604570150375,1.9774134159088135,1015.0045,
2021.02.11 16:24:44,34.0,25.0,-25.315483,-12.447261,-24.070215,0.19903296,0.69399005,9.568513,-0.0057109063,0.03647479,0.0085764695,-0.07238613069057465,-0.02079782634973526,1.975808024406433,1015.0046,
2021.02.11 16:24:44,34.0,25.0,-24.690536,-13.63272,-24.390242,0.047853228,0.72921413,9.712432,0.029169222,0.04577036,0.0030334701,-0.07493898272514343,-0.004926967900246382,2.0171799659729004,1015.005,
2021.02.11 16:24:44,34.0,25.0,-24.755325,-12.9005995,-23.840117,0.036669184,0.74525255,9.5701065,-5.5419165E-4,0.021319956,0.026199764,-0.07771554589271545,-0.0038316191639751196,1.9904329776763916,1015.00507,
2021.02.11 16:24:44,34.0,25.0,-25.159882,-12.4593725,-23.74262,0.13129468,0.74151486,9.659166,-0.030841049,0.023304868,0.038321774,-0.07661066949367523,-0.013591918163001537,1.9735140800476074,1015.00507,
2021.02.11 16:24:44,34.0,25.0,-25.71157,-12.639035,-25.4896,0.07834879,0.72694373,9.8249655,-0.03379744,0.0493376,0.033248447,-0.0738525316119194,-0.00797429122030735,1.968277931213379,1015.00507,
2021.02.11 16:24:44,34.0,25.0,-24.13697,-12.09858,-24.043703,0.23292021,0.73851585,9.888217,-0.039111856,0.04372148,0.026979627,-0.07452744990587234,-0.0235509742051363,1.9804832935333252,1015.0054,
2021.02.11 16:24:44,34.0,25.0,-24.434242,-12.362922,-24.722734,0.14389043,0.622234,9.840814,0.01772369,-0.006637721,-0.019543745,-0.06313913315534592,-0.014620760455727577,1.9910352230072021,1015.0056,
2021.02.11 16:24:44,34.0,25.0,-24.427612,-12.10592,-24.485502,-0.09595695,0.73556685,9.41041,-0.050824355,0.015223045,0.014830143,-0.07800257205963135,0.010196540504693985,1.9620932340621948,1015.0056,
2021.02.11 16:24:44,34.0,25.0,-25.63604,-12.068019,-24.044096,0.11716205,0.6895602,10.12721,-0.029417101,8.996276E-4,0.040603247,-0.06798037886619568,-0.011568520218133926,1.9595831632614136,1015.0058,
2021.02.11 16:24:44,34.0,25.0,-24.428947,-12.404082,-25.480505,0.088765286,0.6471974,9.608352,0.059217717,-0.0047834762,-0.002902382,-0.06725334376096725,-0.009238083846867085,1.9854376316070557,1015.0058,
2021.02.11 16:24:44,34.0,25.0,-24.76706,-11.101832,-24.061182,-0.028171474,0.77781063,9.701195,0.012584489,-0.015108664,0.0023429657,-0.08000531047582626,0.002903909655287862,1.9237405061721802,1015.0058,
2021.02.11 16:24:45,34.0,25.0,-24.856918,-11.732665,-24.394323,0.063275196,0.70204145,9.893916,0.004244702,-0.0016234369,0.01120891,-0.07083670794963837,-0.006395277101546526,1.9542759656906128,1015.0058,
2021.02.11 16:24:45,34.0,25.0,-25.33551,-12.767667,-24.625875,-0.024016598,0.65462303,9.49519,0.06702991,-6.462769E-4,-0.010234947,-0.06883345544338226,0.0025293382350355387,1.9811094999313354,1015.0058,
2021.02.11 16:24:45,34.0,25.0,-25.14714,-13.144965,-24.63383,-0.03794044,0.775652,9.813802,0.004229884,0.02355965,0.006177515,-0.07887230068445206,0.0038660094141960144,1.9874353408813477,1015.0058,
2021.02.11 16:24:45,34.0,25.0,-24.03498,-12.435023,-24.0782,0.05819417,0.75355285,9.866882,0.04446992,0.019098524,-0.013020454,-0.07622263580560684,-0.00589786097407341,1.986771583557129,1015.0058,
2021.02.11 16:24:45,34.0,25.0,-24.036957,-12.641393,-24.81531,-0.009848344,0.7773402,9.806209,0.04321575,-0.0073951115,-0.013803447,-0.07910475134849548,0.0010042964713647962,1.9872369766235352,1015.00586,
2021.02.11 16:24:45,34.0,25.0,-24.150146,-13.26508,-24.628798,-0.06804904,0.82681245,9.60475,0.018314976,-0.0055145836,-0.006716041,-0.08586986362934113,0.007084818556904793,1.9995437860488892,1015.00604,
2021.02.11 16:24:45,34.0,25.0,-25.382912,-13.283465,-22.78353,0.039124202,0.8118756,9.845906,-0.0054053403,0.0073220343,0.0023639405,-0.08227141201496124,-0.00397363118827343,1.9928760528564453,1015.00604,
2021.02.11 16:24:45,34.0,25.0,-25.05098,-13.274371,-24.657701,-0.062479172,0.8590674,9.616658,0.027715402,-0.009375291,-0.021773713,-0.08909281343221664,0.006496882066130638,1.9836286306381226,1015.00604,
2021.02.11 16:24:45,34.0,25.0,-24.681244,-13.5772505,-25.210062,0.0067768022,0.7702876,9.638582,-0.015720382,-0.0013022743,2.93409E-4,-0.07974759489297867,-7.030910346657038E-4,2.0079150199890137,1015.0061,
2021.02.11 16:24:45,34.0,25.0,-24.334839,-12.667277,-23.778852,0.04489228,0.7840347,9.76494,-0.027627349,-0.0027379105,-0.024688506,-0.0801180750131607,-0.004597259685397148,1.9872214794158936,1015.0061,
2021.02.11 16:24:45,34.0,25.0,-24.172096,-11.391913,-24.798838,-0.07209298,0.83240324,9.795417,-0.017623706,0.0119357575,-0.040231016,-0.08477288484573364,0.007359735667705536,1.9343692064285278,1015.0061,
2021.02.11 16:24:45,34.0,25.0,-24.503258,-12.032947,-23.528593,-0.19764455,0.8953323,9.588493,-0.02288396,0.0037033467,0.026106171,-0.09308607131242752,0.020609760656952858,1.9460487365722656,1015.00604,
2021.02.11 16:24:45,34.0,25.0,-25.010101,-12.460866,-24.234312,-0.06902944,0.8040584,9.723048,0.017990973,-0.006319954,0.01072678,-0.08250630646944046,0.007099448703229427,1.9636790752410889,1015.006,
2021.02.11 16:24:46,34.0,25.0,-24.0924,-13.230201,-24.84241,-0.084471665,0.8019457,9.639407,0.005793362,0.0010247126,0.019675568,-0.08300019055604935,0.008762936107814312,2.000591993331909,1015.00586,
2021.02.11 16:24:46,34.0,25.0,-25.12107,-13.4985285,-24.1365,-0.033667352,0.8288588,9.812903,-0.0027494598,-0.0024948316,0.03118189,-0.08426569402217865,0.0034309132024645805,1.9964429140090942,1015.00586,
2021.02.11 16:24:46,34.0,25.0,-24.08345,-12.065143,-24.742739,-0.08147047,0.81801367,9.702842,0.012391935,-0.006262042,0.023932206,-0.08410476893186569,0.008396360091865063,1.9599634408950806,1015.00586,
2021.02.11 16:24:46,34.0,25.0,-24.11345,-12.688632,-24.848955,0.04382666,0.824172,9.711658,3.9104675E-4,-0.02166592,0.030736152,-0.08466048538684845,-0.004512757994234562,1.9843367338180542,1015.0058,
2021.02.11 16:24:46,34.0,25.0,-25.952377,-12.445125,-24.116426,0.024861218,0.77185756,9.684551,0.0028519472,-0.014635586,0.01135119,-0.07953150570392609,-0.002567094983533025,1.9555690288543701,1015.00574,
2021.02.11 16:24:46,34.0,25.0,-25.105957,-12.574147,-24.432966,-0.06788195,0.8549204,9.757113,-0.011287027,3.1853197E-4,-0.004556387,-0.08739490807056427,0.006957062985748053,1.9614496231079102,1015.0055,
2021.02.11 16:24:46,34.0,25.0,-24.116425,-11.986182,-22.427477,0.020936266,0.7628295,9.705544,-0.007141293,0.002214168,-0.016794413,-0.07843586057424545,-0.002157141687348485,1.9712249040603638,1015.0055,
2021.02.11 16:24:46,34.0,25.0,-24.499687,-12.771815,-23.686308,-0.04585956,0.8238779,9.82906,-0.014619961,0.004100216,-0.0021358184,-0.0836242288351059,0.004665677901357412,1.9829157590866089,1015.0055,
2021.02.11 16:24:46,34.0,25.0,-24.172348,-11.986688,-23.65243,0.003703595,0.7699571,9.687148,0.003765508,9.763518E-4,-0.012535443,-0.07931557297706604,-3.823204315267503E-4,1.9658056497573853,1015.0055,
2021.02.11 16:24:46,34.0,25.0,-24.717743,-13.020415,-25.396883,-0.060388297,0.8017959,9.738896,-0.0065719085,0.0067179655,-0.008971572,-0.0821424052119255,0.006200653500854969,1.9839694499969482,1015.0055,
2021.02.11 16:24:46,34.0,25.0,-25.110275,-13.537866,-25.73469,-0.07124273,0.7949068,9.782815,0.0067771072,0.0074848086,-0.011196812,-0.08107515424489975,0.007282307371497154,1.9949790239334106,1015.0054,
2021.02.11 16:24:46,34.0,25.0,-24.760353,-13.164737,-24.635351,-0.06353237,0.78161114,9.658708,0.0028262408,-0.007678998,0.0024057038,-0.08074525743722916,0.00657763471826911,1.991417646408081,1015.0054,
2021.02.11 16:24:46,34.0,25.0,-24.259315,-12.046025,-23.339792,0.003319667,0.7948465,9.733779,-0.011230257,0.0045570456,-0.0023020827,-0.08147779107093811,-3.410460485611111E-4,1.9656257629394531,1015.0054,
2021.02.11 16:24:47,34.0,25.0,-24.347923,-13.438069,-24.60327,-0.05828951,0.77498263,9.797027,-0.0048907795,0.0073742284,-0.012437909,-0.0789380893111229,0.0059496439062058926,2.0086662769317627,1015.0054,
2021.02.11 16:24:47,34.0,25.0,-24.063507,-11.919358,-23.90581,-0.1467462,0.806835,9.625954,0.008892406,0.008008982,-0.010471982,-0.0836135670542717,0.015243667177855968,1.9563050270080566,1015.0054,
2021.02.11 16:24:47,34.0,25.0,-25.243797,-13.031617,-24.608751,-0.014136583,0.7858381,9.80026,-0.014991304,0.00429307,0.004769819,-0.08001416176557541,0.0014424691908061504,1.9820842742919922,1015.0054,
2021.02.11 16:24:47,34.0,25.0,-24.71936,-12.722537,-25.367353,-0.06728392,0.77541703,9.749109,-0.0011748094,-0.0014842127,-0.0035032332,-0.07936824858188629,0.006901436019688845,1.9762316942214966,1015.0055,
2021.02.11 16:24:47,34.0,25.0,-23.87642,-12.850436,-25.310987,-0.1533572,0.78539944,9.692416,0.005669919,0.0020669252,-0.0045805285,-0.08084562420845032,0.015821071341633797,1.989254117012024,1015.0055,
2021.02.11 16:24:47,34.0,25.0,-25.088737,-13.43463,-25.568369,-0.05242634,0.79244703,9.691186,-0.0048417463,-0.005927051,0.017654557,-0.08158717304468155,0.00540964026004076,1.9925053119659424,1015.0055,
2021.02.11 16:24:47,34.0,25.0,-23.788391,-12.112565,-25.71826,0.014757375,0.75751376,9.804829,-0.011818458,0.0062978035,0.0114536425,-0.07710599899291992,-0.0015051119262352586,1.9726365804672241,1015.0055,
2021.02.11 16:24:47,34.0,25.0,-24.255844,-12.115666,-24.883558,-0.08862265,0.7949436,9.714372,0.0054766675,5.7011785E-5,-0.005519492,-0.0816463977098465,0.009122585877776146,1.9608194828033447,1015.0057,
2021.02.11 16:24:47,34.0,25.0,-23.958008,-13.0729,-24.469618,-0.056553733,0.788235,9.697675,-0.00474144,-0.0029533207,0.0038280084,-0.08110116422176361,0.005831613205373287,2.0010032653808594,1015.00574,
2021.02.11 16:24:47,34.0,25.0,-24.617737,-13.426553,-24.598906,-0.038019434,0.75670606,9.806502,-0.0053230366,0.0037008591,2.151914E-4,-0.07701052725315094,0.003876942442730069,2.00639009475708,1015.00574,
2021.02.11 16:24:47,34.0,25.0,-23.052223,-12.362588,-24.031199,-0.013647307,0.7611013,9.722783,0.0032625343,-0.0068063037,-0.0036883466,-0.07812080532312393,0.001403641072101891,1.9959286451339722,1015.00574,
2021.02.11 16:24:47,34.0,25.0,-24.113785,-12.369298,-24.879278,-0.10944495,0.7751512,9.684281,0.0073901094,-0.0038097885,-0.017927218,-0.07986684143543243,0.011300817131996155,1.9726539850234985,1015.006,
2021.02.11 16:24:47,34.0,25.0,-23.634918,-12.886895,-24.528978,-0.109708525,0.80166596,9.766773,-0.0051062843,-0.0051967003,-8.392121E-4,-0.08189220726490021,0.01123235933482647,1.9971243143081665,1015.0061,
2021.02.11 16:24:47,34.0,25.0,-23.766136,-13.546445,-24.482332,0.053631168,0.71026784,9.779344,-3.9040414E-4,-3.3164138E-4,0.006986524,-0.07250101119279861,-0.005484072491526604,2.0314688682556152,1015.00616,
2021.02.11 16:24:48,34.0,25.0,-24.231857,-13.49256,-24.488409,-0.09841671,0.7620666,9.773986,0.023760468,-0.008748045,-0.02951246,-0.07780751585960388,0.01006891019642353,2.012265205383301,1015.0062,
2021.02.11 16:24:48,34.0,25.0,-23.444534,-13.632241,-24.231749,-0.20481491,0.73030704,9.7111435,0.022656536,-0.028950641,-0.007936594,-0.07504507899284363,0.021087583154439926,2.029066324234009,1015.00665,
2021.02.11 16:24:48,34.0,25.0,-24.734192,-13.587678,-24.591036,-0.1793918,0.7055591,9.882063,0.06636301,-0.10737069,-0.019349167,-0.07126529514789581,0.018151281401515007,2.0102062225341797,1015.0067,
2021.02.11 16:24:48,34.0,25.0,-24.375206,-13.129348,-24.32643,0.18403368,0.81239027,9.713166,0.09179655,-0.25525022,-0.020500598,-0.08342893421649933,-0.01894455961883068,2.0026180744171143,1015.0068,
2021.02.11 16:24:48,34.0,25.0,-25.507957,-12.706857,-23.029646,0.3218239,1.0038134,9.5922785,-0.022299923,-0.33339602,-0.06820469,-0.10421034693717957,-0.03353772684931755,1.960549235343933,1015.0068,
2021.02.11 16:24:48,34.0,25.0,-27.08786,-14.508046,-23.402998,0.45704708,0.9785201,9.849201,-0.01866175,-0.18784189,0.028622333,-0.09891948848962784,-0.0463712178170681,2.0037245750427246,1015.0068,
2021.02.11 16:24:48,34.0,25.0,-26.781158,-13.254397,-22.869154,0.7504587,0.98285455,8.622136,0.054009143,-0.08149642,0.09518527,-0.11307819932699203,-0.08681980520486832,1.9671872854232788,1015.0068,
2021.02.11 16:24:48,34.0,25.0,-27.639526,-12.543622,-23.378637,0.53786016,0.6782617,10.459184,0.0063599795,-0.041777972,0.07574677,-0.0646725445985794,-0.05137941986322403,1.9628654718399048,1015.0069,
