Time,X-cord,Y-cord,Mag_x,Mag_y,Mag_z,Acc_x,Acc_y,Acc_z,Gyro_x,Gyro_y,Gyro_z,Orn_x,Orn_y,Orn_z,Pressure,
2021.02.11 16:32:58,8.0,13.0,-21.918388,-7.096942,-19.265463,0.0026574011,0.5776778,10.277808,0.024567895,-0.048696633,-0.01783738,-0.056147243827581406,-2.585571783129126E-4,1.8382339477539062,1015.145,
2021.02.11 16:32:58,8.0,13.0,-21.859673,-7.093402,-17.622953,0.08828491,1.085415,9.519639,-0.05463968,-0.027084516,0.02866844,-0.11352339386940002,-0.009273710660636425,1.79855477809906,1015.14526,
2021.02.11 16:32:58,8.0,13.0,-21.77771,-6.924781,-16.690996,0.01813978,0.76097304,9.762134,-0.016817668,-0.0011350699,-0.010924022,-0.07779405266046524,-0.0018581754993647337,1.822984218597412,1015.1454,
2021.02.11 16:32:58,8.0,13.0,-23.40995,-6.29548,-17.484621,-0.12869449,0.8377867,9.704604,-0.08435048,-0.011468642,-0.080357864,-0.08610773831605911,0.013260400854051113,1.770929217338562,1015.1454,
2021.02.11 16:32:58,8.0,13.0,-22.672981,-5.9239435,-18.48409,-0.23390341,0.87183076,10.142163,-0.07945594,0.011640365,-0.04287686,-0.08572755008935928,0.023058390244841576,1.7575976848602295,1015.1454,
2021.02.11 16:32:58,8.0,13.0,-22.869576,-5.3640356,-18.79664,-0.1542589,0.6658822,9.696646,0.013855757,5.2603835E-4,-0.0061065936,-0.06855510920286179,0.01590714044868946,1.74550461769104,1015.1454,
2021.02.11 16:32:58,8.0,13.0,-21.366913,-7.1343527,-17.977076,-0.057434987,0.55736274,9.614293,-0.0095307585,0.0017398412,0.013824805,-0.057906463742256165,0.005973845720291138,1.847113847732544,1015.1454,
2021.02.11 16:32:59,8.0,13.0,-20.797577,-7.4249105,-17.517046,-0.066222526,0.51256263,9.707614,-0.026071608,0.028746895,-7.787294E-4,-0.05274984985589981,0.0068216039799153805,1.8720277547836304,1015.1454,
2021.02.11 16:32:59,8.0,13.0,-21.936981,-5.3220987,-17.69008,-0.09819981,0.61018705,9.768634,-0.016638057,0.021541359,-0.014844104,-0.06237971782684326,0.010052223689854145,1.75948166847229,1015.14526,
2021.02.11 16:32:59,8.0,13.0,-20.879166,-6.615838,-18.345171,-0.2973108,0.7385543,9.969007,0.035859182,-0.009662448,0.03585127,-0.0739172026515007,0.029814675450325012,1.8129322528839111,1015.145,
2021.02.11 16:32:59,8.0,13.0,-21.767899,-5.903552,-18.241972,0.060924683,0.47567797,9.64347,0.009734328,6.441341E-5,0.057782557,-0.04928550124168396,-0.00631762994453311,1.7973434925079346,1015.14484,
2021.02.11 16:32:59,8.0,13.0,-22.870522,-5.9880705,-17.592196,-0.1218651,0.6443137,9.738676,-0.0036263685,-0.0031274296,-0.006087251,-0.06605885922908783,0.012512865476310253,1.7771270275115967,1015.14484,
2021.02.11 16:32:59,8.0,13.0,-21.853714,-5.579339,-17.686323,-0.24763644,0.6845569,9.844548,0.008994307,0.003222051,0.01790803,-0.06940300017595291,0.025149373337626457,1.764721155166626,1015.1441,
2021.02.11 16:32:59,8.0,13.0,-21.378853,-6.181075,-17.59633,-0.054144975,0.5968776,9.587509,0.0138977915,-0.007461084,0.042034127,-0.062174517661333084,0.005647389218211174,1.8031965494155884,1015.1441,
2021.02.11 16:32:59,8.0,13.0,-21.727814,-5.926936,-19.040995,-0.09276035,0.66631776,9.820384,-0.007503606,0.01022209,0.0083437655,-0.06774363666772842,0.009445413947105408,1.7794477939605713,1015.14355,
2021.02.11 16:32:59,8.0,13.0,-21.27671,-6.64009,-17.836756,-0.20229512,0.60837704,9.646609,0.011804177,1.1433169E-4,0.01633499,-0.06296919286251068,0.020967518910765648,1.8210432529449463,1015.1434,
2021.02.11 16:32:59,8.0,13.0,-21.641388,-6.4274683,-18.572813,-0.16439244,0.70971817,9.762288,-0.01681478,0.003538496,0.028511625,-0.07256205379962921,0.01683794893324375,1.798677921295166,1015.143,
2021.02.11 16:32:59,8.0,13.0,-22.217934,-5.8077993,-18.27283,-0.045347586,0.6711946,9.796452,0.0040920116,1.5697075E-4,0.03505602,-0.06840641796588898,0.00462894793599844,1.7721465826034546,1015.14276,
2021.02.11 16:32:59,8.0,13.0,-22.15467,-6.669263,-18.251139,-0.017994175,0.6099056,9.653691,0.015515482,0.0027461695,0.014786784,-0.06309451907873154,0.0018639661138877273,1.8141052722930908,1015.14197,
2021.02.11 16:32:59,8.0,13.0,-20.14859,-5.987771,-18.105482,-0.10124054,0.7171478,9.801199,-0.0023744986,0.0022788548,-0.004794091,-0.0730353519320488,0.01032903604209423,1.7963489294052124,1015.1416,
2021.02.11 16:32:59,8.0,13.0,-22.299477,-6.292449,-18.49455,-0.10193652,0.65713465,9.77938,0.008454745,-0.003953588,-0.004225776,-0.0670914500951767,0.010423240251839161,1.7918384075164795,1015.14105,
2021.02.11 16:33:00,8.0,13.0,-20.534233,-6.2943716,-18.087091,-0.09645927,0.6682684,9.6975765,0.009654498,-0.0037784106,-0.012421927,-0.06879870593547821,0.009946411475539207,1.8099466562271118,1015.14075,
2021.02.11 16:33:00,8.0,13.0,-22.318771,-6.5252447,-17.819384,-0.105864145,0.6434589,9.802239,0.023023997,-0.0022992387,-0.0222471,-0.06554620712995529,0.010799575597047806,1.8045575618743896,1015.14026,
2021.02.11 16:33:00,8.0,13.0,-22.521812,-6.8132753,-17.985933,-0.14212948,0.65903187,9.761464,0.015389444,0.0026805562,-0.016956279,-0.06740421056747437,0.01455923356115818,1.8121893405914307,1015.14026,
2021.02.11 16:33:00,8.0,13.0,-21.085464,-7.3904715,-17.858206,-0.12368848,0.67850035,9.770758,0.00918993,1.5820708E-4,-0.010028747,-0.06932510435581207,0.012658371590077877,1.851946473121643,1015.1398,
2021.02.11 16:33:00,8.0,13.0,-21.24804,-5.099139,-18.64128,-0.16522817,0.68988866,9.772712,0.022822697,0.0050980872,-0.013018659,-0.07046641409397125,0.016905484721064568,1.7452317476272583,1015.1387,
2021.02.11 16:33:00,8.0,13.0,-21.179504,-6.728984,-17.174116,-0.15437461,0.6426351,9.628425,0.024372548,0.0012960761,-0.0025113293,-0.06663615256547928,0.016031842678785324,1.8258492946624756,1015.13824,
2021.02.11 16:33:00,8.0,13.0,-20.449707,-7.775134,-18.56626,-0.050254464,0.63370675,9.804247,-0.005434058,0.0058066393,0.0049856217,-0.06454531103372574,0.005125740077346563,1.8802305459976196,1015.13824,
2021.02.11 16:33:00,8.0,13.0,-20.595268,-5.7309484,-18.692877,-0.27990595,0.74834555,9.568867,-0.0027097734,0.03060778,0.018700799,-0.07801419496536255,0.02924339659512043,1.7717217206954956,1015.138,
2021.02.11 16:33:00,8.0,13.0,-22.783371,-5.499963,-18.315477,-0.08599663,0.6425626,9.835101,0.014681494,0.009435361,-0.01290697,-0.06523840129375458,0.00874362513422966,1.75637686252594,1015.13794,
2021.02.11 16:33:00,8.0,13.0,-20.760239,-5.3786535,-18.44538,-0.18024196,0.7203825,9.771456,-0.009461641,0.008863253,-0.004622929,-0.07357755303382874,0.018443670123815536,1.7598446607589722,1015.13654,
2021.02.11 16:33:00,8.0,13.0,-21.338394,-6.4464483,-18.21155,-0.20200153,0.79725295,9.672766,-0.010317177,-0.0076539004,-0.003128691,-0.0822187066078186,0.020880497992038727,1.7956277132034302,1015.1363,
2021.02.11 16:33:00,8.0,13.0,-21.585861,-6.0453367,-16.901415,-0.13054961,0.77033645,9.941562,-0.018006682,0.00520928,0.012305116,-0.07732529938220978,0.013130946084856987,1.7849996089935303,1015.136,
2021.02.11 16:33:00,8.0,13.0,-22.226135,-7.1065397,-18.477167,-0.09827331,0.65182084,9.656144,0.017725708,-0.012073477,0.0034656338,-0.06739749759435654,0.010176931507885456,1.8265825510025024,1015.13586,
2021.02.11 16:33:00,8.0,13.0,-22.187035,-6.361451,-18.594786,-0.21440458,0.7391936,9.7869005,-0.0051949243,-0.004794489,-0.014661928,-0.07536773383617401,0.02190379612147808,1.7877951860427856,1015.1358,
2021.02.11 16:33:01,8.0,13.0,-20.937119,-6.0028963,-17.893236,-0.20573127,0.7582767,9.733654,0.017863894,-0.016016325,0.0050135017,-0.077728271484375,0.021132932975888252,1.784735918045044,1015.13574,
2021.02.11 16:33:01,8.0,13.0,-21.92192,-5.761241,-18.791468,-0.07583842,0.6318453,9.759382,0.019511962,-0.007232574,-0.008937945,-0.06465016305446625,0.007770664524286985,1.773970127105713,1015.13556,
2021.02.11 16:33:01,8.0,13.0,-21.332764,-5.209462,-18.518538,-0.062273193,0.6785404,9.649063,-0.007861964,-0.00206473,-0.018852357,-0.07020486146211624,0.0064537180587649345,1.7509636878967285,1015.13556,
2021.02.11 16:33:01,8.0,13.0,-22.986366,-6.6596327,-18.836554,-0.2421596,0.79491085,9.803149,0.008641656,0.008084054,-0.021066753,-0.08088570833206177,0.024697203189134598,1.7875274419784546,1015.1354,
2021.02.11 16:33:01,8.0,13.0,-21.732903,-7.148469,-18.680223,-0.14773454,0.6745157,9.7171335,0.014185317,-0.002961751,0.004584048,-0.06929594278335571,0.015202338807284832,1.8309921026229858,1015.13525,
2021.02.11 16:33:01,8.0,13.0,-20.838432,-7.4082956,-17.377539,-0.16656162,0.74597454,9.688319,0.0039396817,-0.005120602,0.0031723464,-0.07683438807725906,0.01719030924141407,1.850930094718933,1015.13525,
2021.02.11 16:33:01,8.0,13.0,-21.196754,-6.3207865,-17.75134,-0.11487319,0.7264104,9.797986,0.0017477137,0.0018746431,0.0069763814,-0.07399828732013702,0.011723626405000687,1.8007128238677979,1015.13513,
2021.02.11 16:33:01,8.0,13.0,-21.745995,-6.613017,-18.77265,-0.14828368,0.70196915,9.637039,0.009712622,-7.522435E-4,-0.0029796655,-0.0727037563920021,0.015385635197162628,1.804994821548462,1015.1351,
2021.02.11 16:33:01,8.0,13.0,-20.680183,-6.79506,-19.479208,-0.17017277,0.75196046,9.797379,-0.011325356,0.0021087918,0.0011095122,-0.07658950239419937,0.017367467284202576,1.818395972251892,1015.13495,
2021.02.11 16:33:01,8.0,13.0,-21.470123,-5.9976225,-17.89248,-0.1289554,0.743973,9.676853,-0.010089869,-0.004310399,0.0055307318,-0.07672398537397385,0.013325382024049759,1.7809720039367676,1015.1348,
2021.02.11 16:33:01,8.0,13.0,-23.187119,-6.1842813,-18.451033,-0.17954378,0.7915049,9.667827,0.0025881722,-0.009593247,-0.013951564,-0.08167378604412079,0.018569130450487137,1.7677265405654907,1015.13446,
2021.02.11 16:33:01,8.0,13.0,-21.720428,-6.223649,-17.284792,-0.1064687,0.7423585,9.793543,-0.006542752,-0.004882733,0.0041059926,-0.07565168291330338,0.010870887897908688,1.7916028499603271,1015.1344,
2021.02.11 16:33:01,8.0,13.0,-22.656815,-5.9253263,-18.309381,-0.07562507,0.68864423,9.795976,0.0057457723,-0.0034659593,-0.0058191484,-0.07018114626407623,0.007719860877841711,1.7715481519699097,1015.1344,
2021.02.11 16:33:02,8.0,13.0,-21.710648,-7.054103,-18.367746,-0.15323323,0.73214525,9.723313,0.017890176,-0.003423004,-0.020440005,-0.07514679431915283,0.015758058056235313,1.8235350847244263,1015.1344,
2021.02.11 16:33:02,8.0,13.0,-21.75985,-7.246526,-18.119284,-0.14555286,0.7231758,9.697507,0.016888408,-8.233949E-4,-0.010496841,-0.07442723959684372,0.015008180402219296,1.83263099193573,1015.1344,
2021.02.11 16:33:02,8.0,13.0,-22.582924,-6.5434637,-17.922796,-0.10495164,0.7130282,9.751834,0.007626149,0.0037576763,-0.0049417573,-0.07298325002193451,0.01076183095574379,1.7968147993087769,1015.1339,
2021.02.11 16:33:02,8.0,13.0,-22.256516,-6.8722086,-18.833174,-0.14558138,0.702518,9.702456,0.013488214,6.525693E-4,-0.009020033,-0.07227195054292679,0.015003463253378868,1.8109443187713623,1015.1339,
2021.02.11 16:33:02,8.0,13.0,-21.628372,-6.159034,-18.437029,-0.14346096,0.7546334,9.653043,0.0079782475,-0.002680117,-0.005221075,-0.07800845801830292,0.014860640279948711,1.7834552526474,1015.1339,
2021.02.11 16:33:02,8.0,13.0,-21.601166,-7.3756704,-18.469778,-0.11954514,0.74465686,9.774001,-0.004148535,-4.1694503E-4,0.002828063,-0.07603494822978973,0.012230321764945984,1.837864637374878,1015.1339,
2021.02.11 16:33:02,8.0,13.0,-20.950165,-6.362878,-17.729929,-0.13137871,0.741941,9.689097,0.0064665684,-0.0037227613,1.0872603E-4,-0.0764186903834343,0.013558606617152691,1.8030931949615479,1015.1339,
2021.02.11 16:33:02,8.0,13.0,-22.111893,-6.2701006,-17.31444,-0.09615662,0.723056,9.775256,-0.008466018,0.0038551197,0.001051499,-0.07382997125387192,0.009836418554186821,1.7912009954452515,1015.1339,
2021.02.11 16:33:02,8.0,13.0,-21.853813,-6.6246214,-17.702135,-0.17259012,0.7725962,9.742675,0.0057352474,-0.0024346977,-0.006136512,-0.07912224531173706,0.01771300844848156,1.8027631044387817,1015.1339,
2021.02.11 16:33:02,8.0,13.0,-21.492035,-6.837863,-17.229582,-0.14809796,0.73308134,9.761642,0.007219102,0.0010077882,0.0032504196,-0.07494885474443436,0.015170254744589329,1.820760726928711,1015.1339,
2021.02.11 16:33:02,8.0,13.0,-21.290115,-7.299226,-19.900347,-0.13051274,0.6975341,9.711768,0.004347187,0.008399459,0.004418893,-0.071694016456604,0.013437808491289616,1.8369094133377075,1015.1339,
2021.02.11 16:33:02,8.0,13.0,-21.57763,-6.6618567,-18.503836,-0.18105914,0.77188104,9.743775,0.0017534825,3.3510907E-5,0.002119068,-0.07903917878866196,0.018579892814159393,1.8042571544647217,1015.13336,
2021.02.11 16:33:02,8.0,13.0,-22.47409,-7.3487635,-18.890474,-0.10783193,0.71426696,9.725506,0.005189729,0.0053105797,0.013179039,-0.07330654561519623,0.0110870860517025,1.8279064893722534,1015.1332,
2021.02.11 16:33:02,8.0,13.0,-22.759087,-6.6278677,-18.24193,-0.09996901,0.71441984,9.677571,-0.0014361227,0.0016113508,-0.0023699806,-0.07368464767932892,0.010329601354897022,1.7971410751342773,1015.133,
2021.02.11 16:33:02,8.0,13.0,-22.16336,-6.37321,-17.602304,-0.13702671,0.7326331,9.701977,-0.0128261335,0.0012588056,-0.0039661997,-0.07536326348781586,0.014122648164629936,1.7925913333892822,1015.13275,
2021.02.11 16:33:03,8.0,13.0,-21.450783,-6.832259,-17.468206,-0.15569387,0.7550254,9.840667,-0.018252218,0.0037158013,-0.005113354,-0.0765654519200325,0.015820156782865524,1.8188530206680298,1015.13275,
2021.02.11 16:33:03,8.0,13.0,-21.507935,-6.9926443,-17.367743,-0.17480773,0.73120695,9.696748,0.009547245,-0.0011821054,-0.005830799,-0.07525281608104706,0.018025506287813187,1.8261914253234863,1015.13275,
2021.02.11 16:33:03,8.0,13.0,-22.032364,-8.499238,-17.95431,-0.10499903,0.73186517,9.716559,-0.009276137,-1.2885331E-4,0.007936048,-0.07517509907484055,0.010805773548781872,1.8818341493606567,1015.13275,
2021.02.11 16:33:03,8.0,13.0,-21.874512,-7.0167284,-17.36376,-0.12262371,0.7265611,9.81183,0.010829829,-0.0032085709,-0.014836198,-0.07390885055065155,0.01249688770622015,1.82483971118927,1015.13275,
2021.02.11 16:33:03,8.0,13.0,-21.883911,-6.3743773,-18.230402,-0.15955512,0.6923418,9.708877,0.0020082134,0.002423046,-0.0020985547,-0.07118009775876999,0.016432464122772217,1.7962617874145508,1015.13275,
2021.02.11 16:33:03,8.0,13.0,-21.484337,-6.8890944,-18.367582,-0.1949184,0.76638347,9.7342615,-0.0030148337,-5.8835954E-5,-0.0070085507,-0.07855276763439178,0.02002127654850483,1.8157153129577637,1015.13275,
2021.02.11 16:33:03,8.0,13.0,-21.338135,-4.807928,-18.030775,-0.14537157,0.7244032,9.788254,-0.0015119263,5.3058757E-4,0.004570538,-0.07386461645364761,0.01485054288059473,1.730857491493225,1015.13275,
2021.02.11 16:33:03,8.0,13.0,-22.005692,-6.3824472,-18.577753,-0.17313214,0.7278219,9.680391,0.0065891678,-0.0010630535,-0.0023424332,-0.07503203302621841,0.017882922664284706,1.7911028861999512,1015.13275,
2021.02.11 16:33:03,8.0,13.0,-21.632103,-6.249669,-18.416544,-0.17648245,0.7391477,9.732875,-0.0049795457,-0.0025142396,0.0060616275,-0.07578551024198532,0.018130626529455185,1.7888898849487305,1015.13275,
2021.02.11 16:33:03,8.0,13.0,-21.297844,-7.937108,-16.561842,-0.15066369,0.72922784,9.771447,7.0278486E-4,0.0036834069,0.0071402644,-0.0744815319776535,0.015417546965181828,1.8725264072418213,1015.133,
2021.02.11 16:33:03,8.0,13.0,-23.058586,-5.7791853,-18.354433,-0.16378365,0.7364157,9.710823,5.7244673E-5,-0.0096648475,0.009310247,-0.07567893713712692,0.01686449535191059,1.7571206092834473,1015.1331,
2021.02.11 16:33:03,8.0,13.0,-22.131523,-6.033181,-17.384726,-0.14633232,0.6935474,9.708009,-8.2141906E-4,-5.841286E-4,0.01044117,-0.07131150364875793,0.015072220005095005,1.7821029424667358,1015.1332,
2021.02.11 16:33:03,8.0,13.0,-22.420242,-5.0792437,-17.471731,-0.17097066,0.7693124,9.705665,-0.011809351,-0.0040562986,0.0066390596,-0.07908667623996735,0.017613733187317848,1.732818841934204,1015.1332,
2021.02.11 16:33:04,8.0,13.0,-21.998207,-5.5040693,-18.727324,-0.08847082,0.7030671,9.839013,-0.00631492,0.001057419,0.01207287,-0.07133295387029648,0.008991596288979053,1.7567287683486938,1015.1332,
2021.02.11 16:33:04,8.0,13.0,-22.244133,-7.0597525,-17.579203,-0.15678976,0.72814435,9.639763,0.0065160734,-0.0058801672,-0.0031467997,-0.07538241147994995,0.016263464465737343,1.8204257488250732,1015.1332,
2021.02.11 16:33:04,8.0,13.0,-22.083305,-5.9619036,-18.69718,-0.10619423,0.7019573,9.783248,-0.0070956196,-8.7102345E-4,-5.6327286E-4,-0.07162398844957352,0.010854274034500122,1.7754662036895752,1015.1332,
2021.02.11 16:33:04,8.0,13.0,-23.138084,-6.306264,-17.411299,-0.14694382,0.7193727,9.763005,-0.0023172782,-0.0038798559,-3.6905298E-4,-0.07354231178760529,0.015049949288368225,1.78278386592865,1015.1332,
2021.02.11 16:33:04,8.0,13.0,-22.133995,-6.2328806,-17.375402,-0.12259764,0.69627804,9.718934,-0.0032233144,-0.0043381327,-0.002404973,-0.07151354104280472,0.012613640166819096,1.7906800508499146,1015.1332,
2021.02.11 16:33:04,8.0,13.0,-21.370163,-6.4153986,-17.932554,-0.12089306,0.68125933,9.710542,-0.0012328536,-0.0010547149,-0.0087474445,-0.07003650069236755,0.01244902890175581,1.805529236793518,1015.1332,
2021.02.11 16:33:04,8.0,13.0,-22.082924,-5.536166,-18.308771,-0.14410603,0.707406,9.765316,-3.8423948E-4,0.0027419257,-5.1544525E-4,-0.07230649888515472,0.01475585252046585,1.7575246095657349,1015.1332,
2021.02.11 16:33:04,8.0,13.0,-23.219635,-6.7894964,-18.284933,-0.15872088,0.7019178,9.719115,-0.0050706496,-0.0036899005,-0.0048503047,-0.07208558917045593,0.016329344362020493,1.7998487949371338,1015.13324,
2021.02.11 16:33:04,8.0,13.0,-22.450981,-6.7716455,-17.499239,-0.11430765,0.6298595,9.722001,-0.0040530753,0.0029441677,6.0345046E-4,-0.06469214707612991,0.011757084168493748,1.8149255514144897,1015.13324,
2021.02.11 16:33:04,8.0,13.0,-21.643433,-6.7070093,-17.571829,-0.17784019,0.73635846,9.75504,-0.012627788,0.0017689383,-0.001676533,-0.07532956451177597,0.018228577449917793,1.811718225479126,1015.13324,
2021.02.11 16:33:04,8.0,13.0,-22.03386,-6.5022593,-18.017344,-0.06420391,0.64584756,9.800584,-0.004369224,-5.686698E-4,0.013724191,-0.06580232828855515,0.006550935097038746,1.8061976432800293,1015.13324,
2021.02.11 16:33:04,8.0,13.0,-22.474068,-6.298442,-17.558565,-0.12088937,0.68121386,9.739274,0.008279445,-0.0023206945,-0.0064204796,-0.06982593983411789,0.012411927804350853,1.7909481525421143,1015.13324,
2021.02.11 16:33:04,8.0,13.0,-20.543556,-5.398858,-18.495325,-0.1355969,0.6431573,9.715814,0.002591842,-0.007085278,8.090184E-4,-0.06609410047531128,0.013955403119325638,1.7693312168121338,1015.13324,
2021.02.11 16:33:04,8.0,13.0,-22.506287,-5.112503,-18.597296,-0.15557323,0.70128626,9.779,1.924294E-4,1.9130675E-4,-0.0030020084,-0.07158190757036209,0.015907566994428635,1.7357406616210938,1015.13324,
2021.02.11 16:33:05,8.0,13.0,-22.453766,-5.77983,-18.489656,-0.116478264,0.645992,9.704297,0.007073925,-0.005632635,0.006878431,-0.06646478176116943,0.01200217567384243,1.769134759902954,1015.13367,
2021.02.11 16:33:05,8.0,13.0,-23.204483,-6.7743826,-17.605852,-0.16335675,0.6869476,9.820152,-0.0015750807,-3.8242835E-4,9.164342E-4,-0.06982944160699844,0.01663331501185894,1.8030376434326172,1015.13367,
2021.02.11 16:33:05,8.0,13.0,-23.450752,-6.0136747,-17.595778,-0.0723637,0.65728855,9.715796,0.011689581,-0.007061673,0.0149822645,-0.06754674017429352,0.007447908166795969,1.7725883722305298,1015.13367,
2021.02.11 16:33:05,8.0,13.0,-22.0486,-6.478839,-18.152258,-0.12226298,0.6531418,9.721976,0.012740253,0.0039850045,-0.008061668,-0.06707590818405151,0.01257527619600296,1.8029534816741943,1015.13367,
2021.02.11 16:33:05,8.0,13.0,-22.305222,-6.874387,-17.17653,-0.14976738,0.7063222,9.769546,0.006106611,0.0075602457,9.1968605E-4,-0.07216434925794601,0.015328824520111084,1.8158317804336548,1015.13367,
2021.02.11 16:33:05,8.0,13.0,-22.115799,-6.110301,-17.629812,-0.09016731,0.6325399,9.663367,0.011256972,-1.7356774E-4,0.009673676,-0.06536141782999039,0.009330566972494125,1.7898215055465698,1015.13367,
2021.02.11 16:33:05,8.0,13.0,-22.033257,-6.2222395,-18.44668,-0.10430017,0.65699905,9.704892,-0.01126419,0.0058881603,0.0041991454,-0.06759069114923477,0.010746761225163937,1.7911009788513184,1015.13367,
2021.02.11 16:33:05,8.0,13.0,-22.00653,-6.359687,-18.059225,-0.20454168,0.71678776,9.736836,-0.014740087,-0.0066463663,5.5820716E-4,-0.07346738129854202,0.021003905683755875,1.7927682399749756,1015.13367,
2021.02.11 16:33:05,8.0,13.0,-22.003792,-5.1525803,-17.193964,-0.011568296,0.6392601,9.840995,-0.0059208698,-0.015744405,0.019155245,-0.06486771255731583,0.0011755203595384955,1.7517268657684326,1015.13367,
2021.02.11 16:33:05,8.0,13.0,-21.936714,-6.346595,-17.738657,-0.22319965,0.73875207,9.662517,0.03780237,-0.001311879,-0.021108862,-0.07628672569990158,0.023095428943634033,1.7916241884231567,1015.1338,
2021.02.11 16:33:05,8.0,13.0,-22.424767,-5.634942,-16.99299,-0.1698827,0.755409,9.692939,0.023131438,0.0066469405,0.014540824,-0.0777648463845253,0.01752464473247528,1.7590632438659668,1015.134,
2021.02.11 16:33:05,8.0,13.0,-22.692589,-6.323943,-18.012762,-0.0173278,0.72394997,10.112625,0.034876134,-0.03701407,0.043318044,-0.07146669924259186,0.0017134803347289562,1.7884045839309692,1015.1349,
2021.02.11 16:33:05,8.0,13.0,-21.805077,-6.40191,-17.536901,-0.0070744506,0.72904396,9.65187,0.1354146,-0.12769537,5.706027E-5,-0.0753907784819603,7.329615182243288E-4,1.7988635301589966,1015.13544,
2021.02.11 16:33:05,8.0,13.0,-22.43274,-7.6747084,-17.687937,0.15235393,0.9080972,9.106954,0.11806771,-0.12850596,-0.022046793,-0.09937235713005066,-0.01672784611582756,1.828981637954712,1015.136,
2021.02.11 16:33:05,8.0,13.0,-23.8936,-6.310302,-16.804873,0.18085067,0.88943297,10.40856,-0.01954798,0.01593781,-0.04870277,-0.08523218333721161,-0.01737343892455101,1.7723479270935059,1015.1361,
