Time,X-cord,Y-cord,Mag_x,Mag_y,Mag_z,Acc_x,Acc_y,Acc_z,Gyro_x,Gyro_y,Gyro_z,Orn_x,Orn_y,Orn_z,Pressure,
2021.02.11 16:31:20,10.0,19.0,2.5295792,-32.445854,-16.506899,-0.30085024,0.4653435,10.136825,-0.01270543,0.051834203,-0.12064221,-0.0458538718521595,0.02967023476958275,-3.0772693157196045,1015.12573,
2021.02.11 16:31:20,10.0,19.0,2.8568115,-32.76094,-15.798632,-0.3937268,0.7332402,9.439266,-0.10922029,0.0053214254,-0.0659225,-0.07745702564716339,0.04168742522597313,-3.0718436241149902,1015.1258,
2021.02.11 16:31:20,10.0,19.0,3.179184,-33.435852,-16.583906,-0.4318185,0.6103613,9.672268,-0.029222077,-0.043042306,-0.05875013,-0.06295814365148544,0.04461538419127464,-3.0663483142852783,1015.126,
2021.02.11 16:31:20,10.0,19.0,2.8321,-33.249413,-15.997175,-0.4648991,0.6532779,9.862617,-0.052060615,-0.007944258,-0.03035832,-0.06606802344322205,0.047102637588977814,-3.0770444869995117,1015.12604,
2021.02.11 16:31:20,10.0,19.0,2.3395767,-32.46779,-16.441755,-0.39544642,0.70025724,9.622595,0.0025108457,-0.025622612,-0.01509262,-0.07258307933807373,0.041072502732276917,-3.0883307456970215,1015.12604,
2021.02.11 16:31:20,10.0,19.0,2.1487808,-32.539013,-16.140203,-0.23453279,0.57373065,9.579362,-0.018551301,-0.036835596,0.027767876,-0.059803031384944916,0.024478241801261902,-3.08601975440979,1015.1261,
2021.02.11 16:31:20,10.0,19.0,1.8774719,-32.716335,-17.564085,-0.024667747,0.4094738,9.720931,-0.052068878,-0.05735348,0.037265558,-0.04209787771105766,0.002537585562095046,-3.0842840671539307,1015.12604,
2021.02.11 16:31:20,10.0,19.0,2.1771393,-31.8163,-16.855158,-0.31061897,0.6390754,9.642316,-0.03540614,-0.05392918,-0.050196256,-0.06614720076322556,0.032203007489442825,-3.0883164405822754,1015.126,
2021.02.11 16:31:20,10.0,19.0,2.111679,-32.27843,-16.122187,-0.55729,0.8012376,10.1955805,-0.054141205,-0.012950012,-0.032118972,-0.07830916345119476,0.054605621844530106,-3.101867198944092,1015.12573,
2021.02.11 16:31:20,10.0,19.0,2.24749,-33.032284,-16.972452,-0.29529142,0.6782446,9.64614,0.047616955,-0.03346795,0.02937357,-0.07016424834728241,0.0306028351187706,-3.0872607231140137,1015.12573,
2021.02.11 16:31:21,10.0,19.0,1.8035889,-33.24979,-16.42991,0.17200904,0.33757517,9.613084,-0.0028075282,0.0011591193,0.051077075,-0.0350961834192276,-0.01789131388068199,-3.0774548053741455,1015.1255,
2021.02.11 16:31:21,10.0,19.0,2.0498352,-31.484379,-16.347513,-0.11017903,0.42351198,10.026138,0.0028813388,0.025325548,-0.06155537,-0.04221314191818237,0.010988736525177956,-3.0808825492858887,1015.1247,
2021.02.11 16:31:21,10.0,19.0,3.028473,-31.63522,-17.210875,-0.7112267,0.78526515,9.537253,0.06971918,-0.0148737,-0.07355983,-0.08192484080791473,0.074435755610466,-3.0838558673858643,1015.1247,
2021.02.11 16:31:21,10.0,19.0,2.4104843,-32.06728,-16.869146,-0.38187656,0.70163745,9.839553,0.010774815,-0.0075761466,0.055999584,-0.07113399356603622,0.03879088908433914,-3.0846567153930664,1015.1245,
2021.02.11 16:31:21,10.0,19.0,2.1921158,-31.911385,-18.127611,-0.22482334,0.6044806,9.859409,0.058821928,0.00624677,0.06092703,-0.061217501759529114,0.022798970341682434,-3.0838072299957275,1015.124,
2021.02.11 16:31:21,10.0,19.0,2.049858,-31.528252,-16.572393,-0.04523146,0.39263764,9.820678,0.076206096,0.01433903,0.06438916,-0.03995899856090546,0.004605704918503761,-3.0776894092559814,1015.1233,
2021.02.11 16:31:21,10.0,19.0,-0.14572144,-33.502712,-15.514963,-0.3139504,0.680845,9.35492,0.08719245,-0.018310526,5.776753E-4,-0.0726105123758316,0.033547330647706985,3.12096905708313,1015.123,
2021.02.11 16:31:21,10.0,19.0,2.858635,-32.930607,-16.24137,-0.17359994,0.7337449,9.582597,-0.038593527,0.0045403983,-0.0017580785,-0.07640895992517471,0.018114186823368073,-3.060608386993408,1015.12244,
2021.02.11 16:31:21,10.0,19.0,2.257759,-33.00718,-16.057981,-0.3186637,0.66647726,9.568446,0.03301194,-0.043779142,-0.05923959,-0.06950293481349945,0.0332912914454937,-3.0875072479248047,1015.1219,
2021.02.11 16:31:21,10.0,19.0,2.6332932,-32.128933,-15.571272,-0.40796295,0.66691667,9.536842,-0.028297147,-0.022774601,-0.02357712,-0.06975331157445908,0.042751505970954895,-3.078193187713623,1015.1213,
2021.02.11 16:31:21,10.0,19.0,1.7099533,-31.317112,-16.477083,-0.120684,0.62184733,9.84697,-0.04100181,-0.0017307138,3.7852942E-4,-0.06306266784667969,0.01225533988326788,-3.091728687286377,1015.12036,
2021.02.11 16:31:21,10.0,19.0,1.7192993,-32.949306,-16.173742,-0.09372395,0.55030924,9.717495,-0.018631512,-2.0903151E-4,-0.0016559189,-0.0565677247941494,0.009644568897783756,-3.092751979827881,1015.12024,
2021.02.11 16:31:21,10.0,19.0,1.7340469,-32.251892,-17.471514,-0.05129916,0.46653244,9.692135,-0.03570123,2.697276E-4,-0.016920462,-0.04809735715389252,0.005292815156280994,-3.0893185138702393,1015.12024,
2021.02.11 16:31:21,10.0,19.0,1.3705368,-31.155167,-16.124548,-0.3838857,0.6945965,9.860171,-0.035245065,0.03047519,-0.0552455,-0.0702754333615303,0.038913313299417496,-3.1168107986450195,1015.12006,
2021.02.11 16:31:22,10.0,19.0,2.398018,-30.521427,-16.432913,-0.3732158,0.7407233,9.910797,-0.01951022,0.023334874,0.006168322,-0.07454768568277359,0.03763970732688904,-3.080793857574463,1015.12,
2021.02.11 16:31:22,10.0,19.0,1.0958786,-33.544975,-17.600382,-0.108009756,0.5481692,9.810187,0.020253578,-0.007849429,0.026804248,-0.05581612512469292,0.011009513400495052,-3.1138532161712646,1015.1199,
2021.02.11 16:31:22,10.0,19.0,2.902008,-31.94004,-16.858538,-0.42433783,0.70194787,9.858039,-0.013961427,-0.013383508,-0.013203218,-0.07102011144161224,0.04301829636096954,-3.0707836151123047,1015.1199,
2021.02.11 16:31:22,10.0,19.0,1.8807755,-32.445366,-16.067957,-0.2817729,0.6303851,9.79087,0.020092672,-0.012442546,0.043832783,-0.06426971405744553,0.028771208599209785,-3.0963900089263916,1015.11975,
2021.02.11 16:31:22,10.0,19.0,1.9522476,-32.30473,-16.156164,0.08156117,0.45269585,9.800046,0.010665498,-0.00595668,0.048633017,-0.04615882784128189,-0.00832233764231205,-3.07550048828125,1015.1197,
2021.02.11 16:31:22,10.0,19.0,1.9280701,-32.458454,-16.585611,-0.028979091,0.5561134,9.918877,0.022217613,-0.0039350223,-0.025126334,-0.05600729212164879,0.002921601990237832,-3.081953287124634,1015.1196,
2021.02.11 16:31:22,10.0,19.0,2.2353973,-32.110626,-17.468596,-0.56804913,0.8448654,9.648809,0.05396015,0.023879396,-0.07473073,-0.08718866854906082,0.05880458280444145,-3.102055072784424,1015.1196,
2021.02.11 16:31:22,10.0,19.0,2.397438,-32.83251,-16.69364,-0.28981924,0.61353236,9.686658,-0.0036716652,0.014947763,0.028423244,-0.0632251650094986,0.029910502955317497,-3.0818328857421875,1015.1195,
2021.02.11 16:31:22,10.0,19.0,1.1946716,-32.6158,-15.448774,-0.040678438,0.4873228,9.646386,0.0022230353,0.0033557662,-0.017799152,-0.050475332885980606,0.004216936416924,-3.1060822010040283,1015.1194,
2021.02.11 16:31:22,10.0,19.0,1.9794312,-32.793266,-16.622225,-0.33282587,0.6730752,9.735158,-0.004860871,0.001009915,0.024557995,-0.06898856908082962,0.03417471796274185,-3.096942901611328,1015.119,
2021.02.11 16:31:22,10.0,19.0,1.4635544,-33.10886,-16.094816,-0.1719675,0.6072665,9.801696,-0.0035413443,0.0054077236,0.02713835,-0.06186666339635849,0.017542868852615356,-3.104759693145752,1015.119,
2021.02.11 16:31:22,10.0,19.0,1.9673691,-32.753098,-16.925608,-0.15653908,0.5964088,9.709153,0.008976562,0.0020745122,0.0018005263,-0.06134243682026863,0.016121437773108482,-3.08811616897583,1015.119,
2021.02.11 16:31:22,10.0,19.0,2.1090088,-33.013954,-15.534567,-0.28934446,0.6556918,9.730735,4.2067096E-4,0.0037734038,-0.015634254,-0.06725224107503891,0.02972634881734848,-3.090014934539795,1015.11884,
2021.02.11 16:31:22,10.0,19.0,1.1883926,-32.941563,-16.575193,-0.27579626,0.6753478,9.783471,-2.6701158E-4,-0.0011154856,-0.005618516,-0.06889285892248154,0.028182558715343475,-3.1188714504241943,1015.1187,
2021.02.11 16:31:23,10.0,19.0,1.259964,-30.679153,-17.311808,-0.23890741,0.60626465,9.747857,0.010819666,0.0017997759,-0.006590785,-0.06209604814648628,0.024503806605935097,-3.1133229732513428,1015.1187,
2021.02.11 16:31:23,10.0,19.0,1.9944992,-32.74849,-17.03044,-0.2461642,0.6323724,9.725917,0.004710961,0.004706896,-0.008742146,-0.06490718573331833,0.025304725393652916,-3.0921285152435303,1015.118,
2021.02.11 16:31:23,10.0,19.0,1.0102692,-32.070835,-16.190783,-0.24678767,0.6280766,9.7752495,0.015051741,0.009496223,-0.014752209,-0.06414314359426498,0.025240814313292503,-3.122176170349121,1015.118,
2021.02.11 16:31:23,10.0,19.0,2.0165482,-31.289791,-15.40624,-0.2802566,0.6405537,9.677436,0.0029707444,0.006669888,-0.007606512,-0.06606640666723251,0.028951706364750862,-3.08966326713562,1015.1169,
2021.02.11 16:31:23,10.0,19.0,1.8917313,-33.03333,-15.619867,-0.23283428,0.6028821,9.771066,-6.942665E-4,0.005838478,0.0027164677,-0.06160518527030945,0.02382444590330124,-3.0941662788391113,1015.1165,
2021.02.11 16:31:23,10.0,19.0,1.3659973,-31.9478,-15.303518,-0.36056885,0.65176344,9.653335,0.010718664,-8.920673E-6,-0.013095987,-0.06736777722835541,0.0373343862593174,-3.1158599853515625,1015.1165,
2021.02.11 16:31:23,10.0,19.0,0.44247437,-30.297684,-16.446016,-0.30088237,0.62994224,9.729448,-0.0071873195,0.005451831,0.022453966,-0.06462488323450089,0.030915062874555588,3.13932728767395,1015.1149,
2021.02.11 16:31:23,10.0,19.0,1.2583542,-31.6399,-17.353048,-0.16829385,0.58391523,9.901822,-0.010997374,0.0136118345,0.02253462,-0.05889378488063812,0.016994614154100418,-3.1100847721099854,1015.11475,
2021.02.11 16:31:23,10.0,19.0,1.4508972,-32.131866,-16.667734,-0.28743502,0.61096185,9.678557,0.02957884,-0.008227697,-0.006093119,-0.0630139485001564,0.029689399525523186,-3.1107966899871826,1015.1146,
2021.02.11 16:31:23,10.0,19.0,1.6330948,-32.530727,-16.348711,-0.34007597,0.59587365,9.7539,0.00810924,0.0048036226,0.0028112214,-0.06097802147269249,0.034851524978876114,-3.107846260070801,1015.1139,
2021.02.11 16:31:23,10.0,19.0,1.3157959,-32.359142,-15.969118,-0.28590652,0.6685593,9.767966,0.0092756,-0.0031901496,0.0154778715,-0.06830832362174988,0.029261456802487373,-3.1144118309020996,1015.1139,
2021.02.11 16:31:23,10.0,19.0,2.2164307,-32.481075,-16.689615,-0.23824124,0.60070866,9.749478,0.023157526,0.0010022892,0.016994582,-0.06151833012700081,0.024431442841887474,-3.084057331085205,1015.1139,
2021.02.11 16:31:23,10.0,19.0,1.8992767,-31.716637,-16.942263,-0.29742488,0.64505297,9.656968,0.018337963,0.0073945853,0.0043652914,-0.06666603684425354,0.03078925795853138,-3.0965025424957275,1015.1139,
2021.02.11 16:31:23,10.0,19.0,1.7063293,-32.193394,-15.40819,-0.27779177,0.6656037,9.759038,0.013467106,0.006051592,0.011217039,-0.06807087361812592,0.028457392007112503,-3.1008265018463135,1015.1139,
2021.02.11 16:31:24,10.0,19.0,2.1546783,-31.960587,-14.478422,-0.20605953,0.56961817,9.77894,0.010007311,0.0032238963,0.011965599,-0.05817084386944771,0.021068645641207695,-3.0821313858032227,1015.1139,
2021.02.11 16:31:24,10.0,19.0,1.1035004,-32.404163,-16.72399,-0.2839575,0.68462914,9.538156,-0.011196248,0.011719981,-0.009970496,-0.07162342220544815,0.02976190485060215,-3.1221446990966797,1015.1139,
2021.02.11 16:31:24,10.0,19.0,1.763092,-31.309036,-16.117208,-0.25192425,0.6505459,9.670689,0.01623974,-0.0057502147,-0.009301623,-0.0671459510922432,0.026044398546218872,-3.0970919132232666,1015.1139,
2021.02.11 16:31:24,10.0,19.0,1.1326447,-32.29207,-15.590982,-0.2912372,0.6359607,9.7535095,0.0071838023,-0.0033835443,-0.024431875,-0.06508217751979828,0.02985086478292942,-3.120229482650757,1015.1139,
2021.02.11 16:31:24,10.0,19.0,0.98599243,-32.275505,-16.021658,-0.35506484,0.6773769,9.678053,-0.0025211968,-0.008684039,-0.014674391,-0.06983024626970291,0.03667118400335312,-3.128788948059082,1015.1139,
2021.02.11 16:31:24,10.0,19.0,1.822998,-31.32853,-16.24457,-0.3649361,0.67857766,9.699744,0.0010929336,-0.0058575054,-0.010159445,-0.06979528814554214,0.03760553523898125,-3.1014034748077393,1015.1139,
2021.02.11 16:31:24,10.0,19.0,1.6178436,-33.351395,-15.397314,-0.27917942,0.65662193,9.767991,-0.023596756,-0.009822706,0.013909083,-0.06709350645542145,0.02857326902449131,-3.1050939559936523,1015.1139,
2021.02.11 16:31:24,10.0,19.0,2.1749115,-31.211914,-15.695131,-0.22029395,0.63227624,9.823289,0.006028626,-0.0055984547,0.005305731,-0.06426025182008743,0.022421924397349358,-3.0811924934387207,1015.1139,
2021.02.11 16:31:24,10.0,19.0,1.327095,-30.902653,-16.052057,-0.31975892,0.63990086,9.718591,0.013246356,0.0010539434,0.0025019264,-0.06571260839700699,0.03288991376757622,-3.1147847175598145,1015.1139,
2021.02.11 16:31:24,10.0,19.0,1.8601227,-31.714497,-15.752275,-0.15232377,0.60536903,9.778966,-0.006294443,0.0037776786,0.028877605,-0.06181884557008743,0.015575415454804897,-3.0890138149261475,1015.1139,
2021.02.11 16:31:24,10.0,19.0,1.3757782,-32.821785,-16.489489,-0.18589497,0.64308006,9.7300625,0.008483813,-0.008938601,-0.002753953,-0.0659840926527977,0.01910289376974106,-3.1081087589263916,1015.1139,
2021.02.11 16:31:24,10.0,19.0,2.131096,-31.07808,-16.157164,-0.2804786,0.6444699,9.694561,0.0109778205,-0.0019673095,-0.012125217,-0.06635212153196335,0.02892347425222397,-3.086097240447998,1015.1146,
2021.02.11 16:31:24,10.0,19.0,1.15448,-32.208557,-16.112337,-0.22379364,0.63507557,9.721123,-0.0039105457,-7.683304E-4,-0.007500643,-0.06521950662136078,0.023017311468720436,-3.116400718688965,1015.11475,
2021.02.11 16:31:25,10.0,19.0,1.7960587,-31.303493,-15.425352,-0.22927727,0.6237567,9.785557,-0.0035122526,3.8422795E-4,-0.014753298,-0.06363904476165771,0.023425884544849396,-3.0942256450653076,1015.1149,
2021.02.11 16:31:25,10.0,19.0,0.6735153,-31.900402,-15.636873,-0.30703077,0.64739853,9.739673,0.001961703,-0.008982092,-0.021512747,-0.06633976846933365,0.031513288617134094,-3.1357312202453613,1015.1162,
2021.02.11 16:31:25,10.0,19.0,1.6272659,-32.1089,-16.829672,-0.31611595,0.7006901,9.814748,0.0015778029,-0.0064796247,-0.004789619,-0.07123381644487381,0.03219712898135185,-3.106421709060669,1015.1171,
2021.02.11 16:31:25,10.0,19.0,2.3514633,-31.244637,-15.605623,-0.22949378,0.5963659,9.626784,-0.01279404,0.0025316076,-0.0059685283,-0.061852023005485535,0.023834574967622757,-3.076197385787964,1015.11755,
2021.02.11 16:31:25,10.0,19.0,2.2343826,-32.05757,-15.884672,-0.3271294,0.6331773,9.639255,0.016099101,1.5501416E-4,0.0017256994,-0.06555550545454025,0.03392418846487999,-3.0868923664093018,1015.1184,
2021.02.11 16:31:25,10.0,19.0,2.41539,-32.0201,-16.51071,-0.27084145,0.6582076,9.767481,-0.014494687,0.0021259617,0.019641045,-0.06726015359163284,0.027721790596842766,-3.078214645385742,1015.1184,
2021.02.11 16:31:25,10.0,19.0,1.9680481,-32.870956,-16.339743,-0.22687446,0.65325385,9.819069,-0.003596758,-0.008784689,0.024755003,-0.06641353666782379,0.023101387545466423,-3.091492176055908,1015.1184,
2021.02.11 16:31:25,10.0,19.0,1.4073181,-32.031013,-16.583864,-0.2196501,0.63021433,9.673532,0.012047395,-0.0077528697,0.01426409,-0.06503966450691223,0.022702397778630257,-3.1082379817962646,1015.1188,
2021.02.11 16:31:25,10.0,19.0,1.8763199,-32.56604,-15.980829,-0.1870635,0.6209151,9.7344675,-0.0010048733,4.2084744E-4,0.008272991,-0.06368719041347504,0.019214248284697533,-3.0917961597442627,1015.11884,
2021.02.11 16:31:25,10.0,19.0,2.056221,-32.086308,-16.297598,-0.2264172,0.6476316,9.820003,0.013059602,-0.006405593,-0.0060218275,-0.06583742797374725,0.023052649572491646,-3.0873501300811768,1015.11914,
2021.02.11 16:31:25,10.0,19.0,1.0028381,-32.15274,-16.586153,-0.23310347,0.62260216,9.698327,0.0043707183,-0.0035290401,-0.0073133972,-0.06409043073654175,0.02403080463409424,-3.1221256256103516,1015.11914,
2021.02.11 16:31:25,10.0,19.0,1.7052307,-31.78606,-16.599077,-0.25554854,0.6179451,9.72087,9.7415317E-4,-0.0034206333,-0.0091025755,-0.06346161663532257,0.026282595470547676,-3.100254774093628,1015.11957,
2021.02.11 16:31:25,10.0,19.0,0.86945343,-32.22525,-15.128202,-0.2561873,0.62821484,9.72412,-8.9810183E-4,-0.0030910778,-0.0014066038,-0.06449180096387863,0.02633945643901825,-3.126497745513916,1015.11957,
2021.02.11 16:31:26,10.0,19.0,2.3030472,-31.878052,-16.643763,-0.23682694,0.6076853,9.71831,-0.00406775,-8.99686E-4,0.001945793,-0.06243014335632324,0.024364326149225235,-3.0800318717956543,1015.1203,
2021.02.11 16:31:26,10.0,19.0,1.7365112,-33.36495,-16.246824,-0.28182265,0.66357636,9.743548,-0.0038772826,-3.6092242E-4,0.003411238,-0.06797083467245102,0.02891596406698227,-3.102271795272827,1015.1203,
2021.02.11 16:31:26,10.0,19.0,1.4096298,-31.479923,-16.155031,-0.19033532,0.5650971,9.799443,-0.002282144,0.0029511875,0.019968005,-0.05759161338210106,0.01942063309252262,-3.1056811809539795,1015.1205,
2021.02.11 16:31:26,10.0,19.0,0.88035583,-31.278378,-15.974237,-0.23418319,0.6123101,9.6930065,0.006320585,5.751003E-4,9.1001624E-5,-0.06306812167167664,0.02415531687438488,-3.125231981277466,1015.12054,
2021.02.11 16:31:26,10.0,19.0,0.89743805,-32.289436,-16.725348,-0.27000824,0.61821586,9.744865,-0.0081386585,0.0063360715,0.016880067,-0.06333102285861969,0.02770065702497959,-3.1276724338531494,1015.12067,
2021.02.11 16:31:26,10.0,19.0,2.0608902,-32.251465,-16.587141,-0.20810945,0.5798809,9.776216,0.0045083966,0.004827,0.0013582107,-0.059232670813798904,0.021284107118844986,-3.0869410037994385,1015.12067,
2021.02.11 16:31:26,10.0,19.0,1.940239,-32.607876,-15.999483,-0.20112364,0.5357804,9.708344,0.0016759085,0.006424261,0.0036037206,-0.05511988326907158,0.02071361057460308,-3.0908565521240234,1015.12067,
2021.02.11 16:31:26,10.0,19.0,1.7773361,-32.275463,-16.721384,-0.31595245,0.6701749,9.749921,-0.007392732,0.0023095729,-0.00995622,-0.0685926079750061,0.03239430859684944,-3.1018450260162354,1015.12067,
2021.02.11 16:31:26,10.0,19.0,2.7362366,-31.93134,-15.548944,-0.19012924,0.55488163,9.826879,-0.0021907673,0.0059684906,0.011482985,-0.0563952773809433,0.019345462322235107,-3.0632104873657227,1015.12067,
2021.02.11 16:31:26,10.0,19.0,0.5253525,-31.584366,-16.470778,-0.266598,0.59892035,9.636523,0.012395792,0.0017668263,-0.0074515683,-0.0620475597679615,0.027658315375447273,-3.1393089294433594,1015.12115,
2021.02.11 16:31:26,10.0,19.0,1.3059845,-32.11033,-16.316103,-0.23313928,0.61993116,9.820104,0.009245416,0.0014764448,0.0016714324,-0.06302741169929504,0.023736560717225075,-3.1119930744171143,1015.1213,
2021.02.11 16:31:26,10.0,19.0,1.4887466,-32.42706,-17.139261,-0.21014571,0.5526355,9.657353,0.012738019,-0.0030649889,-0.0012429126,-0.05714848265051842,0.021756744012236595,-3.1060738563537598,1015.1215,
2021.02.11 16:31:26,10.0,19.0,1.837738,-32.650967,-16.089197,-0.30928785,0.63377595,9.765321,0.003869683,0.0041489685,-0.011713475,-0.06477739661931992,0.03166148066520691,-3.099525213241577,1015.1215,
2021.02.11 16:31:27,10.0,19.0,0.91908264,-31.165665,-15.96332,-0.2017128,0.55075616,9.727264,0.010249848,-0.001513517,0.0057604155,-0.05654732137918472,0.020733876153826714,-3.122135639190674,1015.1215,
2021.02.11 16:31:27,10.0,19.0,1.8617172,-31.486893,-16.127928,-0.2862568,0.5547395,9.706894,0.0020045484,0.0052557345,-0.011109374,-0.05706217139959335,0.02948150597512722,-3.096217155456543,1015.1216,
2021.02.11 16:31:27,10.0,19.0,0.46714783,-31.485252,-16.886507,-0.33333698,0.6150958,9.742962,-0.0039778543,0.0027770328,-0.0019996904,-0.06301187723875046,0.03419976308941841,3.1379520893096924,1015.1217,
2021.02.11 16:31:27,10.0,19.0,1.6686401,-32.152107,-16.428286,-0.23884974,0.57035726,9.755355,-6.6174334E-4,0.0059995195,0.0077256295,-0.05838213488459587,0.02447907254099846,-3.100954532623291,1015.1217,
2021.02.11 16:31:27,10.0,19.0,2.7400742,-32.37747,-16.592848,-0.25361603,0.58413744,9.796777,0.010264466,5.2494655E-4,0.0049135545,-0.05953506380319595,0.025881921872496605,-3.068000078201294,1015.1217,
2021.02.11 16:31:27,10.0,19.0,0.7963867,-30.937084,-17.495844,-0.20360892,0.57124245,9.890239,-0.01189735,0.0032636926,0.003982251,-0.05768191069364548,0.020583948120474815,-3.1269965171813965,1015.1217,
2021.02.11 16:31:27,10.0,19.0,1.6899261,-32.382915,-15.522463,-0.19731177,0.58486366,9.654999,0.024106028,-0.022819983,-0.011568294,-0.060489721596241,0.02043338492512703,-3.0978899002075195,1015.1217,
2021.02.11 16:31:27,10.0,19.0,1.5874939,-31.785858,-16.337309,-0.1597618,0.5204458,9.786788,0.0015745596,0.018195122,-0.03113774,-0.053121309727430344,0.016322782263159752,-3.098841667175293,1015.1217,
2021.02.11 16:31:27,10.0,19.0,2.1183624,-32.36433,-15.042067,-0.340711,0.6201065,9.740043,0.022473527,-0.0077119456,-0.048014924,-0.06354112178087234,0.03496618568897247,-3.0908632278442383,1015.1217,
2021.02.11 16:31:27,10.0,19.0,1.9572754,-32.1652,-16.055193,-0.44640407,0.66663307,9.905549,0.03487744,-0.042781495,-0.015357524,-0.0671297013759613,0.04503558948636055,-3.10187029838562,1015.1217,
2021.02.11 16:31:27,10.0,19.0,1.2241745,-33.2591,-15.708231,-0.16755676,0.6601427,9.757039,0.09302638,-0.07946029,0.019481678,-0.06754522025585175,0.0171712227165699,-3.1118931770324707,1015.1217,
2021.02.11 16:31:27,10.0,19.0,0.93595123,-31.663681,-15.613714,-0.1799748,0.7194555,9.770024,0.12872034,-0.09810977,0.017432118,-0.07349397242069244,0.018419036641716957,-3.1202943325042725,1015.1221,
