Time,X-cord,Y-cord,Mag_x,Mag_y,Mag_z,Acc_x,Acc_y,Acc_z,Gyro_x,Gyro_y,Gyro_z,Orn_x,Orn_y,Orn_z,Pressure,
2021.02.11 16:25:40,30.0,25.0,-26.495201,-9.360822,-21.275084,0.91985226,0.4476708,9.8958025,0.23039755,0.21315105,-0.116798215,-0.04501384124159813,-0.0926874428987503,1.8980774879455566,1015.04663,
2021.02.11 16:25:40,30.0,25.0,-26.70086,-11.200053,-21.296572,-0.048719388,1.1677543,9.237525,-0.19659683,0.021438336,0.054700572,-0.12574546039104462,0.0052740247920155525,1.8763774633407593,1015.04663,
2021.02.11 16:25:41,30.0,25.0,-26.53746,-10.646087,-21.602316,0.37781158,0.77769756,9.985728,-2.9420108E-4,0.02842769,0.008199188,-0.0776686742901802,-0.03781711310148239,1.9028048515319824,1015.046,
2021.02.11 16:25:41,30.0,25.0,-26.968796,-12.341926,-20.93387,0.099728145,0.94315386,9.403275,-0.04959733,0.06465991,0.025012298,-0.09996066987514496,-0.010605284944176674,1.933930516242981,1015.04565,
2021.02.11 16:25:41,30.0,25.0,-24.793236,-11.568879,-20.689531,0.14773262,0.7198313,9.980435,-0.044879906,0.07843419,0.051940214,-0.0719917044043541,-0.014801140874624252,1.9594013690948486,1015.04425,
2021.02.11 16:25:41,30.0,25.0,-25.989426,-9.729272,-21.944117,0.20980392,0.6323746,9.717822,0.07892799,0.0077362675,0.031661555,-0.06496697664260864,-0.021586250513792038,1.88351571559906,1015.04425,
2021.02.11 16:25:41,30.0,25.0,-25.618683,-12.039916,-20.97672,0.08214331,0.68390775,9.805588,0.07399146,0.018251542,-0.015740447,-0.06963153183460236,-0.008376997895538807,1.9634267091751099,1015.04425,
2021.02.11 16:25:41,30.0,25.0,-25.192802,-10.776814,-22.500273,-0.07773938,0.8561894,9.732277,0.046837684,-0.030455435,-0.02598358,-0.08774552494287491,0.007987620308995247,1.9039971828460693,1015.04425,
2021.02.11 16:25:41,30.0,25.0,-26.693016,-12.464225,-21.26636,0.10158823,0.84340096,9.444725,0.061871838,0.0038342795,0.023213977,-0.08905727416276932,-0.01075566653162241,1.948461651802063,1015.04425,
2021.02.11 16:25:41,30.0,25.0,-26.125206,-10.21243,-22.018469,0.22900319,0.7702643,9.744172,-0.072038814,-7.4876496E-4,0.011159982,-0.0788629949092865,-0.02349722944200039,1.887779712677002,1015.0454,
2021.02.11 16:25:41,30.0,25.0,-26.655228,-10.691087,-21.230036,0.1638116,0.77706337,9.648862,-0.021149063,0.0028416053,-6.0500996E-4,-0.08034923672676086,-0.01697566732764244,1.897770881652832,1015.04565,
2021.02.11 16:25:41,30.0,25.0,-26.322151,-11.124377,-21.832895,0.15913798,0.6992326,9.563924,-0.09373642,0.0038352117,-0.00438161,-0.07297156006097794,-0.01663786731660366,1.9206904172897339,1015.04565,
2021.02.11 16:25:41,30.0,25.0,-26.642555,-11.454953,-20.609076,-0.10218016,0.86965656,9.791085,-0.012643172,-0.013786589,-0.067040056,-0.08858399093151093,0.010435662232339382,1.9144805669784546,1015.04565,
2021.02.11 16:25:41,30.0,25.0,-24.164581,-10.964341,-22.394567,0.03626463,0.9573231,9.6761465,-0.008542248,-0.026670165,0.018777035,-0.09861478209495544,-0.0037478203885257244,1.917393445968628,1015.04565,
2021.02.11 16:25:41,30.0,25.0,-25.31427,-11.006719,-21.690268,0.043030277,0.8095146,9.905215,-0.050913703,-0.050826855,0.06441968,-0.08154410123825073,-0.00434417650103569,1.920393943786621,1015.04565,
2021.02.11 16:25:42,30.0,25.0,-25.866806,-11.629039,-21.916014,0.17866187,0.5912718,9.80439,0.0139013985,-0.01163206,0.07204754,-0.06022392213344574,-0.018220622092485428,1.9538546800613403,1015.04565,
2021.02.11 16:25:42,30.0,25.0,-27.65763,-9.267961,-21.783396,0.30235747,0.6718259,9.844455,0.09124088,0.0037094082,5.4239226E-4,-0.06810642778873444,-0.030703827738761902,1.8490808010101318,1015.0454,
2021.02.11 16:25:42,30.0,25.0,-25.999382,-10.412194,-22.25221,0.269223,0.76444894,9.539959,0.03406966,0.024177745,-0.027133778,-0.07992873340845108,-0.028213072568178177,1.8957597017288208,1015.0454,
2021.02.11 16:25:42,30.0,25.0,-24.72322,-10.906341,-21.629274,0.16038243,0.79034716,10.065224,0.09482005,0.077251576,-0.029224483,-0.07835187017917633,-0.015932966023683548,1.9298726320266724,1015.0454,
2021.02.11 16:25:42,30.0,25.0,-25.329216,-11.137479,-21.501925,-0.09137509,0.840486,9.7297535,0.106344216,0.030483257,-0.041758243,-0.08616538345813751,0.009391029365360737,1.91896653175354,1015.0454,
2021.02.11 16:25:42,30.0,25.0,-25.801651,-11.5513525,-21.419355,-0.343609,1.113543,8.975399,0.13814527,0.007766867,0.031458724,-0.12334594130516052,0.03826473653316498,1.8953953981399536,1015.0454,
2021.02.11 16:25:42,30.0,25.0,-26.0438,-11.575358,-21.648756,0.25800273,0.9372823,9.496688,-0.113998145,-0.010753237,0.10561229,-0.09834105521440506,-0.027160972356796265,1.9220659732818604,1015.0454,
2021.02.11 16:25:42,30.0,25.0,-26.02945,-9.464326,-21.974344,0.37396035,0.9047179,9.783057,-0.075187266,0.050535787,0.046783056,-0.09214883297681808,-0.03820670396089554,1.8535115718841553,1015.04425,
2021.02.11 16:25:42,30.0,25.0,-26.662529,-10.939557,-20.83251,0.057860523,1.0280923,9.764676,-0.089628704,-0.060970757,0.0044294866,-0.10489856451749802,-0.00592542439699173,1.8869551420211792,1015.04376,
2021.02.11 16:25:42,30.0,25.0,-25.693207,-9.710349,-21.46525,0.3336893,0.85044605,9.801547,-0.06598466,-0.04691362,-0.06679004,-0.08649987727403641,-0.03403141349554062,1.8718148469924927,1015.0435,
2021.02.11 16:25:42,30.0,25.0,-25.225082,-10.597186,-21.39438,0.24811679,0.773416,10.056327,0.08011775,0.012450746,-0.0708973,-0.0767340436577797,-0.02466770075261593,1.9160091876983643,1015.0435,
2021.02.11 16:25:42,30.0,25.0,-25.675941,-10.370952,-20.826155,-0.08476678,0.8583887,9.644366,-0.012032181,-0.023176134,-0.022303803,-0.08876683562994003,0.008789027109742165,1.8885256052017212,1015.0435,
2021.02.11 16:25:42,30.0,25.0,-25.946571,-11.367732,-21.3448,0.3233925,0.6712949,10.015184,-0.0672296,0.035415035,0.015201491,-0.0668928474187851,-0.03227900341153145,1.9431712627410889,1015.04376,
2021.02.11 16:25:43,30.0,25.0,-26.14598,-10.342477,-21.85621,-0.10586306,1.058019,9.679305,0.016209323,-0.004317976,-0.067691974,-0.10886863619089127,0.010936615988612175,1.8630410432815552,1015.0441,
2021.02.11 16:25:43,30.0,25.0,-25.91301,-11.257001,-21.371618,0.07710538,0.83271956,10.12164,0.013686395,0.085801184,0.031104337,-0.08208396285772324,-0.00761772645637393,1.9225560426712036,1015.04425,
2021.02.11 16:25:43,30.0,25.0,-25.125664,-11.621972,-21.256792,0.3752582,0.6615804,9.369512,0.045471616,-0.038381625,0.014881047,-0.07043663412332535,-0.04002959281206131,1.9628221988677979,1015.04425,
2021.02.11 16:25:43,30.0,25.0,-25.278893,-9.965358,-22.106512,0.17414479,0.6762224,9.622208,0.004109902,0.065849334,-0.054411735,-0.0701504498720169,-0.018096240237355232,1.8950034379959106,1015.04504,
2021.02.11 16:25:43,30.0,25.0,-26.164055,-11.41392,-22.946081,-0.19325753,0.98139143,9.92706,-0.06177911,-0.011243984,-0.0726705,-0.09852149337530136,0.019465291872620583,1.902105689048767,1015.0454,
2021.02.11 16:25:43,30.0,25.0,-26.026215,-10.469764,-21.920408,-0.18096016,0.9299591,9.69345,0.038389612,0.010300258,0.026550503,-0.09562758356332779,0.01866612583398819,1.8776758909225464,1015.04565,
2021.02.11 16:25:43,30.0,25.0,-26.012817,-11.393266,-21.008131,0.20269932,0.7596919,9.73269,1.5397742E-4,-4.987331E-4,0.060629643,-0.07788093388080597,-0.020823638886213303,1.9327796697616577,1015.04565,
2021.02.11 16:25:43,30.0,25.0,-25.323883,-11.500476,-22.839075,0.19656338,0.78932047,9.725223,0.009030057,0.0053514703,0.02383844,-0.0809682235121727,-0.02020895853638649,1.9384645223617554,1015.04565,
2021.02.11 16:25:43,30.0,25.0,-24.946548,-11.313298,-21.703428,0.009732897,0.84755665,9.7186575,-0.0010711134,-0.011723088,0.011532251,-0.08698910474777222,-0.0010014649014919996,1.9308316707611084,1015.04565,
2021.02.11 16:25:43,30.0,25.0,-26.344093,-10.123061,-22.062841,0.03982686,0.83270985,9.611068,-0.009034631,0.0077599175,0.014806173,-0.08642416447401047,-0.004143829923123121,1.872556209564209,1015.0454,
2021.02.11 16:25:43,30.0,25.0,-26.022621,-10.697379,-21.685316,0.12797083,0.79045993,9.782977,-0.058377735,0.008011887,0.017671997,-0.0806175097823143,-0.013080223463475704,1.9033526182174683,1015.04504,
2021.02.11 16:25:43,30.0,25.0,-24.835846,-9.908095,-21.9261,0.10225121,0.6911052,9.88126,-0.018217696,0.0045561716,-0.0033023818,-0.06982356309890747,-0.010347623378038406,1.897434115409851,1015.04486,
2021.02.11 16:25:43,30.0,25.0,-26.712143,-10.765882,-20.172182,-0.099632464,0.8385474,9.637479,0.036725197,0.010680581,-0.025038762,-0.08678580820560455,0.010337653569877148,1.8934776782989502,1015.04486,
2021.02.11 16:25:43,30.0,25.0,-26.281029,-11.577031,-21.495977,0.04019859,0.7907271,9.732667,-0.009575214,-0.018487977,0.02052465,-0.08106590062379837,-0.004130251705646515,1.9284802675247192,1015.04486,
2021.02.11 16:25:44,30.0,25.0,-26.326385,-11.344266,-21.840456,0.17244495,0.7695753,9.7458105,0.010758313,0.008179636,0.0043196315,-0.07878893613815308,-0.01769241876900196,1.9237308502197266,1015.04486,
2021.02.11 16:25:44,30.0,25.0,-26.648773,-10.530263,-22.39219,0.07347216,0.78816766,9.905416,0.0019533252,0.012354696,-0.023819191,-0.07939989864826202,-0.00741723645478487,1.8883973360061646,1015.04486,
2021.02.11 16:25:44,30.0,25.0,-24.83168,-11.939235,-21.130648,-0.11818542,0.8434327,9.4030485,0.06351473,-0.010538872,-0.036466036,-0.089451365172863,0.012568178586661816,1.951088547706604,1015.04425,
2021.02.11 16:25:44,30.0,25.0,-26.01738,-11.425397,-20.7704,0.16607626,0.8179271,9.5654335,-0.033749077,0.008996307,0.0121692335,-0.08528834581375122,-0.0173603817820549,1.9280794858932495,1015.0441,
2021.02.11 16:25:44,30.0,25.0,-25.79522,-10.378875,-21.370771,0.006279838,0.97516614,9.997157,-0.07391381,0.0027519434,-0.035320457,-0.09723670780658722,-6.281622918322682E-4,1.8806172609329224,1015.044,
2021.02.11 16:25:44,30.0,25.0,-25.026329,-11.647069,-22.549162,0.008962759,0.7729898,9.740216,0.012636921,0.0114055155,-0.009318157,-0.07919462770223618,-9.201804059557617E-4,1.9451721906661987,1015.0435,
2021.02.11 16:25:44,30.0,25.0,-26.008087,-11.444682,-21.401827,-0.029220035,0.7553377,9.736186,0.002080135,0.017441954,-0.023978502,-0.07742501050233841,0.003001169767230749,1.9290282726287842,1015.0435,
2021.02.11 16:25:44,30.0,25.0,-26.05471,-11.383239,-21.920687,-0.0397058,0.85021687,9.777022,0.012388804,0.0047539,-0.008075215,-0.08674179762601852,0.004061111714690924,1.9176685810089111,1015.0435,
2021.02.11 16:25:44,30.0,25.0,-24.45327,-11.610335,-21.654478,-0.07970699,0.81553704,9.692395,0.024100976,-0.0057307654,-5.062176E-4,-0.08394139260053635,0.008223476819694042,1.9484503269195557,1015.0435,
2021.02.11 16:25:44,30.0,25.0,-25.895943,-11.653277,-21.885252,-0.008585292,0.84954065,9.719363,0.009015357,0.009737203,0.01218342,-0.08718541264533997,8.833181345835328E-4,1.9291313886642456,1015.0433,
2021.02.11 16:25:44,30.0,25.0,-25.215218,-10.447492,-21.68513,0.08703347,0.73091334,9.825297,-0.0013635843,0.013552389,0.006481316,-0.07425128668546677,-0.008857869543135166,1.9087443351745605,1015.0431,
2021.02.11 16:25:44,30.0,25.0,-25.71006,-12.49936,-21.842817,-0.049938153,0.8210593,9.660279,0.030376745,0.008619048,-0.023405746,-0.08478841930627823,0.005169385578483343,1.9608433246612549,1015.0431,
2021.02.11 16:25:44,30.0,25.0,-26.149094,-11.304616,-22.010706,0.01784834,0.81590104,9.736995,0.0050267763,0.011346627,-0.03471693,-0.08359849452972412,-0.0018330420134589076,1.9171682596206665,1015.0431,
2021.02.11 16:25:44,30.0,25.0,-26.043716,-12.351712,-22.829802,-0.01820963,0.79870844,9.808619,0.058823574,0.037045155,-0.018767508,-0.08124984800815582,0.0018564907368272543,1.952214241027832,1015.0431,
2021.02.11 16:25:44,30.0,25.0,-25.145226,-11.550736,-21.874586,-0.096063636,0.7916124,9.971295,-0.045650724,2.1292837E-4,-0.03289856,-0.07921930402517319,0.00963371992111206,1.93971586227417,1015.0433,
2021.02.11 16:25:45,30.0,25.0,-24.999252,-11.400195,-21.469694,-0.16377299,0.8844426,9.41636,0.07461811,-0.002559062,-0.009850146,-0.09363733977079391,0.01739063486456871,1.925083041191101,1015.0435,
2021.02.11 16:25:45,30.0,25.0,-24.690605,-11.442399,-21.602026,-0.08619621,0.8885217,9.688916,-0.059300926,-0.035440672,0.011230888,-0.09144557267427444,0.008896137587726116,1.9334861040115356,1015.0435,
2021.02.11 16:25:45,30.0,25.0,-26.524582,-11.738559,-22.376963,-0.003173779,0.87371373,9.988291,-0.03203403,0.004821914,0.016012931,-0.0872517079114914,3.1774997478350997E-4,1.9227858781814575,1015.0438,
2021.02.11 16:25:45,30.0,25.0,-25.191704,-10.784141,-21.89815,-0.043720353,0.8160922,9.499245,0.027316554,-0.009098722,0.0010333483,-0.08569993823766708,0.004602476023137569,1.908452033996582,1015.044,
2021.02.11 16:25:45,30.0,25.0,-26.748878,-11.006944,-20.75131,0.0550826,0.8323178,9.891446,-0.049542006,0.0057687154,0.00300054,-0.08394616097211838,-0.005568652879446745,1.9039297103881836,1015.04425,
2021.02.11 16:25:45,30.0,25.0,-25.558144,-12.418078,-22.364248,-0.022738403,0.8278188,9.871968,0.008404018,0.0071172,-0.0276302,-0.08365955203771591,0.0023033260367810726,1.9602558612823486,1015.0444,
2021.02.11 16:25:45,30.0,25.0,-24.032738,-11.167741,-22.369875,-0.08472546,0.7754585,9.539866,-0.030236922,-0.008990396,-0.0092056375,-0.0811045914888382,0.00888096634298563,1.9385696649551392,1015.0444,
2021.02.11 16:25:45,30.0,25.0,-25.610764,-11.373059,-21.481447,0.027818898,0.74101096,9.78806,0.018793909,-0.0048105107,-0.002718074,-0.07556115835905075,-0.0028421180322766304,1.9341024160385132,1015.04443,
2021.02.11 16:25:45,30.0,25.0,-25.002037,-11.452685,-21.51655,-0.14061594,0.85691255,9.592351,0.027448108,-0.0068372274,-0.024395073,-0.0890868753194809,0.014658123254776001,1.930700659751892,1015.04456,
2021.02.11 16:25:45,30.0,25.0,-25.192062,-12.508391,-22.944906,-0.07291212,0.8756142,9.840623,-0.02339536,-0.020377928,0.0066369884,-0.0887434110045433,0.007409163750708103,1.961380124092102,1015.0448,
2021.02.11 16:25:45,30.0,25.0,-24.322487,-10.822608,-21.770643,0.0037594188,0.80213803,9.750726,0.024246683,-0.009696681,0.011627827,-0.08207961916923523,-3.8555270293727517E-4,1.925330638885498,1015.0448,
2021.02.11 16:25:45,30.0,25.0,-25.858864,-11.512013,-22.068113,-0.047475994,0.826349,9.634113,0.012833167,-0.011433294,5.440966E-4,-0.08556276559829712,0.004927865229547024,1.9247360229492188,1015.0448,
2021.02.11 16:25:45,30.0,25.0,-25.390823,-11.628699,-22.138895,-0.018754354,0.84055704,9.762286,-0.015878664,-0.0032384438,0.004273656,-0.08589049428701401,0.0019211003091186285,1.9348424673080444,1015.0448,
2021.02.11 16:25:46,30.0,25.0,-25.14582,-12.180448,-21.40027,-0.054065462,0.8599777,9.792792,0.0017500293,0.0075562987,-0.0036054994,-0.08759137988090515,0.005520888138562441,1.957036018371582,1015.0448,
2021.02.11 16:25:46,30.0,25.0,-25.239113,-11.262244,-22.179403,-0.025254473,0.8459266,9.651241,0.010916667,0.008085001,0.002840611,-0.08742578327655792,0.0026167011819779873,1.9226881265640259,1015.0448,
2021.02.11 16:25:46,30.0,25.0,-25.402786,-11.822164,-21.848085,-0.004145354,0.85266113,9.762386,-0.015038716,-0.0024518382,-1.2858678E-4,-0.08712036907672882,4.246250609867275E-4,1.9415096044540405,1015.0448,
2021.02.11 16:25:46,30.0,25.0,-25.740646,-11.321155,-22.067373,-0.02226833,0.85504675,9.729529,0.00891638,0.0096153235,-0.0041618594,-0.08765619248151779,0.0022887326776981354,1.9186221361160278,1015.0448,
2021.02.11 16:25:46,30.0,25.0,-25.64032,-10.72416,-21.391138,-0.03798673,0.83023185,9.651327,-0.0063673044,0.0010602112,-0.0080445735,-0.08581064641475677,0.003935887478291988,1.9024935960769653,1015.0448,
2021.02.11 16:25:46,30.0,25.0,-25.27974,-12.747626,-22.187193,-0.040721063,0.8773265,9.728625,-0.018443836,-0.0030557495,-0.0045203296,-0.08993584662675858,0.004185671452432871,1.9703154563903809,1015.0449,
2021.02.11 16:25:46,30.0,25.0,-24.992905,-11.096303,-22.03335,-0.025254017,0.8433737,9.842513,-0.010505141,-0.0036560707,-0.001986619,-0.08547776937484741,0.0025658041704446077,1.922080636024475,1015.0454,
2021.02.11 16:25:46,30.0,25.0,-26.551476,-11.776534,-21.427828,-0.09717599,0.8858409,9.571304,-0.032855015,-0.01041748,0.0027968467,-0.09228409826755524,0.010152499191462994,1.920986533164978,1015.0454,
2021.02.11 16:25:46,30.0,25.0,-25.2341,-11.669782,-21.009405,-0.04840626,0.8381009,9.820736,0.024310404,0.0074505704,1.3479497E-4,-0.08513262122869492,0.00492894509807229,1.9416285753250122,1015.0454,
2021.02.11 16:25:46,30.0,25.0,-25.551682,-12.129567,-22.430986,-0.13895948,0.8981686,9.709884,-0.0019187075,0.007095703,0.015806863,-0.09222859144210815,0.014310160651803017,1.9412001371383667,1015.0454,
2021.02.11 16:25:46,30.0,25.0,-26.047241,-12.21795,-19.876993,-0.024862012,0.8611951,9.707953,0.01509212,0.0068646665,0.0023204174,-0.08847836405038834,0.0025609885342419147,1.950656533241272,1015.0454,
2021.02.11 16:25:46,30.0,25.0,-24.691193,-11.854331,-21.80453,-0.036249172,0.82894915,9.742814,3.1225896E-4,0.0064818976,0.0016565265,-0.08487813174724579,0.0037205887492746115,1.9534616470336914,1015.0454,
2021.02.11 16:25:46,30.0,25.0,-24.606255,-12.27085,-21.632227,-0.09930179,0.85637873,9.60878,5.01418E-4,-0.001475224,-0.015671823,-0.08888502418994904,0.010334117338061333,1.9648882150650024,1015.0454,
2021.02.11 16:25:46,30.0,25.0,-26.24237,-12.87713,-22.11717,-0.059308287,0.8605797,9.7597685,-0.023069382,0.0076401,-0.001809353,-0.08794716000556946,0.006076738238334656,1.962632656097412,1015.0454,
2021.02.11 16:25:46,30.0,25.0,-26.831726,-11.844407,-21.91649,-0.066859774,0.8513624,9.798683,-0.0070926156,6.0268317E-4,-0.0018961779,-0.08666573464870453,0.006823237054049969,1.9230873584747314,1015.0456,
2021.02.11 16:25:47,30.0,25.0,-25.044312,-11.760144,-22.337484,-0.111259125,0.861043,9.67703,0.0067909323,0.0037582938,-0.011822058,-0.08873847872018814,0.011496732011437416,1.9389808177947998,1015.04584,
2021.02.11 16:25:47,30.0,25.0,-24.96975,-11.195333,-21.146418,-0.054955497,0.8348457,9.692393,-0.014583744,0.006002699,-0.00814663,-0.08592067658901215,0.005669900681823492,1.9275760650634766,1015.0459,
2021.02.11 16:25:47,30.0,25.0,-26.311684,-10.629769,-23.009993,-0.054143127,0.87111884,9.817992,0.008610884,0.0032844334,-0.013739077,-0.0884936973452568,0.005514628253877163,1.884174108505249,1015.0462,
2021.02.11 16:25:47,30.0,25.0,-24.004448,-11.540477,-22.448423,-0.10479512,0.8518258,9.639469,0.010354532,9.2550064E-4,-0.016768184,-0.08813440054655075,0.010871034115552902,1.9457449913024902,1015.0463,
2021.02.11 16:25:47,30.0,25.0,-25.49794,-12.413032,-21.62282,-0.10947082,0.8034041,9.872622,-0.015661532,1.3633748E-5,-0.0073045483,-0.08119308203458786,0.011087869293987751,1.9628727436065674,1015.0464,
2021.02.11 16:25:47,30.0,25.0,-25.260452,-11.641683,-21.465189,-0.18447737,0.8456896,9.577937,0.025489405,-0.00312263,-0.010604123,-0.0880509614944458,0.019258277490735054,1.9338701963424683,1015.04694,
2021.02.11 16:25:47,30.0,25.0,-24.735687,-11.999654,-22.009432,-0.015197729,0.7770233,9.776726,0.007551855,-0.0035943103,-0.008622872,-0.07931003719568253,0.0015544791240245104,1.9621585607528687,1015.04736,
2021.02.11 16:25:47,30.0,25.0,-26.25351,-11.260331,-21.34276,-0.0581158,0.8131717,9.687155,0.0072809323,0.0029627567,0.01337706,-0.08374545723199844,0.005999192129820585,1.9147274494171143,1015.0475,
2021.02.11 16:25:47,30.0,25.0,-25.355278,-10.850053,-21.972136,-0.08486974,0.817436,9.746717,-0.0036739497,-0.0036531475,0.0015375267,-0.08366885036230087,0.008707300759851933,1.909332275390625,1015.0475,
2021.02.11 16:25:47,30.0,25.0,-24.861397,-12.360515,-21.814981,-0.14891793,0.8906606,9.730153,0.0058238925,-0.0011090345,0.0047218027,-0.09127112478017807,0.015303593128919601,1.9608042240142822,1015.0478,
2021.02.11 16:25:47,30.0,25.0,-25.764214,-11.514039,-22.25876,0.034052353,0.78717405,9.768214,-2.9834104E-4,0.0017542208,0.014748923,-0.08041100949048996,-0.0034860228188335896,1.9312481880187988,1015.0478,
2021.02.11 16:25:47,30.0,25.0,-23.427315,-11.714278,-22.173574,-0.1613668,0.8523541,9.676823,0.01678459,-0.005616086,-0.01638018,-0.08784313499927521,0.01667405292391777,1.9599984884262085,1015.04785,
2021.02.11 16:25:48,30.0,25.0,-24.902931,-12.669244,-21.670729,-0.10949921,0.872772,9.735274,-0.005915954,-0.0026944668,0.01150833,-0.08940581977367401,0.011247201822698116,1.973414659500122,1015.04803,
2021.02.11 16:25:48,30.0,25.0,-25.13855,-11.488168,-21.388605,-0.015940117,0.77526206,9.725993,0.0029031262,-0.002144967,-0.014608917,-0.07954204082489014,0.0016389177180826664,1.9405103921890259,1015.04803,
2021.02.11 16:25:48,30.0,25.0,-25.347176,-11.314506,-22.511183,-0.17723995,0.89705056,9.797978,-0.0046551805,0.0080564665,0.015103725,-0.09128527343273163,0.018087467178702354,1.9159177541732788,1015.04785,
2021.02.11 16:25:48,30.0,25.0,-23.945488,-11.819242,-22.584406,0.116337,0.78777885,9.606156,0.009133555,0.005830459,0.028761558,-0.08181863278150558,-0.01211007870733738,1.9673060178756714,1015.0478,
2021.02.11 16:25:48,30.0,25.0,-25.180992,-11.402438,-22.755198,-0.08933455,0.8475702,10.082427,-0.040311225,0.009382371,-0.035481405,-0.08386363834142685,0.008860188536345959,1.928078293800354,1015.0478,
2021.02.11 16:25:48,30.0,25.0,-24.087242,-11.106572,-21.407984,-0.3634684,0.89498097,9.371823,0.09781505,4.6815563E-4,-0.015884325,-0.09513718634843826,0.038763679563999176,1.9216521978378296,1015.0475,
2021.02.11 16:25:48,30.0,25.0,-25.630547,-11.423619,-21.81339,-0.075265326,0.84153795,9.818521,-0.05817858,-0.012138713,0.04174907,-0.08549778163433075,0.007665498182177544,1.9248729944229126,1015.0475,
2021.02.11 16:25:48,30.0,25.0,-25.830353,-13.005191,-21.588163,0.11142502,0.7877309,9.801288,0.013614677,-0.0026826425,0.014260375,-0.08019259572029114,-0.01136791706085205,1.983795404434204,1015.0475,
2021.02.11 16:25:48,30.0,25.0,-24.847939,-11.242539,-22.356596,-0.19374256,0.8534786,9.59147,-0.024583915,0.0062742275,0.00133167,-0.08873133361339569,0.020196719095110893,1.9218038320541382,1015.04736,
2021.02.11 16:25:48,30.0,25.0,-24.361473,-11.625054,-23.780207,-0.22640048,0.88125104,9.701211,-0.043667007,0.012219257,0.019569842,-0.09056612849235535,0.02333310805261135,1.934399127960205,1015.04736,
2021.02.11 16:25:48,30.0,25.0,-25.195381,-11.481627,-21.973055,-0.054484498,0.8111238,9.824708,-0.010813282,-0.017043334,-0.0091854725,-0.08237150311470032,0.005545604042708874,1.9348373413085938,1015.04663,
2021.02.11 16:25:48,30.0,25.0,-25.657463,-11.753596,-21.456514,-0.03410789,0.86470956,9.786628,0.01713458,-0.039012644,-0.0014551679,-0.08812683820724487,0.0034851382952183485,1.9356138706207275,1015.0464,
2021.02.11 16:25:48,30.0,25.0,-25.731499,-12.072581,-23.549574,-0.18212128,0.8746233,9.644428,0.023102427,-0.039327346,-0.009614523,-0.09042348712682724,0.018881330266594887,1.933802843093872,1015.0464,
2021.02.11 16:25:48,30.0,25.0,-25.188927,-11.037068,-22.180601,-0.14867978,0.84500426,9.971611,0.01743934,-0.06439848,0.019131767,-0.08452967554330826,0.014909202232956886,1.915339708328247,1015.04596,
2021.02.11 16:25:49,30.0,25.0,-24.233253,-12.0196905,-21.403471,0.15614124,0.7593892,9.949818,0.10948576,-0.1933146,0.019717077,-0.07616490870714188,-0.015691585838794708,1.9787609577178955,1015.04584,
2021.02.11 16:25:49,30.0,25.0,-24.330826,-11.843463,-21.397959,0.5438579,1.0741218,8.784638,0.1406843,-0.29529965,-0.102031134,-0.12143858522176743,-0.06183118745684624,1.9438496828079224,1015.04596,
