Time,X-cord,Y-cord,Mag_x,Mag_y,Mag_z,Acc_x,Acc_y,Acc_z,Gyro_x,Gyro_y,Gyro_z,Orn_x,Orn_y,Orn_z,Pressure,
2021.02.11 12:32:57,50.0,13.0,-6.8999996,16.26,-27.779999,-0.51716334,0.21787901,9.517242,-0.08775079,0.068985015,0.085848555,-0.022855376824736595,0.054286226630210876,0.4615887999534607,1019.10205,
2021.02.11 12:32:57,50.0,13.0,-6.12,15.78,-27.72,-0.43096948,0.11013664,10.285805,-0.09874637,0.013396274,0.08645943,-0.01069783978164196,0.041874948889017105,0.4250446856021881,1019.1089,
2021.02.11 12:32:57,50.0,13.0,-5.22,15.299999,-28.619999,-0.13168511,0.13886794,10.099051,-0.01872302,-0.02203391,0.10661797,-0.01374855823814869,0.013038614764809608,0.3423886299133301,1019.1089,
2021.02.11 12:32:57,50.0,13.0,-4.5,15.059999,-29.82,-0.2777359,0.021548472,10.0439825,-0.015668694,-0.006151413,0.05713789,-0.0021445881575345993,0.027644922956824303,0.33839842677116394,1019.10425,
2021.02.11 12:32:57,50.0,13.0,-3.3,14.4,-30.779999,-0.2777359,-0.14844504,10.106234,-0.004062254,-0.011649201,0.01620992,0.014681863598525524,0.027474727481603622,0.2888173460960388,1019.0996,
2021.02.11 12:32:57,50.0,13.0,-3.12,14.4,-31.5,-0.2466103,0.2083019,10.00328,0.013041973,-0.004318817,0.03392501,-0.02081403136253357,0.024647951126098633,0.25326046347618103,1019.0996,
2021.02.11 12:32:57,50.0,13.0,-3.06,14.46,-31.74,-0.4860378,0.13647367,10.240314,0.027091874,-0.0012644911,-0.0063920943,-0.013311325572431087,0.04742757976055145,0.2974703907966614,1019.1028,
2021.02.11 12:32:57,50.0,13.0,-2.76,14.28,-31.859999,-0.6296943,-0.08619389,10.008069,0.052748214,0.021337522,0.007657807,0.008595230989158154,0.06283582746982574,0.32726362347602844,1019.1028,
2021.02.11 12:32:57,50.0,13.0,-3.06,14.639999,-32.04,-0.38787252,0.0071828244,9.955395,0.05030475,0.0030115657,0.09317894,-7.20953568816185E-4,0.03894134238362312,0.28557440638542175,1019.10034,
2021.02.11 12:32:57,50.0,13.0,-2.9399998,14.34,-31.859999,-0.18196489,-0.07422252,9.835681,0.053969946,-0.024477372,0.0956224,0.007544816937297583,0.0184983778744936,0.2452392876148224,1019.1018,
2021.02.11 12:32:57,50.0,13.0,-3.24,14.28,-31.56,-0.25379312,-0.0071828244,10.00328,-0.01872302,0.004233296,0.06630088,7.178158266469836E-4,0.025365550071001053,0.27608463168144226,1019.1018,
2021.02.11 12:32:57,50.0,13.0,-2.82,13.92,-31.5,-0.37350687,0.31843856,10.156514,-0.013225232,-0.007984009,0.03392501,-0.03132170811295509,0.03675854206085205,0.2608238458633423,1019.10767,
2021.02.11 12:32:57,50.0,13.0,-2.52,13.62,-31.32,-0.37829542,0.16041641,10.228342,0.013652838,-0.015925257,0.014377324,-0.015671519562602043,0.0369681715965271,0.2548956871032715,1019.10767,
2021.02.11 12:32:57,50.0,13.0,-2.28,13.74,-31.38,-0.33759275,0.011971374,10.1206,0.03381139,-0.0049296827,0.058359623,-0.0011822138912975788,0.03334462642669678,0.2368086725473404,1019.0991,
2021.02.11 12:32:57,50.0,13.0,-1.9799999,13.86,-31.5,-0.08619389,0.14605077,10.113417,0.057635136,-0.0049296827,0.06996606,-0.014439759775996208,0.008522520773112774,0.15581214427947998,1019.1057,
2021.02.11 12:32:57,50.0,13.0,-2.22,14.099999,-31.619999,-0.13647367,0.15323359,10.041589,0.049693886,-0.0140926605,0.02781636,-0.015257302671670914,0.013590008020401001,0.1797565221786499,1019.1057,
2021.02.11 12:32:57,50.0,13.0,-2.34,14.28,-31.8,-0.15323359,0.12929083,9.955395,0.068019845,-0.0024862215,9.3828904E-4,-0.012984744273126125,0.015390799380838871,0.19024448096752167,1019.11084,
2021.02.11 12:32:57,50.0,13.0,-2.52,14.219999,-31.74,-0.083799616,0.16520496,9.857229,0.03747658,-0.018368717,-0.014944207,-0.016757601872086525,0.00850113108754158,0.18693266808986664,1019.11084,
2021.02.11 12:32:58,50.0,13.0,-2.46,13.86,-31.679998,-0.16520496,0.18914771,9.976943,0.019150626,-0.030586023,-0.041211415,-0.018953613936901093,0.01655716262757778,0.20355704426765442,1019.1118,
2021.02.11 12:32:58,50.0,13.0,-2.34,13.86,-31.679998,-0.17238778,0.2466103,9.933846,-0.00833831,-0.017146988,-0.045487467,-0.024816423654556274,0.01735183596611023,0.1948450356721878,1019.104,
2021.02.11 12:32:58,50.0,13.0,-2.34,14.219999,-31.859999,-0.11253092,0.23463893,10.091868,-0.029107729,-0.018979583,-0.047320064,-0.023244664072990417,0.01115018967539072,0.17828784883022308,1019.104,
2021.02.11 12:32:58,50.0,13.0,-2.58,14.099999,-31.5,-0.18196489,0.25139886,9.8787775,-0.03155119,-0.02081218,-0.03510276,-0.025438573211431503,0.01841769553720951,0.20902764797210693,1019.1079,
2021.02.11 12:32:58,50.0,13.0,-3.3,14.58,-31.38,-0.24900457,0.1987248,10.170879,-0.06759224,-0.009205739,-0.044876605,-0.019530272111296654,0.024477219209074974,0.2616361081600189,1019.1079,
2021.02.11 12:32:58,50.0,13.0,-3.78,14.5199995,-30.9,-0.22266756,0.38547826,10.307353,-0.03643811,-0.009816605,-0.019831128,-0.03737224265933037,0.021599428728222847,0.27663978934288025,1019.1113,
2021.02.11 12:32:58,50.0,13.0,-3.78,14.04,-30.48,-0.11492519,0.20111908,9.996098,-0.007727445,-0.025088236,-0.013722477,-0.020115716382861137,0.011496499180793762,0.2748018801212311,1019.1135,
2021.02.11 12:32:58,50.0,13.0,-3.78,14.28,-30.359999,-0.1699935,0.19154198,9.979338,0.008155052,-0.014703526,-0.016776804,-0.019188717007637024,0.01703290082514286,0.2814847230911255,1019.1135,
2021.02.11 12:32:58,50.0,13.0,-3.6599998,14.16,-30.179998,-0.2681588,0.15323359,9.953,0.008765915,-0.025088236,-0.00944642,-0.015388917177915573,0.026935992762446404,0.2967933118343353,1019.10864,
2021.02.11 12:32:58,50.0,13.0,-3.78,14.28,-29.82,-0.12450229,0.13168511,9.850046,0.015485434,-0.018979583,0.0394228,-0.013367119245231152,0.012639094144105911,0.275983601808548,1019.104,
2021.02.11 12:32:58,50.0,13.0,-4.08,14.46,-29.939999,0.12689656,0.28731298,10.0439825,0.00571159,-0.021423044,0.046753183,-0.02859540469944477,-0.01263341587036848,0.23719154298305511,1019.104,
2021.02.11 12:32:58,50.0,13.0,-4.5,14.5199995,-30.06,-0.0047885496,0.31365,10.175668,0.013041973,-0.005540548,-0.012500747,-0.030813774093985558,4.705882165580988E-4,0.2844540476799011,1019.0996,
2021.02.11 12:32:58,50.0,13.0,-4.2,14.28,-30.24,-0.045491222,0.22027329,9.924269,0.047250427,-0.015314392,-0.02105286,-0.022191541269421577,0.004583804402500391,0.2824993431568146,1019.0996,
2021.02.11 12:32:58,50.0,13.0,-4.14,14.219999,-30.66,-0.28970724,0.14844504,9.943423,0.036254853,-0.004318817,-0.03143757,-0.014921527355909348,0.029127324000000954,0.33030402660369873,1019.0979,
2021.02.11 12:32:58,50.0,13.0,-4.14,14.34,-30.84,-0.2944958,0.2466103,9.866806,-0.007727445,0.01767233,0.016820785,-0.024977613240480423,0.02983826771378517,0.3231874108314514,1019.0979,
2021.02.11 12:32:58,50.0,13.0,-3.8999999,14.639999,-30.599998,-0.15323359,0.31125572,10.039194,-0.022999076,-0.0012644911,0.03270328,-0.030990518629550934,0.015262349508702755,0.27326980233192444,1019.1084,
2021.02.11 12:32:59,50.0,13.0,-4.02,15.36,-30.66,-0.062251143,0.32801566,10.07032,-0.0052839844,0.04393954,0.015599055,-0.032560382038354874,0.006181566510349512,0.2519986033439636,1019.1138,
2021.02.11 12:32:59,50.0,13.0,-3.9599998,15.299999,-30.599998,-0.062251143,0.29928434,10.190034,0.03320053,0.03599829,0.005214346,-0.029361309483647346,0.00610894663259387,0.25073137879371643,1019.1138,
2021.02.11 12:32:59,50.0,13.0,-4.02,15.24,-30.599998,-0.12929083,0.19154198,10.075109,0.029535336,0.018283198,0.007657807,-0.019007550552487373,0.012831994332373142,0.27203115820884705,1019.10767,
2021.02.11 12:32:59,50.0,13.0,-3.72,14.88,-30.96,-0.30646718,0.1987248,10.139753,0.055191673,0.040274344,0.0039926153,-0.019587133079767227,0.030215123668313026,0.2920081913471222,1019.10767,
2021.02.11 12:32:59,50.0,13.0,-3.72,14.46,-31.08,-0.12929083,0.38547826,9.828498,0.16575828,0.017061466,0.05713789,-0.039196986705064774,0.013153931125998497,0.25769227743148804,1019.10815,
2021.02.11 12:32:59,50.0,13.0,-3.72,14.46,-31.26,-0.083799616,0.35435268,9.979338,0.08878926,-0.012870931,0.02903809,-0.03549247235059738,0.008397115394473076,0.25057265162467957,1019.12134,
2021.02.11 12:32:59,50.0,13.0,-3.9599998,14.099999,-31.619999,-0.2083019,0.36392978,9.883567,0.0460287,-0.0049296827,0.008879538,-0.03679691255092621,0.02107246033847332,0.29447805881500244,1019.12134,
2021.02.11 12:32:59,50.0,13.0,-4.2,14.099999,-31.38,-0.16759923,0.39266106,9.921875,0.022815816,0.009731083,0.0015491543,-0.03954900801181793,0.016890283674001694,0.2993021607398987,1019.11206,
2021.02.11 12:32:59,50.0,13.0,-4.3199997,13.679999,-31.08,-0.1340794,0.4189981,10.032011,-0.00589485,0.022559253,-0.016776804,-0.04173813387751579,0.01336436066776514,0.30648621916770935,1019.11206,
2021.02.11 12:32:59,50.0,13.0,-3.84,13.44,-31.08,-0.28970724,0.4070267,9.842864,0.0069333203,0.012174544,-0.015555073,-0.04131104797124863,0.02942473068833351,0.31256964802742004,1019.1128,
2021.02.11 12:32:59,50.0,13.0,-3.1799998,13.559999,-30.84,-0.24182175,0.37111259,10.060742,-0.025442537,5.681047E-4,0.008268672,-0.03685984015464783,0.024031545966863632,0.26088032126426697,1019.11206,
2021.02.11 12:32:59,50.0,13.0,-2.76,13.139999,-31.38,-0.14365649,0.47167215,9.974549,-0.00711658,0.0030115657,0.01498819,-0.047247469425201416,0.014401309192180634,0.2164476364850998,1019.11206,
2021.02.11 12:32:59,50.0,13.0,-2.58,13.259999,-31.38,-0.17478207,0.44294083,10.024829,-0.013836098,0.0017898352,-0.0063920943,-0.04414895921945572,0.017433151602745056,0.21054884791374207,1019.1079,
2021.02.11 12:32:59,50.0,13.0,-2.9399998,13.44,-31.199999,-0.22506183,0.43815228,10.139753,-0.010170906,-0.0012644911,-0.010668151,-0.04317384958267212,0.022192344069480896,0.2410808801651001,1019.1079,
2021.02.11 12:32:59,50.0,13.0,-3.3,13.259999,-31.019999,-0.26337022,0.4285752,9.984126,0.0160963,-0.003097087,-0.010668151,-0.04288441687822342,0.026372777298092842,0.2753148078918457,1019.10913,
2021.02.11 12:32:59,50.0,13.0,-4.2,13.74,-30.24,-0.21069619,0.44054657,10.032011,0.009987647,-0.009205739,-0.0027269025,-0.043876226991415024,0.020999299362301826,0.3108094334602356,1019.1096,
2021.02.11 12:32:59,50.0,13.0,-4.44,14.16,-30.179998,-0.2083019,0.44772938,9.98652,0.028924469,-0.022644775,-0.0051703635,-0.044793643057346344,0.020855283364653587,0.3161717653274536,1019.1096,
2021.02.11 12:33:00,50.0,13.0,-4.74,14.58,-29.76,-0.18675344,0.4285752,9.972155,0.023426682,-0.017757852,-0.0045594983,-0.04294323921203613,0.018725302070379257,0.3226798474788666,1019.124,
2021.02.11 12:33:00,50.0,13.0,-5.04,15.059999,-29.039999,-0.18435916,0.43096948,9.960183,0.009376781,-0.003707952,-2.8344148E-4,-0.04323485866189003,0.018507501110434532,0.3296976387500763,1019.124,
2021.02.11 12:33:00,50.0,13.0,-4.38,15.12,-30.06,-0.15323359,0.48124924,10.204399,0.01853976,-0.0018753563,0.00338175,-0.04712073132395744,0.015015295706689358,0.28455933928489685,1019.12744,
2021.02.11 12:33:00,50.0,13.0,-4.2,14.639999,-30.66,-0.09337672,0.52674043,9.895537,0.039920043,0.00117897,0.006436076,-0.053177546709775925,0.009435964748263359,0.2695818245410919,1019.1189,
2021.02.11 12:33:00,50.0,13.0,-3.72,14.16,-31.5,-0.18435916,0.46209505,10.065532,0.016707165,0.0072876224,-0.019831128,-0.04586876183748245,0.01831384189426899,0.2689657509326935,1019.1189,
2021.02.11 12:33:00,50.0,13.0,-3.12,13.74,-32.52,-0.22745611,0.50040346,10.05356,0.024648413,-0.0012644911,-0.010668151,-0.04972001165151596,0.02262057363986969,0.24626269936561584,1019.11475,
2021.02.11 12:33:00,50.0,13.0,-2.76,13.679999,-32.399998,-0.19633053,0.52913475,10.0200405,0.0142637035,0.0030115657,-0.0033377677,-0.052748531103134155,0.019591279327869415,0.2173977792263031,1019.11475,
2021.02.11 12:33:00,50.0,13.0,-2.58,13.74,-32.28,-0.14126222,0.50758624,9.957788,0.015485434,0.0060658916,0.006436076,-0.050924595445394516,0.014185152016580105,0.19520173966884613,1019.1113,
2021.02.11 12:33:00,50.0,13.0,-2.28,13.92,-32.1,-0.17238778,0.55307746,9.974549,0.017928895,0.004233296,-8.943067E-4,-0.055383894592523575,0.017281044274568558,0.17890802025794983,1019.10986,
2021.02.11 12:33:00,50.0,13.0,-2.1599998,13.799999,-32.64,-0.15802214,0.5554718,10.096657,0.012431107,5.681047E-4,-0.0057812287,-0.05495328828692436,0.01564965955913067,0.16986562311649323,1019.10986,
2021.02.11 12:33:00,50.0,13.0,-2.22,13.799999,-32.76,-0.21548474,0.58420306,9.79019,0.011209377,0.009120218,-0.018609397,-0.05958721786737442,0.022006718441843987,0.18487316370010376,1019.1074,
2021.02.11 12:33:00,50.0,13.0,-2.04,13.98,-32.7,-0.28731298,0.4764607,10.0368,-0.024831673,0.01400714,-0.018609397,-0.04741636663675308,0.028618138283491135,0.1894908845424652,1019.1074,
2021.02.11 12:33:00,50.0,13.0,-2.3999999,14.04,-33.0,-0.11971374,0.5554718,9.948212,-0.004673119,0.0066767572,0.019264245,-0.055774394422769547,0.012033113278448582,0.17459799349308014,1019.10864,
2021.02.11 12:33:00,50.0,13.0,-2.7,14.46,-32.399998,-0.18914771,0.5889916,9.979338,-0.017501289,0.0164506,3.2742377E-4,-0.05894216150045395,0.018951665610074997,0.20007048547267914,1019.10864,
2021.02.11 12:33:00,50.0,13.0,-3.3,14.28,-31.859999,-0.2370332,0.55786604,10.151725,-0.0022296582,0.0072876224,-0.016165938,-0.05488268658518791,0.023344816640019417,0.24747268855571747,1019.10864,
2021.02.11 12:33:00,50.0,13.0,-3.6,14.4,-32.04,-0.23463893,0.4860378,9.912297,0.0051007248,0.01400714,-0.008835555,-0.04898087680339813,0.023667078465223312,0.2667233645915985,1019.10864,
2021.02.11 12:33:00,50.0,13.0,-3.4199998,14.34,-31.98,-0.13886794,0.5363176,10.125388,0.0032681292,5.681047E-4,9.3828904E-4,-0.05291318893432617,0.013713967055082321,0.23649908602237701,1019.10864,
2021.02.11 12:33:01,50.0,13.0,-2.82,13.98,-32.52,-0.11253092,0.5698374,9.845258,0.021594085,-0.0049296827,-0.0045594983,-0.057811107486486435,0.01142946444451809,0.19889919459819794,1019.1133,
2021.02.11 12:33:01,50.0,13.0,-2.34,13.98,-32.7,-0.26337022,0.46209505,10.170879,-3.9706242E-4,-0.011038335,-0.027772376,-0.04538672789931297,0.025888752192258835,0.20339462161064148,1019.1199,
2021.02.11 12:33:01,50.0,13.0,-1.86,13.74,-32.88,-0.22985038,0.48124924,9.893144,0.0051007248,-0.01042747,0.0046034805,-0.048593319952487946,0.023229122161865234,0.1696004718542099,1019.1199,
2021.02.11 12:33:01,50.0,13.0,-1.8,13.38,-33.239998,-0.15083931,0.5363176,9.981731,-0.0107817715,-0.0024862215,3.2742377E-4,-0.0536721833050251,0.015110387466847897,0.1508723646402359,1019.1135,
2021.02.11 12:33:01,50.0,13.0,-2.1,13.5,-33.059998,-0.23463893,0.4860378,9.93624,0.0032681292,-0.004318817,-0.003948633,-0.04886310547590256,0.02361007034778595,0.18850934505462646,1019.1113,
2021.02.11 12:33:01,50.0,13.0,-1.9799999,13.38,-33.48,-0.24182175,0.50040346,9.998491,-0.0089491755,-6.536258E-4,-0.013722477,-0.04999157786369324,0.02418111078441143,0.18342967331409454,1019.1113,
2021.02.11 12:33:01,50.0,13.0,-2.28,13.139999,-33.239998,-0.27055305,0.5123748,10.046377,-0.014446964,-4.2760566E-5,-0.010057285,-0.05093836411833763,0.026923902332782745,0.2110988348722458,1019.11694,
2021.02.11 12:33:01,50.0,13.0,-2.6399999,13.32,-32.76,-0.25858167,0.4740664,9.972155,0.009987647,0.004233296,0.008879538,-0.04748731106519699,0.0259245615452528,0.2306252419948578,1019.11694,
2021.02.11 12:33:01,50.0,13.0,-2.6399999,13.32,-32.94,-0.12450229,0.4956149,10.010463,-0.00711658,0.0054550264,0.01620992,-0.049465473741292953,0.012436574324965477,0.2014693021774292,1019.1162,
2021.02.11 12:33:01,50.0,13.0,-2.6399999,13.08,-32.579998,-0.17478207,0.5123748,10.048771,-0.004062254,0.009120218,0.014377324,-0.0509369932115078,0.017391623929142952,0.21447275578975677,1019.1157,
2021.02.11 12:33:01,50.0,13.0,-2.46,13.32,-32.94,-0.21069619,0.5363176,9.885961,-0.0016187929,0.012174544,0.0046034805,-0.05418501794338226,0.021309440955519676,0.20662839710712433,1019.1157,
2021.02.11 12:33:01,50.0,13.0,-2.34,13.2,-33.3,-0.22266756,0.43336374,10.084685,-0.0010079277,0.0030115657,0.0046034805,-0.04293558746576309,0.022076185792684555,0.20734892785549164,1019.11914,
2021.02.11 12:33:01,50.0,13.0,-2.82,12.96,-32.82,-0.16520496,0.5243462,9.907509,-0.004673119,0.013396274,0.0046034805,-0.05286745727062225,0.016673175618052483,0.22554391622543335,1019.11914,
2021.02.11 12:33:01,50.0,13.0,-3.0,13.259999,-32.7,-0.25379312,0.43575802,10.046377,-0.0126143675,0.0030115657,-0.010668151,-0.043333664536476135,0.02525678277015686,0.25520822405815125,1019.12134,
2021.02.11 12:33:01,50.0,13.0,-3.0,13.32,-32.579998,-0.2370332,0.4189981,9.91948,-0.00711658,-0.0012644911,0.007046941,-0.04220280051231384,0.023891180753707886,0.2518670856952667,1019.12134,
2021.02.11 12:33:01,50.0,13.0,-3.1799998,13.139999,-32.1,-0.15083931,0.4740664,9.993703,-0.027275134,-0.0012644911,0.005825211,-0.04739558696746826,0.015092290006577969,0.24518275260925293,1019.1179,
2021.02.11 12:33:02,50.0,13.0,-2.6399999,13.62,-32.219997,-0.22027329,0.50758624,10.017646,-0.009560041,0.00117897,-0.011279016,-0.050613708794116974,0.02198498509824276,0.21637576818466187,1019.11597,
2021.02.11 12:33:02,50.0,13.0,-2.82,13.559999,-32.399998,-0.22506183,0.42618093,9.967366,-0.016890425,0.0054550264,-0.007613824,-0.042720723897218704,0.02257603220641613,0.23351041972637177,1019.11597,
2021.02.11 12:33:02,50.0,13.0,-3.3,13.559999,-32.16,-0.15323359,0.47167215,10.005674,-0.012003502,-0.004318817,-0.001505172,-0.04710007831454277,0.015313471667468548,0.2467237412929535,1019.1096,
2021.02.11 12:33:02,50.0,13.0,-3.12,13.92,-32.16,-0.22745611,0.45730647,10.182851,-0.027885998,0.0030115657,-0.014333342,-0.044868141412734985,0.022333459928631783,0.2450498640537262,1019.1096,
2021.02.11 12:33:02,50.0,13.0,-3.3,13.799999,-31.98,-0.21069619,0.41420954,9.98652,-0.0034513886,-0.0018753563,-0.013111612,-0.04144389182329178,0.021094931289553642,0.25717052817344666,1019.0996,
2021.02.11 12:33:02,50.0,13.0,-3.12,14.219999,-31.679998,-0.24900457,0.42618093,9.953,-0.004673119,-0.004318817,-0.01738767,-0.0427798330783844,0.025012824684381485,0.24629871547222137,1019.1057,
2021.02.11 12:33:02,50.0,13.0,-3.1799998,14.58,-31.32,-0.20590763,0.3974496,9.984126,-0.019333886,0.00117897,-0.01738767,-0.0397786982357502,0.020620577037334442,0.23736469447612762,1019.1057,
2021.02.11 12:33:02,50.0,13.0,-3.36,14.5199995,-30.96,-0.21069619,0.39505535,10.091868,-0.010170906,-0.0018753563,-0.016165938,-0.03911741450428963,0.020874785259366035,0.24954505264759064,1019.1074,
2021.02.11 12:33:02,50.0,13.0,-3.1799998,14.58,-30.9,-0.19633053,0.38068968,10.0368,0.0075441855,0.00117897,-0.015555073,-0.03790396824479103,0.019558575004339218,0.2359425127506256,1019.1074,
2021.02.11 12:33:02,50.0,13.0,-2.8799999,14.16,-31.08,-0.22027329,0.37590113,9.931452,-0.014446964,0.008509353,-0.01738767,-0.037822213023900986,0.022175729274749756,0.2288128286600113,1019.11255,
2021.02.11 12:33:02,50.0,13.0,-2.82,14.04,-31.38,-0.25139886,0.38547826,10.055954,-0.00711658,-0.0012644911,-0.013111612,-0.038302622735500336,0.02499479614198208,0.23235037922859192,1019.1128,
2021.02.11 12:33:02,50.0,13.0,-2.7,14.28,-32.1,-0.20590763,0.34716985,10.005674,-0.007727445,-6.536258E-4,-0.007002959,-0.034676045179367065,0.020576180890202522,0.21504969894886017,1019.1128,
2021.02.11 12:33:02,50.0,13.0,-3.12,14.639999,-31.98,-0.17238778,0.409421,9.974549,2.1380284E-4,0.0024007002,-0.011279016,-0.04101741686463356,0.017281044274568558,0.22646914422512054,1019.1133,
2021.02.11 12:33:02,50.0,13.0,-3.4199998,15.0,-32.1,-0.32801566,0.32083282,9.98652,-0.009560041,0.0030115657,-0.014944207,-0.03209824487566948,0.03283403813838959,0.2722454071044922,1019.1133,
2021.02.11 12:33:02,50.0,13.0,-3.54,14.82,-31.8,-0.22266756,0.3902668,9.964972,0.0014355333,-0.0049296827,-2.8344148E-4,-0.03913410007953644,0.022341307252645493,0.25883734226226807,1019.1157,
2021.02.11 12:33:02,50.0,13.0,-4.14,14.759999,-31.439999,-0.2083019,0.3328042,9.976943,-0.01872302,-0.0012644911,-0.0057812287,-0.03333771228790283,0.020875295624136925,0.2947279214859009,1019.11743,
2021.02.11 12:33:02,50.0,13.0,-4.44,14.28,-31.619999,-0.18914771,0.3974496,10.08708,-0.011392637,-0.004318817,3.2742377E-4,-0.039374563843011856,0.018749285489320755,0.31372109055519104,1019.11743,
2021.02.11 12:33:03,50.0,13.0,-4.8599997,14.04,-31.56,-0.17717634,0.35914123,9.950606,2.1380284E-4,-0.0073731435,-0.0027269025,-0.03607102483510971,0.017803700640797615,0.34330201148986816,1019.114,
2021.02.11 12:33:03,50.0,13.0,-4.74,14.4,-31.74,-0.2083019,0.33759275,10.05356,-0.00833831,-0.003097087,-0.008835555,-0.033559612929821014,0.02071625366806984,0.3359711766242981,1019.114,
2021.02.11 12:33:03,50.0,13.0,-4.02,14.099999,-31.679998,-0.18914771,0.37111259,9.900327,0.008155052,-0.004318817,-0.007002959,-0.03746051341295242,0.019102873280644417,0.29399940371513367,1019.11035,
2021.02.11 12:33:03,50.0,13.0,-3.9599998,14.88,-31.019999,-0.21309046,0.3232271,10.091868,-0.00589485,-0.0012644911,-0.008835555,-0.03201039507985115,0.021111927926540375,0.28306564688682556,1019.10547,
2021.02.11 12:33:03,50.0,13.0,-4.5,15.12,-30.24,-0.1340794,0.33759275,10.063137,0.014874569,0.0066767572,-0.0027269025,-0.03353191912174225,0.013323028571903706,0.29518038034439087,1019.10547,
2021.02.11 12:33:03,50.0,13.0,-4.68,15.36,-29.58,-0.19633053,0.35674694,10.008069,0.0020463986,0.02194839,-0.013722477,-0.03562399744987488,0.019614707678556442,0.31032031774520874,1019.1074,
2021.02.11 12:33:03,50.0,13.0,-5.22,15.96,-29.099998,-0.2849187,0.29689008,10.127783,-0.0126143675,0.0030115657,-0.002116037,-0.029294442385435104,0.028124967589974403,0.34492069482803345,1019.1074,
2021.02.11 12:33:03,50.0,13.0,-5.2799997,15.839999,-28.92,-0.2370332,0.38787252,9.943423,0.020372357,0.02194839,0.01620992,-0.03897712007164955,0.02383367531001568,0.3385298550128937,1019.10205,
2021.02.11 12:33:03,50.0,13.0,-5.2799997,15.839999,-28.8,-0.12689656,0.4189981,9.941029,-0.00833831,0.023780985,-0.007613824,-0.04212000221014023,0.012764239683747292,0.32009077072143555,1019.1062,
2021.02.11 12:33:03,50.0,13.0,-5.7,15.54,-28.8,-0.23463893,0.35435268,9.984126,-0.0107817715,0.01767233,-0.038767952,-0.03546693176031113,0.023496873676776886,0.3677561283111572,1019.1062,
2021.02.11 12:33:03,50.0,13.0,-5.94,15.66,-28.74,-1.089395,0.46209505,8.514041,-0.03582725,-0.12710273,-0.0033377677,-0.05378364026546478,0.12726126611232758,0.5081371068954468,1019.10645,
