Time,X-cord,Y-cord,Mag_x,Mag_y,Mag_z,Acc_x,Acc_y,Acc_z,Gyro_x,Gyro_y,Gyro_z,Orn_x,Orn_y,Orn_z,Pressure,
2021.02.11 12:30:43,50.0,17.0,-11.099999,20.039999,-32.94,-0.5243462,0.20351335,9.701602,0.11933253,0.057378575,-0.024718052,-0.02094366028904915,0.05399484559893608,0.5556991696357727,1018.7488,
2021.02.11 12:30:43,50.0,17.0,-10.5,19.92,-33.12,-0.29210153,-0.021548472,9.792584,0.024648413,-0.05624236,0.020485977,0.002199507085606456,0.02982000820338726,0.5244930386543274,1018.7488,
2021.02.11 12:30:43,50.0,17.0,-9.84,19.02,-33.66,-0.25379312,0.062251143,9.711179,-0.026664268,-0.0696814,0.018653382,-0.006407980341464281,0.026128172874450684,0.5083171725273132,1018.74805,
2021.02.11 12:30:43,50.0,17.0,-8.76,18.42,-34.26,-0.28731298,0.12210801,9.888355,-0.07186829,-0.093505144,0.014377324,-0.012342832051217556,0.029047517105937004,0.477658212184906,1018.74805,
2021.02.11 12:30:43,50.0,17.0,-8.16,18.3,-34.62,-0.32562137,0.0023942748,10.221159,-0.092026845,-0.044635925,0.009490402,-2.3412810696754605E-4,0.03184680640697479,0.46819016337394714,1018.7417,
2021.02.11 12:30:43,50.0,17.0,-7.62,17.88,-35.52,-0.25379312,0.10774237,10.096657,-0.029718593,-0.029975157,0.029648956,-0.010667318478226662,0.025131061673164368,0.4362142086029053,1018.7434,
2021.02.11 12:30:44,50.0,17.0,-7.44,18.48,-35.82,-0.24182175,-0.071828246,9.945818,0.0051007248,-0.013481797,0.035146743,0.00721969548612833,0.024309122934937477,0.4277915954589844,1018.7434,
2021.02.11 12:30:44,50.0,17.0,-8.28,18.779999,-35.94,-0.2466103,-0.12689656,10.015251,-0.020555617,0.014618006,0.0394228,0.012665816582739353,0.02461850270628929,0.4636119306087494,1018.749,
2021.02.11 12:30:44,50.0,17.0,-8.28,18.9,-36.6,-0.15323359,0.019154198,10.247497,-0.04804455,0.029889638,0.06324654,-0.0018689476419240236,0.014952156692743301,0.4355229437351227,1018.749,
2021.02.11 12:30:44,50.0,17.0,-7.98,19.14,-36.48,-0.15802214,-0.04070267,9.866806,0.020372357,0.044550404,0.037590202,0.0041246600449085236,0.016014162451028824,0.42362821102142334,1018.7522,
2021.02.11 12:30:44,50.0,17.0,-8.04,18.9,-36.719997,-0.3615355,-0.0047885496,10.065532,0.042363506,0.024391849,0.038811937,4.7543077380396426E-4,0.035902734845876694,0.45989277958869934,1018.75684,
2021.02.11 12:30:44,50.0,17.0,-7.5,19.32,-36.719997,-0.19393626,-0.009577099,10.3743925,0.06679811,-0.019590449,0.07729645,9.229864808730781E-4,0.018691567704081535,0.40135908126831055,1018.75684,
2021.02.11 12:30:44,50.0,17.0,-7.5,18.66,-36.3,0.043096945,0.17238778,10.039194,0.09489792,-0.022644775,0.07729645,-0.017169630154967308,-0.0042928424663841724,0.3639313280582428,1018.74976,
2021.02.11 12:30:44,50.0,17.0,-8.16,18.6,-36.42,-0.10055954,0.15802214,9.881172,0.07840455,-0.007984009,-0.010668151,-0.015990056097507477,0.010176531970500946,0.4185020327568054,1018.7466,
2021.02.11 12:30:44,50.0,17.0,-8.28,18.779999,-36.18,-0.3040729,0.08858817,10.065532,0.01976149,0.009120218,-0.032048434,-0.008796901442110538,0.030200136825442314,0.45612451434135437,1018.7466,
2021.02.11 12:30:44,50.0,17.0,-8.04,17.94,-36.239998,-0.19393626,0.15562786,9.797373,-0.0034513886,0.0109528145,0.011322998,-0.01588020659983158,0.019792135804891586,0.4418215751647949,1018.74,
2021.02.11 12:30:44,50.0,17.0,-7.7999997,18.6,-36.36,-0.2561874,0.16520496,10.211582,-0.028496865,0.0109528145,0.010712134,-0.016171693801879883,0.02508266270160675,0.4262072741985321,1018.74,
2021.02.11 12:30:44,50.0,17.0,-7.3799996,18.84,-36.6,-0.1699935,0.18196489,9.933846,0.030757064,0.0024007002,0.016820785,-0.018312938511371613,0.017110886052250862,0.38945892453193665,1018.74146,
2021.02.11 12:30:44,50.0,17.0,-7.2,18.6,-36.66,-0.11253092,0.16520496,9.964972,0.0069333203,0.0054550264,0.0015491543,-0.016575992107391357,0.0112921679392457,0.37745100259780884,1018.74146,
2021.02.11 12:30:44,50.0,17.0,-7.56,18.96,-36.96,-0.20351335,0.18675344,10.096657,0.024648413,0.00117897,-0.042433143,-0.01849069818854332,0.02015378139913082,0.40003591775894165,1018.7385,
2021.02.11 12:30:44,50.0,17.0,-7.44,18.6,-36.66,-0.26337022,0.16520496,9.840469,0.017318029,0.010341949,-0.046098337,-0.016780735924839973,0.026757601648569107,0.4130319058895111,1018.73706,
2021.02.11 12:30:44,50.0,17.0,-8.099999,18.3,-36.059998,-0.3328042,0.12689656,10.0439825,0.0020463986,0.0017898352,-0.024718052,-0.012626486830413342,0.03312256559729576,0.45999884605407715,1018.73706,
2021.02.11 12:30:44,50.0,17.0,-8.76,18.18,-35.64,-0.22745611,0.19633053,9.981731,8.246681E-4,0.009120218,-0.019831128,-0.019661346450448036,0.022783298045396805,0.46927449107170105,1018.73926,
2021.02.11 12:30:45,50.0,17.0,-9.0,18.48,-35.46,-0.24182175,0.17478207,10.048771,0.0051007248,-0.004318817,-0.025939781,-0.01738659106194973,0.024060163646936417,0.47637253999710083,1018.7373,
2021.02.11 12:30:45,50.0,17.0,-9.42,18.48,-35.64,-0.25858167,0.18435916,10.008069,0.008765915,-4.2760566E-5,-0.027161513,-0.01841282658278942,0.025831572711467743,0.49546006321907043,1018.7373,
2021.02.11 12:30:45,50.0,17.0,-8.88,19.14,-35.399998,-0.2753416,0.19154198,9.950606,0.022815816,-0.0073731435,-0.016165938,-0.01923953741788864,0.02766377665102482,0.46160733699798584,1018.7373,
2021.02.11 12:30:45,50.0,17.0,-8.82,19.199999,-35.7,-0.1699935,0.19633053,9.996098,0.010598511,-0.0012644911,-0.011889881,-0.019635353237390518,0.0170043483376503,0.44246405363082886,1018.7373,
2021.02.11 12:30:45,50.0,17.0,-8.76,19.14,-35.52,-0.26337022,0.22266756,9.976943,0.022815816,-0.014703526,-0.011279016,-0.022306744009256363,0.026391757652163506,0.4528781771659851,1018.7395,
2021.02.11 12:30:45,50.0,17.0,-8.76,19.08,-35.04,-0.24900457,0.14126222,9.967366,0.011820243,-0.02081218,0.008879538,-0.014167103916406631,0.024976789951324463,0.45736363530158997,1018.7395,
2021.02.11 12:30:45,50.0,17.0,-8.94,18.48,-35.04,-0.16759923,0.3040729,9.981731,0.013652838,-0.015314392,0.010712134,-0.03044923208653927,0.016789020970463753,0.4537806808948517,1018.73755,
2021.02.11 12:30:45,50.0,17.0,-8.639999,18.48,-34.559998,-0.16520496,0.2370332,9.998491,0.029535336,-0.0073731435,-0.0027269025,-0.02369922399520874,0.016521485522389412,0.44542980194091797,1018.7434,
2021.02.11 12:30:45,50.0,17.0,-8.34,18.24,-34.92,-0.23463893,0.24182175,10.091868,0.015485434,-0.007984009,-8.943067E-4,-0.023950982838869095,0.02324610762298107,0.4474201202392578,1018.7434,
2021.02.11 12:30:45,50.0,17.0,-8.22,17.94,-35.16,-0.14844504,0.25379312,9.943423,0.029535336,0.009120218,0.01620992,-0.02551533468067646,0.014927858486771584,0.43477413058280945,1018.7444,
2021.02.11 12:30:45,50.0,17.0,-8.4,18.18,-35.76,-0.105348095,0.26097596,10.060742,0.009376781,-0.0024862215,0.015599055,-0.025932790711522102,0.01047082245349884,0.43064236640930176,1018.7446,
2021.02.11 12:30:45,50.0,17.0,-8.4,17.88,-35.88,-0.15323359,0.3232271,9.931452,0.015485434,0.004233296,-0.007613824,-0.03253045305609703,0.015427898615598679,0.4396594762802124,1018.7446,
2021.02.11 12:30:45,50.0,17.0,-8.7,18.0,-35.64,-0.16281068,0.23224466,10.027223,0.00571159,-0.006151413,-0.002116037,-0.02315422333776951,0.016235440969467163,0.45806214213371277,1018.74536,
2021.02.11 12:30:45,50.0,17.0,-8.46,17.82,-35.7,-0.15562786,0.2777359,9.957788,0.0044898596,-0.0049296827,-0.001505172,-0.02788069099187851,0.015627484768629074,0.44711774587631226,1018.74536,
2021.02.11 12:30:45,50.0,17.0,-8.5199995,17.88,-35.34,-0.15323359,0.31365,10.060742,-0.007727445,-0.0024862215,-8.943067E-4,-0.031161928549408913,0.0152296656742692,0.4454808235168457,1018.75,
2021.02.11 12:30:45,50.0,17.0,-8.58,18.24,-35.64,-0.18435916,0.28970724,9.897932,0.00571159,-0.005540548,-0.007002959,-0.029256047680974007,0.018623875454068184,0.44721150398254395,1018.75,
2021.02.11 12:30:46,50.0,17.0,-8.5199995,18.24,-35.579998,-0.19154198,0.22506183,10.0368,-0.0126143675,0.00117897,-0.010057285,-0.022415824234485626,0.01908165216445923,0.4502224326133728,1018.7449,
2021.02.11 12:30:46,50.0,17.0,-8.7,18.3,-35.88,-0.14126222,0.29210153,10.0368,0.0044898596,0.0024007002,-0.003948633,-0.029091959819197655,0.014073498547077179,0.4443449079990387,1018.7446,
2021.02.11 12:30:46,50.0,17.0,-8.7,18.18,-36.36,-0.18675344,0.2466103,9.933846,0.00571159,-6.536258E-4,-0.0033377677,-0.02481577731668949,0.0187974963337183,0.4571545720100403,1018.7446,
2021.02.11 12:30:46,50.0,17.0,-8.88,18.0,-36.18,-0.19154198,0.25139886,10.024829,0.0069333203,-0.0018753563,-2.8344148E-4,-0.02506779134273529,0.019104434177279472,0.468763142824173,1018.74097,
2021.02.11 12:30:46,50.0,17.0,-9.059999,18.24,-36.3,-0.15323359,0.24421602,9.888355,0.0069333203,-0.0018753563,0.00338175,-0.02468935400247574,0.015495127998292446,0.46606481075286865,1018.74097,
2021.02.11 12:30:46,50.0,17.0,-9.0,18.42,-36.12,-0.16041641,0.2561874,9.993703,-0.0010079277,0.0024007002,-0.0045594983,-0.02562597021460533,0.016050370410084724,0.45994752645492554,1018.7383,
2021.02.11 12:30:46,50.0,17.0,-8.94,18.06,-35.94,-0.20351335,0.23463893,10.0439825,-0.0016187929,-0.003097087,-0.0045594983,-0.02335210330784321,0.020259443670511246,0.4729759693145752,1018.7434,
2021.02.11 12:30:46,50.0,17.0,-9.059999,18.06,-36.0,-0.23942748,0.19633053,9.96976,0.0020463986,0.0024007002,9.3828904E-4,-0.019684383645653725,0.024010755121707916,0.4864663779735565,1018.7434,
2021.02.11 12:30:46,50.0,17.0,-8.76,17.82,-35.94,-0.17717634,0.24900457,9.91948,-0.004673119,0.0048441617,0.012544728,-0.025093311443924904,0.017859555780887604,0.46554410457611084,1018.74365,
2021.02.11 12:30:46,50.0,17.0,-8.88,18.119999,-36.12,-0.090982445,0.24900457,10.168485,-0.025442537,0.009120218,0.008879538,-0.0244820024818182,0.008947254158556461,0.4511227011680603,1018.74365,
2021.02.11 12:30:46,50.0,17.0,-9.179999,18.42,-35.399998,-0.17717634,0.22745611,9.974549,0.013041973,-4.2760566E-5,0.008879538,-0.02279610186815262,0.017760973423719406,0.47186052799224854,1018.7495,
2021.02.11 12:30:46,50.0,17.0,-9.66,18.539999,-34.68,-0.22027329,0.13886794,9.957788,-0.0034513886,0.012174544,0.005825211,-0.013941347599029541,0.022117096930742264,0.5014042258262634,1018.7456,
2021.02.11 12:30:46,50.0,17.0,-10.139999,19.08,-34.02,-0.14126222,0.25379312,10.108628,0.0075441855,0.0109528145,0.011322998,-0.025098860263824463,0.013973509892821312,0.48949509859085083,1018.7456,
2021.02.11 12:30:46,50.0,17.0,-10.559999,19.5,-33.12,-0.14126222,0.25139886,9.828498,0.025259277,0.0017898352,9.3828904E-4,-0.025570347905158997,0.014371727593243122,0.4971563518047333,1018.74194,
2021.02.11 12:30:46,50.0,17.0,-10.62,20.1,-33.0,-0.2561874,0.16520496,10.096657,0.0032681292,0.0060658916,-0.0027269025,-0.016355618834495544,0.025368046015501022,0.5067713856697083,1018.7407,
2021.02.11 12:30:46,50.0,17.0,-10.38,20.58,-33.18,-0.15802214,0.29210153,9.948212,0.0142637035,0.0036224308,0.012544728,-0.029350079596042633,0.01588314026594162,0.4686761498451233,1018.7407,
2021.02.11 12:30:46,50.0,17.0,-10.44,20.1,-33.36,-0.17957062,0.20590763,9.96976,-0.004673119,0.0030115657,0.0027708847,-0.02064693532884121,0.018009580671787262,0.48831355571746826,1018.7449,
2021.02.11 12:30:47,50.0,17.0,-10.38,20.1,-33.12,-0.18675344,0.23463893,10.022434,-0.0065057147,5.681047E-4,0.005214346,-0.02340303361415863,0.018631383776664734,0.4849928021430969,1018.7449,
2021.02.11 12:30:47,50.0,17.0,-10.62,19.619999,-33.3,-0.19633053,0.24421602,9.93624,-0.00833831,-6.536258E-4,0.005825211,-0.024568570777773857,0.019756466150283813,0.50438392162323,1018.7473,
2021.02.11 12:30:47,50.0,17.0,-10.62,19.08,-33.18,-0.18914771,0.19633053,10.063137,-0.015668694,0.0060658916,0.0027708847,-0.01950395479798317,0.01879388652741909,0.5181288123130798,1018.7517,
2021.02.11 12:30:47,50.0,17.0,-10.5,19.5,-32.82,-0.16520496,0.2370332,9.93624,-0.004673119,0.008509353,0.0021600195,-0.023847604170441628,0.016624974086880684,0.4988246262073517,1018.7517,
2021.02.11 12:30:47,50.0,17.0,-10.8,19.38,-33.059998,-0.20351335,0.16281068,10.039194,-0.014446964,0.008509353,-0.0057812287,-0.01621275208890438,0.020269105210900307,0.5225782990455627,1018.74634,
2021.02.11 12:30:47,50.0,17.0,-11.04,19.38,-32.579998,-0.18914771,0.25139886,9.9889145,0.0044898596,0.0048441617,3.2742377E-4,-0.02515796571969986,0.018933499231934547,0.5235720276832581,1018.74634,
2021.02.11 12:30:47,50.0,17.0,-11.099999,19.56,-32.7,-0.18675344,0.22027329,10.00328,-0.0016187929,0.014618006,-0.003948633,-0.02201271429657936,0.018667051568627357,0.5237970948219299,1018.7451,
2021.02.11 12:30:47,50.0,17.0,-11.16,19.56,-32.94,-0.25379312,0.1987248,10.022434,0.012431107,0.008509353,0.0027708847,-0.019819049164652824,0.02531709335744381,0.535615861415863,1018.7451,
2021.02.11 12:30:47,50.0,17.0,-11.04,19.68,-33.3,-0.20351335,0.22027329,9.926663,0.019150626,0.0036224308,0.010712134,-0.022181764245033264,0.020498817786574364,0.5212932229042053,1018.7544,
2021.02.11 12:30:47,50.0,17.0,-10.559999,19.98,-33.719997,-0.25139886,0.19393626,10.039194,0.0063224556,5.681047E-4,0.009490402,-0.019309455528855324,0.025036504492163658,0.5050264000892639,1018.75366,
2021.02.11 12:30:47,50.0,17.0,-10.44,20.039999,-33.66,-0.18435916,0.2083019,9.871595,0.012431107,0.0036224308,0.015599055,-0.02109432965517044,0.018673552200198174,0.49013274908065796,1018.75366,
2021.02.11 12:30:47,50.0,17.0,-10.26,20.34,-33.66,-0.18196489,0.24421602,10.13736,-0.00833831,-0.003097087,0.005825211,-0.024082157760858536,0.017948001623153687,0.4746520221233368,1018.74634,
2021.02.11 12:30:47,50.0,17.0,-10.44,20.22,-33.239998,-0.23463893,0.17957062,9.945818,0.0051007248,-0.003707952,0.00338175,-0.01804790459573269,0.023587342351675034,0.49448567628860474,1018.74634,
2021.02.11 12:30:47,50.0,17.0,-10.38,20.16,-33.18,-0.3040729,0.17717634,10.015251,-0.0052839844,0.010341949,0.010712134,-0.017680663615465164,0.030351661145687103,0.5019705891609192,1018.7385,
2021.02.11 12:30:47,50.0,17.0,-10.44,20.039999,-33.18,-0.17717634,0.23942748,9.945818,0.012431107,-0.013481797,0.018653382,-0.024064715951681137,0.017812270671129227,0.48700210452079773,1018.7385,
2021.02.11 12:30:47,50.0,17.0,-10.74,19.859999,-33.18,-0.12210801,0.25858167,10.041589,-0.0065057147,-0.009816605,0.0015491543,-0.025743482634425163,0.012159628793597221,0.4937282204627991,1018.7385,
2021.02.11 12:30:47,50.0,17.0,-10.26,19.68,-33.0,-0.23942748,0.2561874,9.981731,-0.016890425,-0.005540548,-0.02105286,-0.025652620941400528,0.0239819698035717,0.49404317140579224,1018.74634,
2021.02.11 12:30:48,50.0,17.0,-10.74,19.68,-33.48,-0.3040729,0.24421602,10.101445,-0.0052839844,-0.0140926605,-0.011279016,-0.02416069805622101,0.030092833563685417,0.5207112431526184,1018.7451,
2021.02.11 12:30:48,50.0,17.0,-10.8,19.8,-34.02,-0.22985038,0.20351335,9.950606,0.0038789941,-0.012260065,0.010101268,-0.020444056019186974,0.0230950266122818,0.51458740234375,1018.7451,
2021.02.11 12:30:48,50.0,17.0,-10.44,19.74,-33.84,-0.15562786,0.25858167,10.05356,-0.013836098,-0.0073731435,3.2742377E-4,-0.025711659342050552,0.015478638932108879,0.48906055092811584,1018.7451,
2021.02.11 12:30:48,50.0,17.0,-10.62,19.859999,-34.02,-0.2561874,0.21309046,10.022434,0.0063224556,-0.019590449,-0.001505172,-0.02125120721757412,0.02555583044886589,0.5092029571533203,1018.7451,
2021.02.11 12:30:48,50.0,17.0,-10.5,20.039999,-33.42,-0.16520496,0.21787901,10.008069,8.246681E-4,-0.014703526,-2.8344148E-4,-0.021763931959867477,0.01650567725300789,0.4891645312309265,1018.7466,
2021.02.11 12:30:48,50.0,17.0,-10.5,19.92,-33.0,-0.14844504,0.1987248,9.871595,0.021594085,-0.014703526,0.01498819,-0.02012597769498825,0.015036460012197495,0.4907398223876953,1018.7456,
2021.02.11 12:30:48,50.0,17.0,-10.44,19.92,-33.0,-0.1340794,0.18675344,10.005674,-0.017501289,-0.0067622783,0.010712134,-0.018660910427570343,0.013399533927440643,0.4873785078525543,1018.7456,
2021.02.11 12:30:48,50.0,17.0,-10.98,19.859999,-32.88,-0.08619389,0.21309046,10.067925,-0.00833831,0.004233296,-0.008224689,-0.02116134576499462,0.008561027236282825,0.5013093948364258,1018.7517,
2021.02.11 12:30:48,50.0,17.0,-10.62,19.5,-33.0,-0.12210801,0.19393626,9.91948,-3.9706242E-4,0.0036224308,-0.013111612,-0.019547080621123314,0.012309298850595951,0.5009012222290039,1018.7517,
2021.02.11 12:30:48,50.0,17.0,-10.98,19.439999,-33.059998,-0.1699935,0.15562786,10.084685,-0.021166481,0.012174544,-0.021663725,-0.01542868185788393,0.01685500517487526,0.5243693590164185,1018.7529,
2021.02.11 12:30:48,50.0,17.0,-11.04,19.5,-33.3,-0.23463893,0.2083019,9.993703,-0.0022296582,0.004233296,-0.011889881,-0.020834557712078094,0.02347436547279358,0.5297226905822754,1018.7529,
2021.02.11 12:30:48,50.0,17.0,-10.74,19.56,-33.54,-0.19393626,0.11253092,10.058349,-0.013225232,0.018894061,-0.0027269025,-0.011185267008841038,0.01927873305976391,0.5189616680145264,1018.7395,
2021.02.11 12:30:48,50.0,17.0,-11.16,19.74,-33.899998,-0.16759923,0.22506183,9.996098,-0.0089491755,0.018894061,-2.8344148E-4,-0.022508002817630768,0.016764894127845764,0.5197376012802124,1018.73584,
2021.02.11 12:30:48,50.0,17.0,-10.74,19.68,-33.78,-0.23942748,0.16520496,10.055954,-0.0065057147,0.01400714,-0.010668151,-0.016422439366579056,0.023805025964975357,0.5184869766235352,1018.73584,
2021.02.11 12:30:48,50.0,17.0,-10.8,19.74,-33.6,-0.15083931,0.15562786,10.005674,0.0063224556,0.0066767572,0.0027708847,-0.015550939366221428,0.015074234455823898,0.5090230703353882,1018.73584,
2021.02.11 12:30:48,50.0,17.0,-11.04,19.439999,-33.66,-0.20590763,0.15323359,9.895537,0.00571159,0.01278541,-8.943067E-4,-0.015480532310903072,0.020805127918720245,0.5317088961601257,1018.73584,
2021.02.11 12:30:49,50.0,17.0,-10.74,19.619999,-33.36,-0.2083019,0.16520496,10.05356,-0.015668694,0.007898487,-2.8344148E-4,-0.016427479684352875,0.02071625366806984,0.5156934261322021,1018.7324,
2021.02.11 12:30:49,50.0,17.0,-10.8,19.98,-33.18,-0.18196489,0.18914771,9.862018,0.0075441855,0.008509353,9.3828904E-4,-0.019173800945281982,0.01844898797571659,0.5056539177894592,1018.7339,
2021.02.11 12:30:49,50.0,17.0,-11.099999,20.039999,-33.059998,-0.2944958,0.11013664,10.051166,0.0160963,-0.0018753563,-2.8344148E-4,-0.010952461510896683,0.029291285201907158,0.5340933203697205,1018.7339,
2021.02.11 12:30:49,50.0,17.0,-11.34,20.64,-32.7,-0.18196489,0.16281068,9.974549,-0.0022296582,0.0017898352,0.0046034805,-0.01631844788789749,0.018240895122289658,0.5133903622627258,1018.73535,
2021.02.11 12:30:49,50.0,17.0,-11.46,20.52,-32.7,-0.26337022,0.14844504,10.051166,0.0020463986,0.0030115657,-0.007613824,-0.014762797392904758,0.026196958497166634,0.5303813815116882,1018.73535,
2021.02.11 12:30:49,50.0,17.0,-11.219999,20.58,-32.76,-0.26337022,0.13886794,9.945818,0.0044898596,5.681047E-4,0.005825211,-0.013956647366285324,0.02647431194782257,0.5214947462081909,1018.74023,
2021.02.11 12:30:49,50.0,17.0,-10.98,20.52,-32.7,-0.18435916,0.17957062,10.032011,0.0032681292,0.00117897,0.008879538,-0.01789483055472374,0.01837502233684063,0.5019329786300659,1018.7412,
2021.02.11 12:30:49,50.0,17.0,-10.5,19.98,-32.82,-0.22266756,0.14605077,9.984126,-3.9706242E-4,0.00117897,0.0027708847,-0.014623618684709072,0.022298460826277733,0.5020669102668762,1018.7412,
2021.02.11 12:30:49,50.0,17.0,-10.2,19.56,-32.46,-0.22266756,0.14605077,9.991309,0.008155052,-0.003097087,0.010712134,-0.01461311150342226,0.0222824364900589,0.4991888403892517,1018.739,
2021.02.11 12:30:49,50.0,17.0,-10.5,19.32,-32.64,-0.18435916,0.14126222,9.931452,0.0020463986,0.0066767572,0.007046941,-0.014220315031707287,0.01856103166937828,0.5115485787391663,1018.74316,
2021.02.11 12:30:49,50.0,17.0,-10.44,19.199999,-32.82,-0.17717634,0.17717634,9.9889145,-0.00833831,0.004233296,0.0046034805,-0.01773264817893505,0.0177354384213686,0.5084106922149658,1018.74316,
2021.02.11 12:30:49,50.0,17.0,-10.32,19.5,-32.7,-0.22985038,0.13168511,10.060742,8.246681E-4,-0.005540548,-0.0027269025,-0.013084843754768372,0.0228422898799181,0.5069394707679749,1018.7451,
2021.02.11 12:30:49,50.0,17.0,-10.62,19.74,-33.059998,-0.20111908,0.14365649,10.022434,0.0014355333,0.0048441617,-0.0051703635,-0.01432962715625763,0.02006419748067856,0.5091444849967957,1018.7451,
2021.02.11 12:30:49,50.0,17.0,-10.679999,19.74,-32.7,-0.18675344,0.20590763,9.957788,0.0075441855,-0.0024862215,-0.0033377677,-0.02067146636545658,0.018752310425043106,0.5053677558898926,1018.7539,
2021.02.11 12:30:49,50.0,17.0,-10.86,20.22,-32.52,-0.21787901,0.14844504,9.864412,0.01853976,5.681047E-4,-0.003948633,-0.015043738298118114,0.022083789110183716,0.5098142027854919,1018.7595,
2021.02.11 12:30:49,50.0,17.0,-10.98,19.98,-32.52,-0.22506183,0.13886794,10.058349,-0.0089491755,0.0066767572,-0.007613824,-0.013801906257867813,0.022371891885995865,0.5204075574874878,1018.7595,
2021.02.11 12:30:49,50.0,17.0,-10.74,20.46,-32.399998,-0.23942748,0.15562786,9.917087,-0.009560041,0.0109528145,9.3828904E-4,-0.015687042847275734,0.024138236418366432,0.5024784803390503,1018.7522,
2021.02.11 12:30:50,50.0,17.0,-10.5,20.76,-32.64,-0.26097596,0.117319465,10.0200405,-0.030940324,0.02927877,-0.0045594983,-0.011703979223966599,0.02603951282799244,0.49264487624168396,1018.7522,
2021.02.11 12:30:50,50.0,17.0,-10.139999,20.16,-32.94,-0.339987,0.14844504,9.955395,-0.023609942,0.015839737,-0.001505172,-0.014901223592460155,0.03413776308298111,0.4992896616458893,1018.75854,
2021.02.11 12:30:50,50.0,17.0,-10.32,20.34,-33.0,-0.3040729,0.12450229,10.041589,-0.00711658,0.01400714,0.008268672,-0.012392349541187286,0.030272101983428,0.49933043122291565,1018.75464,
2021.02.11 12:30:50,50.0,17.0,-10.38,19.8,-33.36,-0.27294734,0.12210801,10.051166,0.008155052,0.0072876224,0.010101268,-0.012143568135797977,0.02714911848306656,0.5093464851379395,1018.75464,
2021.02.11 12:30:50,50.0,17.0,-10.32,19.32,-33.239998,-0.1699935,0.18675344,10.008069,0.0075441855,0.03783088,-0.020441994,-0.018655432388186455,0.016984010115265846,0.4997446537017822,1018.74585,
2021.02.11 12:30:50,50.0,17.0,-10.5,19.68,-33.0,-0.13168511,-0.08858817,9.694419,-0.021777345,-0.0855639,-0.013722477,0.00913696177303791,0.013582764193415642,0.5142129063606262,1018.74585,
