Time,X-cord,Y-cord,Mag_x,Mag_y,Mag_z,Acc_x,Acc_y,Acc_z,Gyro_x,Gyro_y,Gyro_z,Orn_x,Orn_y,Orn_z,Pressure,
2021.02.11 12:30:54,50.0,18.0,-13.86,21.0,-31.5,-0.74222517,0.07422252,10.017646,0.11505646,0.10746952,-0.018609397,-0.007388790138065815,0.07395663857460022,0.650449812412262,1018.75073,
2021.02.11 12:30:54,50.0,18.0,-13.5,20.88,-31.019999,-0.014365649,0.047885496,9.768641,0.019150626,-0.040359866,0.09623327,-0.0049019162543118,0.0014705872163176537,0.5721854567527771,1018.78296,
2021.02.11 12:30:54,50.0,18.0,-12.78,20.46,-32.1,0.090982445,0.090982445,9.809344,-0.08042041,-0.08495303,0.044920586,-0.009274414740502834,-0.00927481334656477,0.541374921798706,1018.78296,
2021.02.11 12:30:54,50.0,18.0,-11.82,20.16,-32.82,-0.045491222,-0.019154198,10.31693,-0.109131075,-0.08800735,0.012544728,0.0018565590726211667,0.00440934719517827,0.5369412302970886,1018.79175,
2021.02.11 12:30:54,50.0,18.0,-11.4,20.1,-32.88,-0.021548472,-0.09577099,9.847652,-0.01872302,-0.025699101,-0.001505172,0.009724931791424751,0.0021881803404539824,0.5255756378173828,1018.79126,
2021.02.11 12:30:54,50.0,18.0,-10.8,19.56,-33.96,-0.0047885496,-0.17957062,10.008069,-0.016890425,-0.050744575,-0.007613824,0.01794065721333027,4.7846880625002086E-4,0.5187076926231384,1018.79126,
2021.02.11 12:30:54,50.0,18.0,-10.86,19.619999,-33.36,-0.098165266,-0.090982445,10.008069,-0.026664268,-0.045246787,-0.0045594983,0.009090221486985683,0.009808297269046307,0.5249195694923401,1018.79736,
2021.02.11 12:30:54,50.0,18.0,-11.46,19.74,-33.239998,-0.21309046,-0.11253092,10.012857,-0.004062254,-0.051966306,0.01498819,0.011235625483095646,0.021278472617268562,0.5608082413673401,1018.79736,
2021.02.11 12:30:55,50.0,18.0,-11.219999,19.14,-33.719997,-0.08140534,-0.047885496,9.933846,0.016707165,-0.02325564,0.03697934,0.0048202392645180225,0.008194562047719955,0.5446446537971497,1018.79834,
2021.02.11 12:30:55,50.0,18.0,-11.46,19.199999,-33.54,-0.14844504,-0.0071828244,10.00328,0.015485434,0.0030115657,0.035146743,7.179677486419678E-4,0.014838547445833683,0.5575253963470459,1018.7969,
2021.02.11 12:30:55,50.0,18.0,-11.34,18.96,-33.96,-0.25139886,-0.18914771,10.175668,0.031367928,0.019504927,0.046142317,0.018580427393317223,0.024700859561562538,0.5862829685211182,1018.7969,
2021.02.11 12:30:55,50.0,18.0,-10.74,19.02,-34.02,-0.16520496,0.016759925,9.998491,0.10161743,0.05249165,0.094400674,-0.001676014973782003,0.016521485522389412,0.5347946882247925,1018.79736,
2021.02.11 12:30:55,50.0,18.0,-10.679999,19.5,-33.78,-0.05985687,0.13168511,9.828498,0.06985244,0.009120218,0.061413947,-0.013397243805229664,0.006090058945119381,0.4994915723800659,1018.7988,
2021.02.11 12:30:55,50.0,18.0,-10.62,19.74,-33.78,-0.25139886,-0.014365649,10.144543,0.04053091,-0.016536122,0.04308799,0.0014156607212498784,0.02477661333978176,0.526796281337738,1018.7988,
2021.02.11 12:30:55,50.0,18.0,-10.38,20.279999,-33.54,-0.098165266,0.102953814,9.725544,0.052748214,-0.013481797,0.052861836,-0.010584983974695206,0.010093207471072674,0.4790981113910675,1018.80225,
2021.02.11 12:30:55,50.0,18.0,-10.2,19.92,-34.02,-0.2466103,0.13886794,9.890749,-0.027885998,0.014618006,0.034535877,-0.01403490174561739,0.024928266182541847,0.4963946044445038,1018.80225,
2021.02.11 12:30:55,50.0,18.0,-10.679999,20.039999,-33.96,-0.16041641,0.11492519,10.326508,-0.04437936,0.0024007002,0.030259822,-0.011127342469990253,0.01553318090736866,0.5020187497138977,1018.79395,
2021.02.11 12:30:55,50.0,18.0,-10.62,19.8,-33.96,-0.12689656,0.20111908,9.845258,0.026481008,0.00117897,0.011933864,-0.02042347937822342,0.012888390570878983,0.4949086606502533,1018.79395,
2021.02.11 12:30:55,50.0,18.0,-10.74,19.56,-34.14,-0.2753416,0.047885496,9.732727,0.01853976,0.0017898352,0.00338175,-0.00491804163902998,0.028282737359404564,0.5353904366493225,1018.8003,
2021.02.11 12:30:55,50.0,18.0,-11.28,19.859999,-33.66,-0.17478207,0.14605077,10.163696,-0.029718593,-0.0012644911,0.019264245,-0.014366734772920609,0.01719500869512558,0.5278128981590271,1018.80444,
2021.02.11 12:30:55,50.0,18.0,-10.62,19.619999,-33.899998,0.014365649,0.2681588,9.996098,0.0026572638,-0.011649201,0.011322998,-0.02681988850235939,-0.0014371247962117195,0.4756608009338379,1018.80444,
2021.02.11 12:30:55,50.0,18.0,-10.679999,19.92,-33.719997,-0.23224466,0.062251143,10.072714,0.016707165,-0.009205739,-0.050985254,-0.0061784544959664345,0.023052725940942764,0.5174080729484558,1018.7942,
2021.02.11 12:30:55,50.0,18.0,-10.74,20.279999,-33.239998,-0.12689656,0.11253092,9.926663,0.024648413,5.681047E-4,-0.03510276,-0.011334816925227642,0.012782708741724491,0.49554243683815,1018.7942,
2021.02.11 12:30:55,50.0,18.0,-10.559999,20.58,-33.239998,-0.11492519,0.18435916,10.060742,0.008765915,0.0036224308,-0.021663725,-0.018321361392736435,0.011422635056078434,0.47667959332466125,1018.78516,
2021.02.11 12:30:55,50.0,18.0,-10.86,20.4,-32.82,-0.15802214,0.16041641,9.996098,0.025259277,0.0036224308,-0.033270165,-0.01604452170431614,0.01580706611275673,0.49808943271636963,1018.78613,
2021.02.11 12:30:56,50.0,18.0,-10.74,20.16,-32.64,-0.14126222,0.12210801,10.027223,0.0142637035,0.0036224308,-0.029604973,-0.012175840325653553,0.014086938463151455,0.49887511134147644,1018.78613,
2021.02.11 12:30:56,50.0,18.0,-10.98,20.22,-32.7,-0.10055954,0.17478207,9.98652,0.017928895,0.011563679,-0.034491893,-0.017499122768640518,0.010069187730550766,0.4982435703277588,1018.80273,
2021.02.11 12:30:56,50.0,18.0,-10.86,20.039999,-32.82,-0.25139886,0.12689656,9.993703,0.013041973,0.0030115657,-0.03632449,-0.012692954391241074,0.025150422006845474,0.5189774632453918,1018.80176,
2021.02.11 12:30:56,50.0,18.0,-10.98,20.58,-33.12,-0.18196489,0.102953814,9.933846,0.008765915,0.010341949,-0.00944642,-0.010361832566559315,0.018315618857741356,0.5057296752929688,1018.80176,
2021.02.11 12:30:56,50.0,18.0,-11.219999,20.82,-33.18,-0.076616794,0.2561874,9.862018,0.0044898596,0.011563679,-0.007002959,-0.02597055397927761,0.007768719922751188,0.48703819513320923,1018.80176,
2021.02.11 12:30:56,50.0,18.0,-10.92,20.52,-33.42,-0.17957062,0.17717634,10.091868,0.008765915,0.009120218,-0.012500747,-0.017551764845848083,0.017791718244552612,0.49948590993881226,1018.80176,
2021.02.11 12:30:56,50.0,18.0,-11.46,20.279999,-33.18,-0.2777359,0.10774237,10.067925,-0.0052839844,0.0066767572,-0.013111612,-0.010697068646550179,0.027579212561249733,0.5401505827903748,1018.80347,
2021.02.11 12:30:56,50.0,18.0,-11.639999,19.92,-33.239998,-0.13647367,0.19154198,9.979338,0.0142637035,-0.003097087,0.018042516,-0.019189706072211266,0.013674771413207054,0.5318902134895325,1018.80347,
2021.02.11 12:30:56,50.0,18.0,-11.5199995,19.98,-33.6,-0.11492519,0.1699935,10.000886,-3.9706242E-4,-4.2760566E-5,0.011933864,-0.016995085403323174,0.011490995064377785,0.5251737236976624,1018.8025,
2021.02.11 12:30:56,50.0,18.0,-11.58,20.039999,-33.48,-0.105348095,0.17478207,9.869201,-0.015668694,0.0066767572,-0.007613824,-0.017706992104649544,0.010674024932086468,0.524596095085144,1018.79785,
2021.02.11 12:30:56,50.0,18.0,-11.5199995,20.1,-33.6,-0.045491222,0.22266756,10.017646,-0.03155119,0.0017898352,-0.028994108,-0.022223643958568573,0.004541078116744757,0.5105529427528381,1018.79785,
2021.02.11 12:30:56,50.0,18.0,-11.46,20.58,-33.18,-0.13647367,0.15323359,9.984126,-0.021166481,0.0048441617,-0.095578425,-0.015345083549618721,0.013668213970959187,0.5142801403999329,1018.80225,
2021.02.11 12:30:56,50.0,18.0,-11.639999,20.279999,-32.76,-0.33519846,0.014365649,9.929058,-0.011392637,0.0066767572,-0.07847419,-0.0014460041420534253,0.03374652564525604,0.5598180890083313,1018.80225,
2021.02.11 12:30:56,50.0,18.0,-11.94,20.4,-32.64,-0.30886146,0.047885496,10.017646,-0.0028405234,-0.0049296827,0.008268672,-0.004777808208018541,0.03082197718322277,0.5618820190429688,1018.79736,
2021.02.11 12:30:56,50.0,18.0,-11.219999,20.58,-32.76,-0.047885496,0.13168511,9.924269,-3.9706242E-4,-0.004318817,0.035146743,-0.013268065638840199,0.00482505327090621,0.49628928303718567,1018.7886,
2021.02.11 12:30:56,50.0,18.0,-10.98,20.279999,-33.0,-0.098165266,0.16520496,10.144543,-0.01872302,0.0036224308,-0.007002959,-0.016282904893159866,0.009676354937255383,0.4973571300506592,1018.7886,
2021.02.11 12:30:57,50.0,18.0,-11.099999,20.279999,-33.239998,-0.22266756,0.09577099,9.826104,0.011209377,-0.0073731435,-0.010057285,-0.009743778966367245,0.022656939923763275,0.5220159888267517,1018.7886,
2021.02.11 12:30:57,50.0,18.0,-11.4,20.34,-33.42,-0.20590763,0.05506832,10.108628,-0.018112155,-0.003707952,0.012544728,-0.005446471739560366,0.020366676151752472,0.5319922566413879,1018.7883,
2021.02.11 12:30:57,50.0,18.0,-11.82,20.1,-32.94,-0.047885496,0.10774237,9.895537,0.0069333203,-6.536258E-4,0.023540303,-0.010887417010962963,0.004839062225073576,0.5297550559043884,1018.7883,
2021.02.11 12:30:57,50.0,18.0,-11.58,20.16,-32.82,-0.13647367,0.10774237,10.060742,-0.0028405234,-6.536258E-4,-0.00944642,-0.01070779375731945,0.013564138673245907,0.5302825570106506,1018.7893,
2021.02.11 12:30:57,50.0,18.0,-11.46,20.22,-32.52,-0.21787901,0.05985687,9.955395,0.0026572638,5.681047E-4,-0.0033377677,-0.006010993849486113,0.021882029250264168,0.5375571250915527,1018.7893,
2021.02.11 12:30:57,50.0,18.0,-11.04,20.1,-32.52,-0.20351335,0.098165266,10.00328,-0.0022296582,0.0036224308,0.0027708847,-0.009810962714254856,0.02034185640513897,0.5203641653060913,1018.79004,
2021.02.11 12:30:57,50.0,18.0,-10.92,20.52,-32.76,-0.13886794,0.083799616,10.051166,0.017318029,-0.0049296827,0.005825211,-0.008336314931511879,0.013815224170684814,0.5004926323890686,1018.79004,
2021.02.11 12:30:57,50.0,18.0,-11.639999,20.46,-32.1,-0.16281068,0.062251143,9.847652,0.017318029,0.0030115657,0.0021600195,-0.006320471875369549,0.016531437635421753,0.5322768092155457,1018.7925,
2021.02.11 12:30:57,50.0,18.0,-11.88,20.64,-31.56,-0.16520496,0.102953814,10.1206,0.009376781,-0.003097087,0.013766459,-0.010170992463827133,0.0163221824914217,0.534037172794342,1018.79175,
2021.02.11 12:30:57,50.0,18.0,-12.36,21.3,-31.14,-0.12689656,0.083799616,9.917087,0.01976149,-0.0049296827,0.008268672,-0.008449130691587925,0.01279505155980587,0.5342867374420166,1018.79175,
2021.02.11 12:30:57,50.0,18.0,-13.139999,21.42,-30.779999,-0.17957062,0.083799616,9.972155,0.0160963,0.0030115657,-0.0057812287,-0.008401800878345966,0.018005257472395897,0.5633838772773743,1018.79175,
2021.02.11 12:30:57,50.0,18.0,-13.44,21.72,-30.779999,-0.17717634,0.08858817,9.881172,0.008155052,0.0036224308,0.0039926153,-0.008963669650256634,0.017928779125213623,0.5665423274040222,1018.79175,
2021.02.11 12:30:57,50.0,18.0,-13.38,22.08,-31.199999,-0.19154198,0.102953814,10.108628,0.0044898596,-0.0012644911,0.005825211,-0.010182566940784454,0.018946098163723946,0.5577154159545898,1018.79126,
2021.02.11 12:30:57,50.0,18.0,-13.62,21.96,-31.679998,-0.19633053,0.0670397,9.885961,0.013041973,-4.2760566E-5,0.0039926153,-0.006779863033443689,0.019856920465826988,0.571103036403656,1018.7927,
2021.02.11 12:30:57,50.0,18.0,-13.62,22.08,-31.56,-0.1987248,0.07422252,10.111023,-0.00711658,0.0017898352,0.010712134,-0.007339203264564276,0.0196517426520586,0.5680327415466309,1018.7927,
2021.02.11 12:30:57,50.0,18.0,-13.559999,22.26,-31.5,-0.07422252,0.15323359,9.991309,0.011820243,-0.0049296827,0.013155594,-0.015335062518715858,0.007428571581840515,0.5452657341957092,1018.7883,
2021.02.11 12:30:57,50.0,18.0,-14.34,21.96,-31.619999,-0.27294734,0.043096945,9.933846,0.023426682,-0.014703526,0.0015491543,-0.0043367305770516396,0.027469590306282043,0.6026759147644043,1018.7954,
2021.02.11 12:30:58,50.0,18.0,-14.5199995,21.72,-30.96,-0.16041641,0.11253092,10.000886,0.0032681292,-0.0049296827,0.011322998,-0.01125017274171114,0.016038844361901283,0.5975168347358704,1018.7954,
2021.02.11 12:30:58,50.0,18.0,-14.16,21.66,-31.019999,-0.11492519,0.117319465,10.000886,0.008155052,-0.0018753563,0.007046941,-0.011729594320058823,0.011490995064377785,0.5828043818473816,1018.7993,
2021.02.11 12:30:58,50.0,18.0,-14.28,21.06,-31.199999,-0.15323359,0.047885496,9.972155,0.009376781,-0.004318817,0.005214346,-0.0048013171181082726,0.015364937484264374,0.6079275012016296,1018.7993,
2021.02.11 12:30:58,50.0,18.0,-13.98,21.18,-30.96,-0.10055954,0.13886794,9.972155,0.009987647,-4.2760566E-5,0.010712134,-0.01392396166920662,0.010083692148327827,0.5843663811683655,1018.8013,
2021.02.11 12:30:58,50.0,18.0,-13.799999,21.3,-31.26,-0.105348095,0.11253092,10.106234,-0.0022296582,0.0109528145,-0.002116037,-0.011133737862110138,0.010423692874610424,0.5781846642494202,1018.8013,
2021.02.11 12:30:58,50.0,18.0,-13.799999,21.359999,-30.96,-0.13886794,0.1340794,9.871595,0.01853976,0.0036224308,-0.0051703635,-0.013580163940787315,0.014066498726606369,0.5789490342140198,1018.80225,
2021.02.11 12:30:58,50.0,18.0,-13.08,21.48,-31.019999,-0.23463893,0.0670397,10.034406,0.0026572638,-6.536258E-4,0.005214346,-0.006679058540612459,0.02337917871773243,0.5668043494224548,1018.79834,
2021.02.11 12:30:58,50.0,18.0,-13.2,21.24,-30.96,-0.13168511,0.12689656,9.972155,0.0142637035,5.681047E-4,0.013155594,-0.012723294086754322,0.013204513117671013,0.5615507960319519,1018.79834,
2021.02.11 12:30:58,50.0,18.0,-13.32,21.06,-31.019999,-0.098165266,0.14605077,9.98652,0.0020463986,0.0072876224,-0.014944207,-0.01462304126471281,0.009829460643231869,0.5646238327026367,1018.79175,
2021.02.11 12:30:58,50.0,18.0,-13.799999,20.939999,-31.14,-0.22027329,0.11492519,9.996098,0.0075441855,0.0054550264,-0.02227459,-0.011493708938360214,0.02203236147761345,0.5972884893417358,1018.79175,
2021.02.11 12:30:58,50.0,18.0,-14.34,20.82,-31.08,-0.15802214,0.13168511,10.005674,0.0020463986,0.009120218,-0.008835555,-0.013158641755580902,0.015791939571499825,0.6098437905311584,1018.7881,
2021.02.11 12:30:58,50.0,18.0,-14.099999,20.939999,-31.199999,-0.16520496,0.13647367,10.000886,-0.0010079277,0.0109528145,-0.0033377677,-0.013643449172377586,0.016517531126737595,0.5999971628189087,1018.78687,
2021.02.11 12:30:58,50.0,18.0,-14.099999,20.939999,-30.72,-0.14605077,0.15083931,9.996098,2.1380284E-4,0.011563679,-0.007613824,-0.015087065286934376,0.014609739184379578,0.5970714688301086,1018.78687,
2021.02.11 12:30:58,50.0,18.0,-13.92,21.0,-30.539999,-0.16759923,0.13647367,9.991309,-0.007727445,0.0036224308,-0.008224689,-0.013656468130648136,0.016772929579019547,0.5930198431015015,1018.78,
2021.02.11 12:30:58,50.0,18.0,-13.74,21.24,-30.539999,-0.19633053,0.08619389,10.039194,0.0038789941,-0.0018753563,-0.003948633,-0.008583885617554188,0.019553910940885544,0.5880618095397949,1018.78,
2021.02.11 12:30:58,50.0,18.0,-14.099999,21.119999,-30.179998,-0.13647367,0.15562786,9.96976,0.0014355333,-0.004318817,0.005825211,-0.015607261098921299,0.013687907718122005,0.5918897986412048,1018.7844,
2021.02.11 12:30:58,50.0,18.0,-14.16,21.42,-30.539999,-0.2083019,0.19393626,10.051166,-0.0034513886,0.0036224308,-0.016165938,-0.01928836852312088,0.020721187815070152,0.5918811559677124,1018.7881,
2021.02.11 12:30:59,50.0,18.0,-14.099999,21.119999,-30.779999,-0.28013015,0.11253092,9.869201,0.0142637035,-0.0049296827,-0.011279016,-0.011397148482501507,0.028376659378409386,0.6089206337928772,1018.7881,
2021.02.11 12:30:59,50.0,18.0,-14.34,20.82,-30.66,-0.21787901,0.10055954,10.091868,-0.00711658,-0.0073731435,0.009490402,-0.009961762465536594,0.021586207672953606,0.6174802780151367,1018.7771,
2021.02.11 12:30:59,50.0,18.0,-14.04,21.0,-30.779999,-0.12929083,0.14365649,10.00328,0.009376781,-0.003097087,0.019875113,-0.01435875240713358,0.012924124486744404,0.5926769375801086,1018.78076,
2021.02.11 12:30:59,50.0,18.0,-13.559999,21.0,-30.779999,-0.22266756,0.12929083,9.921875,-0.0016187929,-6.536258E-4,0.022929437,-0.013026869855821133,0.02243831753730774,0.5874773859977722,1018.78076,
2021.02.11 12:30:59,50.0,18.0,-13.44,21.0,-30.9,-0.22506183,0.10774237,10.029617,-0.00833831,0.0024007002,0.025983764,-0.01073930412530899,0.022435957565903664,0.5851283669471741,1018.77954,
2021.02.11 12:30:59,50.0,18.0,-13.0199995,21.18,-30.779999,-0.11013664,0.15323359,9.974549,0.013652838,-0.005540548,0.037590202,-0.015360312536358833,0.011041317135095596,0.5528998374938965,1018.77954,
2021.02.11 12:30:59,50.0,18.0,-13.0199995,21.24,-30.48,-0.102953814,0.12689656,10.000886,0.00571159,-0.007984009,0.02781636,-0.012687177397310734,0.010294105857610703,0.5525416135787964,1018.7803,
2021.02.11 12:30:59,50.0,18.0,-13.2,21.119999,-30.359999,-0.16041641,0.117319465,10.012857,0.0075441855,-0.005540548,0.010712134,-0.011714842170476913,0.0160196702927351,0.5674199461936951,1018.77783,
2021.02.11 12:30:59,50.0,18.0,-13.259999,21.119999,-30.3,-0.11253092,0.10774237,9.955395,0.0075441855,-0.0018753563,0.008268672,-0.010821397416293621,0.011303029954433441,0.5652278661727905,1018.77783,
2021.02.11 12:30:59,50.0,18.0,-13.139999,21.48,-30.779999,-0.11971374,0.11971374,10.075109,-0.004673119,-6.536258E-4,-0.0045594983,-0.011880730278789997,0.011881569400429726,0.5537567138671875,1018.7783,
2021.02.11 12:30:59,50.0,18.0,-13.139999,21.3,-31.019999,-0.19154198,0.07422252,9.974549,-0.0089491755,-0.0018753563,-0.0045594983,-0.007439680863171816,0.019200710579752922,0.5678308010101318,1018.7783,
2021.02.11 12:30:59,50.0,18.0,-13.2,21.119999,-31.439999,-0.1340794,0.11971374,9.9889145,-0.0034513886,-0.003707952,-0.002116037,-0.01198300626128912,0.013422014191746712,0.5648520588874817,1018.7761,
2021.02.11 12:30:59,50.0,18.0,-13.139999,21.18,-31.199999,-0.11971374,0.14605077,10.072714,-0.0016187929,0.0024007002,-0.02105286,-0.014497604221105576,0.011884395033121109,0.5583494901657104,1018.7761,
2021.02.11 12:30:59,50.0,18.0,-13.5,20.82,-30.72,-0.18435916,0.105348095,9.933846,0.022204952,-0.0018753563,-0.014944207,-0.010602742433547974,0.018556557595729828,0.5871227979660034,1018.7815,
2021.02.11 12:30:59,50.0,18.0,-13.5,21.0,-30.599998,-0.18435916,0.071828246,10.139753,-0.0089491755,0.004233296,-0.014333342,-0.007082536816596985,0.018179815262556076,0.5850956439971924,1018.7888,
2021.02.11 12:30:59,50.0,18.0,-13.5,20.939999,-30.24,-0.090982445,0.15323359,9.929058,0.020372357,0.0030115657,-0.0057812287,-0.01543097011744976,0.009162994101643562,0.5719312429428101,1018.7888,
2021.02.11 12:30:59,50.0,18.0,-13.32,21.359999,-30.539999,-0.17957062,0.11492519,10.024829,0.0032681292,0.0048441617,-0.016776804,-0.011461714282631874,0.01791067235171795,0.5684332251548767,1018.79004,
2021.02.11 12:31:00,50.0,18.0,-13.44,21.359999,-30.72,-0.1987248,0.11971374,9.979338,0.0142637035,0.0036224308,-0.0063920943,-0.011993207968771458,0.019910993054509163,0.5740618109703064,1018.79004,
2021.02.11 12:31:00,50.0,18.0,-14.04,21.3,-30.84,-0.16759923,0.12929083,9.984126,0.0051007248,0.0060658916,9.3828904E-4,-0.012947091832756996,0.016784992069005966,0.5909557342529297,1018.78735,
2021.02.11 12:31:00,50.0,18.0,-14.219999,21.6,-30.779999,-0.18675344,0.12689656,10.027223,0.0014355333,0.0017898352,0.0015491543,-0.012652335688471794,0.018622489646077156,0.5922265648841858,1018.7908,
2021.02.11 12:31:00,50.0,18.0,-14.58,21.119999,-30.539999,-0.12450229,0.14126222,9.98652,0.0014355333,0.004233296,-0.001505172,-0.014143248088657856,0.012466388754546642,0.6068700551986694,1018.7908,
2021.02.11 12:31:00,50.0,18.0,-14.58,21.42,-30.359999,-0.14126222,0.10055954,9.929058,-0.0010079277,0.010341949,-0.0057812287,-0.010126431472599506,0.01422619167715311,0.6046288013458252,1018.7954,
2021.02.11 12:31:00,50.0,18.0,-13.86,21.359999,-30.06,-0.21069619,0.102953814,10.017646,-0.029718593,0.0048441617,-0.014944207,-0.010274612344801426,0.021029405295848846,0.589468777179718,1018.7942,
2021.02.11 12:31:00,50.0,18.0,-13.559999,21.119999,-30.24,-0.16759923,0.098165266,9.972155,-0.019333886,-0.011038335,-0.0063920943,-0.009842230938374996,0.016805140301585197,0.5811839699745178,1018.7942,
2021.02.11 12:31:00,50.0,18.0,-13.38,21.66,-30.179998,-0.22985038,0.09337672,10.139753,-0.038270704,-0.039749,0.030259822,-0.009206348098814487,0.02266436256468296,0.5700475573539734,1018.7937,
2021.02.11 12:31:00,50.0,18.0,-13.38,21.18,-30.24,-0.0071828244,0.14126222,10.127783,-0.013225232,-0.011649201,0.033314146,-0.013947083614766598,7.092197192832828E-4,0.555320680141449,1018.7937,
2021.02.11 12:31:00,50.0,18.0,-13.5,21.48,-30.779999,-0.009577099,0.15323359,10.075109,0.017318029,0.0036224308,-0.027772376,-0.015207944437861443,9.505700436420739E-4,0.5524606704711914,1018.7822,
2021.02.11 12:31:00,50.0,18.0,-13.62,21.84,-30.66,-0.13886794,0.05506832,9.826104,0.019150626,0.0109528145,-0.038767952,-0.005603670142591,0.014131613075733185,0.5681928396224976,1018.7822,
2021.02.11 12:31:00,50.0,18.0,-13.74,21.359999,-30.9,-0.28013015,0.0023942748,10.029617,-0.004062254,0.018283198,-0.020441994,-2.3862739908508956E-4,0.027923034504055977,0.5993369817733765,1018.7827,
2021.02.11 12:31:00,50.0,18.0,-13.5,21.72,-31.26,-0.11492519,0.11013664,9.921875,0.0160963,0.011563679,0.006436076,-0.011099185794591904,0.011582492850720882,0.5609179735183716,1018.78076,
2021.02.11 12:31:00,50.0,18.0,-13.86,21.6,-31.019999,-0.2657645,0.062251143,10.084685,0.0020463986,0.0060658916,0.0021600195,-0.006170618813484907,0.02634717896580696,0.592646062374115,1018.78076,
2021.02.11 12:31:00,50.0,18.0,-13.98,21.24,-31.08,-0.023942748,0.1340794,9.967366,0.025259277,0.019504927,0.022318574,-0.013450987637043,0.0024021093267947435,0.5756747126579285,1018.7805,
2021.02.11 12:31:00,50.0,18.0,-13.74,21.3,-31.14,-0.062251143,0.15083931,9.909904,0.008155052,0.0066767572,-0.003948633,-0.015219593420624733,0.006281627807766199,0.5693931579589844,1018.7805,
2021.02.11 12:31:01,50.0,18.0,-13.679999,21.119999,-30.66,-0.75180227,0.18914771,8.73192,-0.027275134,-0.12465927,-0.010057285,-0.02157844603061676,0.08588635176420212,0.6419680714607239,1018.7798,
2021.02.11 12:31:01,50.0,18.0,-13.679999,21.24,-30.599998,0.22985038,-0.13886794,11.545193,-0.09935723,-0.036694676,0.0027708847,0.012025242671370506,-0.019906122237443924,0.5594996809959412,1018.7798,
