Time,Mag_x,Mag_y,Mag_z,Acc_x,Acc_y,Acc_z,Gyro_x,Gyro_y,Gyro_z,Orn_x,Orn_y,Orn_z,Pressure
2018.03.18 16:51:22,34.92,2.46,-34.14,-0.44773,0.92419,9.94342,-0.03319,-0.10434,0.0862,280.36078,-5.2723,-3.09409,1012.09985
2018.03.18 16:51:22,35.16,1.5,-36.54,-0.32083,0.90504,9.79498,0.0114,-0.09151,0.09353,279.68625,-4.95657,-2.42299,1012.10181
2018.03.18 16:51:22,35.34,1.32,-35.82,-0.57463,1.31925,9.9961,0.01629,-0.04753,0.07704,279.01819,-5.15588,-1.91767,0.01629
2018.03.18 16:51:23,34.14,1.14,-36.6,-0.76377,1.4222,9.99849,0.034,0.02822,0.07032,278.73956,-6.00543,-2.06066,1012.10278
2018.03.18 16:51:23,33.96,1.8,-36.12,-0.63209,1.77895,10.18285,-0.23478,0.10091,7e-05,278.84601,-5.85592,-3.08868,1012.10034
2018.03.18 16:51:23,33.9,2.04,-35.04,-0.66321,1.81007,9.62259,-0.04113,0.0044,0.08559,278.54916,-7.17534,-3.38506,-0.04113
2018.03.18 16:51:23,35.16,1.5,-35.22,-0.84997,1.51797,9.95539,-0.01487,-0.03653,-0.01032,278.7782,-7.7347,-3.62792,-0.01487
2018.03.18 16:51:23,34.02,1.8,-35.34,-0.68716,1.56107,9.97215,-0.03319,0.00256,0.02145,278.96927,-8.0465,-3.5289,1012.0957
2018.03.18 16:51:23,34.14,1.86,-34.8,-0.49801,0.9625,10.78621,-0.07107,-0.13244,0.10025,278.74988,-8.00079,-2.72975,-0.07107
2018.03.18 16:51:23,33.6,1.74,-34.14,0.22267,-0.38069,11.07113,-0.00937,0.02272,-0.04086,278.83017,-6.19082,-2.18675,-0.00937
2018.03.18 16:51:23,34.44,2.1,-34.92,-0.22985,-0.03113,9.47415,0.15923,0.05204,0.00923,278.93149,-3.65973,-1.83204,0.15923
2018.03.18 16:51:23,35.34,1.56,-34.14,-0.39745,0.3352,10.6234,-0.09184,0.0441,-0.20457,278.74301,-2.85806,-1.50261,-0.09184
2018.03.18 16:51:23,33.9,1.8,-33.9,-0.02873,1.00799,9.18204,0.25147,0.12901,-0.0207,278.87589,-3.60559,-1.72968,0.25147
2018.03.18 16:51:24,35.34,1.2,-33.36,0.13887,1.35755,9.2419,0.19466,0.01111,0.00923,278.82196,-4.8293,-1.79293,0.19466
2018.03.18 16:51:24,34.86,1.38,-33.78,-0.32083,1.98964,9.68963,0.01934,0.12229,-0.04819,279.2876,-5.8812,-1.64199,0.01934
2018.03.18 16:51:24,35.64,1.56,-32.94,-0.77335,1.80528,9.98173,0.33333,-0.11228,0.0581,279.4631,-8.28889,-1.73125,1012.10156
2018.03.18 16:51:24,35.94,0.66,-33.12,-0.86433,0.7949,9.92906,0.10486,-0.16543,0.00984,279.2937,-8.03238,-2.20508,0.10486
2018.03.18 16:51:24,34.92,0.48,-31.56,-0.30168,0.31365,9.0336,-0.02464,-0.02737,0.14179,278.5733,-5.77682,-3.28779,-0.02464
2018.03.18 16:51:24,36.24,0.66,-31.92,-0.52913,0.35435,9.97215,-0.20057,-0.04753,-0.00543,278.02307,-3.84206,-3.1522,1012.11011
2018.03.18 16:51:24,35.34,0.72,-32.22,-0.38308,1.22108,9.06233,-0.10894,-0.06708,0.06788,277.03601,-3.61677,-2.75416,1012.11182
2018.03.18 16:51:24,35.58,0,-31.44,0.0431,1.52515,10.08708,-0.11505,-0.13549,0.03672,276.24472,-4.9104,-1.80012,-0.11505
2018.03.18 16:51:24,35.16,0.42,-32.46,-0.51956,1.26418,10.61621,0.02912,0.00195,-0.13676,276.88779,-6.30063,-1.37216,0.02912
2018.03.18 16:51:25,36.12,0.42,-32.76,0.07901,0.45731,10.60664,0.15129,-0.12572,-0.14532,277.16852,-7.15763,-0.88685,0.15129
2018.03.18 16:51:25,35.76,0.78,-32.64,-0.11493,0.17239,9.19641,0.22398,0.08686,-0.07568,278.15002,-5.82262,-0.53353,0.22398
2018.03.18 16:51:25,36.9,1.5,-32.46,0.0407,0.0407,10.12539,-0.16209,0.14428,-0.27177,278.70065,-5.0985,-1.05994,1012.10913
2018.03.18 16:51:25,36.42,2.1,-32.04,-0.30407,1.15404,8.78938,-0.05824,0.19193,-0.04025,279.25735,-4.28041,-2.07108,1012.11157
2018.03.18 16:51:25,36.54,1.98,-31.14,-0.14126,0.92658,9.26345,-0.06923,0.08503,0.02939,278.89655,-4.47467,-2.34028,1012.10254
2018.03.18 16:51:25,36.72,2.46,-30.42,-0.14366,1.59938,9.56034,0.14151,0.07281,-0.0659,279.01215,-5.26977,-2.45482,1012.10156
2018.03.18 16:51:25,36.84,1.62,-29.52,-0.21309,1.6712,10.79578,0.31683,-0.24484,0.0129,279.17572,-6.92917,-1.71002,0.31683
2018.03.18 16:51:25,36.3,1.02,-30.84,-0.44534,0.52674,11.70082,-0.0955,-0.00599,0.01656,279.12991,-6.73975,-1.50753,1012.09741
2018.03.18 16:51:25,37.32,1.86,-31.32,-1.05588,-0.13408,10.00328,-0.14865,-0.07563,-0.09706,279.37302,-5.39213,-1.37064,1012.10571
2018.03.18 16:51:26,37.14,0.42,-30.48,-0.98884,0.21548,9.19162,-0.04663,-0.04264,0.06665,278.39203,-5.68344,-1.50389,-0.04663
2018.03.18 16:51:26,37.14,0.48,-30.96,-0.77096,0.66561,9.45739,-0.01975,-0.07135,0.08498,277.22745,-5.13867,-1.45185,-0.01975
2018.03.18 16:51:26,36.3,-1.02,-30.54,-0.57702,1.11573,9.50048,-0.11261,0.04899,0.14545,275.88815,-4.73719,-2.3476,-0.11261
2018.03.18 16:51:26,35.7,-0.24,-28.92,-0.55787,1.6305,9.88117,-0.08389,0.09053,0.07215,275.0332,-4.94646,-3.43021,-0.08389
2018.03.18 16:51:26,35.58,-1.32,-27.66,-0.2921,0.87152,10.96099,0.07493,-0.09395,-0.06529,275.01083,-5.98867,-3.38162,0.07493
2018.03.18 16:51:26,34.5,-1.92,-27.78,0.01197,0.29689,11.11422,-0.06129,-0.09456,-0.12943,275.48727,-4.86787,-2.3438,-0.06129
2018.03.18 16:51:26,33.36,-1.68,-28.38,-0.01915,-0.10295,9.39274,0.0224,0.00928,-0.0879,276.03815,-4.95053,-2.3818,0.0224
2018.03.18 16:51:26,33.3,-1.68,-27.66,-0.54589,0.2945,8.87797,-0.02892,-0.01943,-0.10805,275.97247,-3.91485,-2.0957,-0.02892
2018.03.18 16:51:26,33.12,-1.92,-28.44,0.08859,0.81645,9.62498,0.09142,-0.06891,0.05688,275.00821,-3.72027,-1.86264,1012.09937
2018.03.18 16:51:27,31.8,-2.46,-28.68,0.07422,1.44375,9.41908,-0.07168,0.02089,-0.0317,274.44891,-4.01718,-1.33354,1012.08789
2018.03.18 16:51:27,32.34,-3.78,-27.24,0.10774,1.91063,10.16609,0.08532,0.05876,-0.0262,273.92447,-5.8515,-0.75302,1012.10254
2018.03.18 16:51:27,31.08,-4.14,-27.36,-0.53153,1.2139,10.66889,0.21054,-0.1245,-0.02192,273.61346,-7.50062,-0.36776,1012.09644
2018.03.18 16:51:27,32.16,-4.44,-26.04,-0.66561,-0.17718,10.9969,-0.2189,0.00501,0.10269,272.46509,-5.86857,-0.85369,1012.10107
2018.03.18 16:51:27,30.78,-5.52,-27.06,-0.42379,0.44773,8.95459,0.10914,0.11557,0.11247,270.92358,-4.88485,-1.47395,1012.09961
2018.03.18 16:51:27,30.84,-5.76,-28.08,-0.54829,0.56505,9.07191,0.0114,0.03494,0.03306,270.10983,-3.5034,-2.00572,0.0114
2018.03.18 16:51:27,30,-6.84,-27,-0.45012,1.05348,9.17965,0.04133,-0.07807,0.16317,268.68262,-3.77031,-2.07816,0.04133
2018.03.18 16:51:27,29.94,-7.32,-27.18,-0.22746,1.36234,10.04638,-0.01487,0.00195,0.07337,267.30066,-4.67245,-1.93578,1012.10303
2018.03.18 16:51:27,29.7,-7.68,-26.76,-0.08141,1.26897,10.36482,0.04866,0.00623,-0.04269,266.9549,-5.79047,-1.97301,0.04866
2018.03.18 16:51:27,28.98,-6.84,-27.06,-0.25858,-0.1245,11.7535,-0.38322,-0.05303,-0.21801,267.28479,-4.81495,-1.51857,-0.38322
2018.03.18 16:51:28,29.1,-6,-26.58,-0.11253,0.05507,9.80455,0.04439,0.0777,0.08009,267.17218,-3.43377,-1.84832,0.04439
2018.03.18 16:51:28,29.34,-5.82,-26.64,-0.32083,0.11971,9.54597,-0.00876,0.08198,0.01229,266.54117,-3.20171,-1.96499,-0.00876
2018.03.18 16:51:28,28.62,-5.46,-26.04,-0.18436,0.70631,8.97135,0.0731,0.04593,0.0074,266.15671,-2.62615,-1.95899,0.0731
2018.03.18 16:51:28,28.68,-4.8,-26.88,0.02634,1.07264,9.43105,-0.0112,0.04777,-0.01642,265.67014,-2.99966,-1.72746,-0.0112
2018.03.18 16:51:28,28.74,-5.1,-26.46,0.15802,1.3815,9.6609,0.04744,-0.02065,-0.07446,265.2301,-4.47711,-1.06269,0.04744
2018.03.18 16:51:28,28.56,-4.44,-26.64,-0.32083,0.73025,11.42069,-0.08817,-0.11656,-0.15204,265.80597,-4.81039,-0.45887,-0.08817
2018.03.18 16:51:28,27.66,-4.02,-27.12,-0.65364,-0.48604,11.07592,-0.06984,-0.15993,0.08254,265.33722,-4.17672,-0.43647,1012.09863
2018.03.18 16:51:28,26.52,-4.74,-27.24,-0.44534,-0.03591,9.19162,0.1971,-0.00904,0.16134,264.33777,-3.72174,-0.45592,1012.09106
2018.03.18 16:51:28,26.58,-4.86,-27.3,-0.14845,0.56505,8.98092,0.1745,0.02394,0.12591,263.55676,-4.04728,-0.31512,1012.09033
2018.03.18 16:51:29,27.48,-5.34,-27.06,-0.01915,0.8763,9.18204,-0.18774,0.10702,0.09964,262.80032,-4.10863,-0.91755,-0.18774
2018.03.18 16:51:29,26.28,-5.1,-26.94,0.06943,0.90982,10.43186,-0.15659,0.18643,0.07521,262.30774,-3.14798,-1.59781,1012.08643
2018.03.18 16:51:29,27.42,-5.04,-27.12,-0.49561,0.66561,11.07831,0.02484,0.1339,-0.03597,262.64209,-3.59965,-1.94873,1012.0813
2018.03.18 16:51:29,26.46,-3.96,-27.48,-0.4621,-0.08859,10.66649,-0.00448,-0.10861,-0.03597,262.81714,-4.09168,-1.62305,-0.00448
2018.03.18 16:51:29,26.04,-3.78,-27.84,-0.11493,0.2921,9.86202,-0.03075,0.01234,0.06238,263.17194,-2.68858,-1.47814,-0.03075
2018.03.18 16:51:29,26.34,-4.08,-27.54,-0.2514,0.42618,9.23711,-0.01853,0.00256,-0.0769,263.59534,-2.22323,-1.05461,1012.08911
2018.03.18 16:51:29,26.7,-3.84,-28.02,0.13647,0.8356,8.75826,0.08776,0.07098,0.03794,263.83408,-2.95839,-1.10305,0.08776
2018.03.18 16:51:29,26.58,-2.46,-27.78,0.23943,0.98644,9.60344,-0.04358,0.03188,-0.02009,264.26956,-3.28908,-0.56581,-0.04358
2018.03.18 16:51:29,26.58,-2.7,-28.32,0.26098,1.40305,10.51565,0.07127,-0.12205,-0.02009,264.73737,-4.24884,-0.07981,0.07127
2018.03.18 16:51:29,25.56,-3.18,-29.28,0.01437,0.84757,10.84846,-0.08451,0.06059,0.00618,265.21933,-5.27916,0.51613,0.12013
2018.03.18 16:51:30,25.74,-2.34,-28.08,-0.34956,-0.45491,10.86761,-0.11871,-0.2033,0.02084,265.58084,-4.06144,0.53773,-0.11871
2018.03.18 16:51:30,24.72,-1.86,-29.82,-0.20112,0.11732,9.11022,0.18977,-0.08235,0.17783,265.22803,-3.51054,0.12563,0.18977
2018.03.18 16:51:30,25.56,-2.7,-30.3,-0.13169,0.50519,9.6585,-0.00815,-0.04386,0.18577,264.82928,-3.16133,-0.00067,-0.00815
2018.03.18 16:51:30,24.42,-2.58,-31.08,-0.13408,1.13967,9.15571,0.04255,0.04105,0.08254,264.43832,-3.60322,-0.22027,1012.09131
2018.03.18 16:51:30,23.88,-2.46,-30,-0.18915,1.37192,9.88117,-0.01792,0.08075,-0.03719,264.98868,-4.68149,-0.84957,1012.09888
2018.03.18 16:51:30,24,-2.16,-30.36,0.1676,1.28573,10.9562,0.04683,-0.08296,-0.03109,266.07565,-6.00999,-0.34957,1012.10059
2018.03.18 16:51:30,24.24,-1.74,-30.72,0.23703,-0.5435,12.00489,-0.4608,0.08686,-0.22168,267.49323,-5.18847,-0.04663,1012.10083
2018.03.18 16:51:30,24,0,-31.62,0.44055,0.30407,9.37598,0.16167,0.0496,0.02511,268.80099,-3.75657,-0.32666,0.16167
2018.03.18 16:51:30,24.42,-0.48,-30,-0.17478,0.0407,10.27144,-0.17125,0.1339,-0.25955,270.35205,-3.22869,-0.67949,1012.10718
2018.03.18 16:51:31,23.88,1.32,-30.72,0.15323,0.80926,8.9067,0.18122,0.01722,0.02267,271.28088,-3.73491,-0.85967,1012.11011
2018.03.18 16:51:31,24.6,0.72,-31.2,0.02634,0.93377,9.31133,0.07127,0.09175,-0.08057,272.11145,-4.29906,-0.92838,0.07127
2018.03.18 16:51:31,24.48,0.6,-30.6,-0.14845,1.24981,9.73273,0.10181,0.04532,-0.01642,272.77844,-5.30714,-1.38885,0.10181
2018.03.18 16:51:31,24.18,1.14,-31.5,-0.09577,1.44854,10.96099,-0.15842,-0.03287,0.10636,273.31647,-5.58435,-1.28961,-0.15842
2018.03.18 16:51:31,23.7,1.38,-31.62,-0.03831,-0.06943,11.73674,-0.13093,-0.05791,0.0355,273.78387,-4.70358,-0.6815,-0.13093
2018.03.18 16:51:31,23.64,1.74,-31.56,-0.65364,0.06943,8.52362,0.32844,0.00806,0.01106,274.66516,-4.85207,-0.53404,0.32844
2018.03.18 16:51:31,23.94,1.14,-32.46,-0.26816,0.41182,8.94262,0.02301,-0.03348,0.11919,274.72916,-3.48763,-1.22342,0.02301
2018.03.18 16:51:31,22.86,1.5,-33.06,-0.06465,1.13489,9.4095,-0.01303,-0.06585,0.09414,274.42831,-3.68079,-1.23253,1012.09912
2018.03.18 16:51:31,23.22,0.72,-32.94,-0.11971,1.43178,9.87638,0.03339,0.06426,-0.11661,275.21933,-4.36183,-1.29181,1012.10229
2018.03.18 16:51:32,23.64,1.26,-33.12,-0.15563,1.23784,11.12859,0.04317,-0.0237,-0.13554,276.43359,-5.52255,-1.22276,1012.10376
2018.03.18 16:51:32,22.14,1.68,-33.24,0.40224,0.27055,11.92109,-0.03564,-0.13061,-0.12333,277.85394,-5.7748,-0.73336,1012.09766
2018.03.18 16:51:32,21.78,2.1,-33.96,0.30647,-0.13408,9.5771,0.10975,0.06793,-0.08057,279.24084,-5.38263,-0.24717,1012.0957
2018.03.18 16:51:32,23.04,3,-34.08,-0.27055,0.5866,9.1581,-0.15964,0.19682,-0.1331,280.17639,-4.43472,-0.75522,-0.15964
2018.03.18 16:51:32,22.26,3.12,-34.32,0.20591,0.9194,9.3664,0.09509,0.12229,0.07398,280.44281,-4.19726,-1.5085,0.09509
2018.03.18 16:51:32,22.08,3.18,-33.66,0.05507,1.27136,8.95938,0.07188,0.10458,0.0862,280.48932,-4.91841,-1.49857,1012.08325
2018.03.18 16:51:32,22.92,2.82,-33.72,-0.09817,1.49403,10.50129,-0.01975,0.02089,0.0917,280.39191,-6.02997,-1.2854,-0.01975
2018.03.18 16:51:32,22.74,2.22,-33.84,0.07183,1.25699,10.75748,0.1183,-0.21491,0.06726,280.5589,-7.21491,-0.42894,0.1183
2018.03.18 16:51:32,22.92,2.94,-34.02,-0.23703,0.11493,10.74072,-0.1908,-0.04508,0.01534,280.86642,-6.18094,-0.8101,-0.1908
2018.03.18 16:51:32,22.8,2.58,-33.84,-0.54111,0.30647,8.56432,0.08776,0.05143,0.18455,280.59033,-5.47667,-0.79475,0.08776
2018.03.18 16:51:33,22.32,2.16,-34.2,-0.23943,0.47407,9.30176,-0.07168,0.00195,0.17966,279.87448,-4.3726,-1.40628,-0.07168
2018.03.18 16:51:33,22.5,2.1,-34.62,-0.06704,1.05348,9.31373,-0.06801,-0.0683,0.19432,278.9545,-4.04107,-1.17245,-0.06801
2018.03.18 16:51:33,22.32,1.68,-33.78,-0.1269,1.39586,9.704,-0.00143,0.01478,0.02023,278.89728,-4.11086,-1.31548,1012.08325
2018.03.18 16:51:33,23.52,2.34,-33.66,-0.28252,1.24742,10.56594,0.07554,0.016,-0.10744,279.77435,-5.24829,-1.68913,1012.08691
2018.03.18 16:51:33,22.92,2.82,-34.32,-0.42379,1.09897,10.54199,0.12685,-0.05975,-0.1221,281.1449,-6.1191,-1.62382,1012.09424
2018.03.18 16:51:33,22.2,3,-34.08,-0.43336,-0.35435,10.91789,-0.19874,-0.12205,-0.17342,282.5592,-5.01287,-1.23004,1012.09277
2018.03.18 16:51:33,22.2,3.48,-34.44,0.03591,-0.08141,10.07032,0.05416,0.00623,-0.15509,283.23532,-3.43523,-0.80784,1012.08984
2018.03.18 16:51:33,22.62,3.9,-34.5,-0.14366,0.72068,9.00247,0.16656,0.04899,-0.07751,283.99353,-2.708,-0.82473,0.16656
2018.03.18 16:51:33,22.86,3.6,-35.1,0.13408,0.72307,9.63456,0.09509,0.00989,-0.04697,284.32709,-3.56864,-0.96969,1012.09277
2018.03.18 16:51:34,22.44,3.54,-35.1,-0.28492,1.35277,9.10782,0.02484,0.09908,-0.0824,284.86432,-4.60726,-1.18999,1012.09595
2018.03.18 16:51:34,22.92,3.42,-34.68,-0.23464,1.45811,10.89395,-0.10589,-0.03898,0.01839,284.99869,-5.52021,-1.26188,-0.10589
2018.03.18 16:51:34,22.92,4.44,-34.38,-0.22506,1.05348,11.22915,-0.07534,0.00134,0.11064,284.90796,-5.58903,-1.09681,-0.07534
2018.03.18 16:51:34,22.92,4.5,-35.34,-0.80208,-0.67279,11.53801,0.05538,-0.12816,0.13568,285.08899,-4.69135,-0.77326,1012.10132
2018.03.18 16:51:34,22.56,3.36,-35.1,-0.99841,-0.21788,9.56513,0.02545,-0.04264,0.14301,284.2326,-2.57363,-1.78425,0.02545
2018.03.18 16:51:34,22.26,2.52,-34.8,-0.40942,0.52195,9.51724,0.01995,-0.0066,0.24869,282.70248,-2.0124,-2.03806,0.01995
2018.03.18 16:51:34,22.68,2.16,-36,-0.22027,1.30967,9.10782,0.01201,0.06243,0.11247,281.2666,-2.63618,-2.05621,0.01201
2018.03.18 16:51:34,22.5,1.74,-35.58,-0.31126,1.32164,10.02722,-0.01853,0.11252,-0.02253,280.90894,-4.08798,-2.3264,-0.01853
2018.03.18 16:51:34,23.88,1.5,-34.86,-0.35914,1.36474,10.79339,0.08898,0.04654,0.00373,280.99634,-5.43655,-2.10271,0.08898
2018.03.18 16:51:35,23.22,0.42,-35.52,-0.53871,0.54829,11.20999,-0.01609,0.11924,-0.09462,281.29846,-5.76675,-2.47885,1012.08691
2018.03.18 16:51:35,22.8,0.6,-35.52,0.02394,0.20591,10.11581,0.04255,-0.04936,-0.01398,281.44052,-4.45788,-2.0628,1012.09302
2018.03.18 16:51:35,24.18,1.02,-35.64,-0.28013,0.54111,9.18444,0.04255,0.05693,-0.27177,281.87637,-4.49865,-1.71883,1012.09033
2018.03.18 16:51:35,23.1,-0.06,-36.06,-0.14845,1.17559,8.34644,0.15434,-0.00416,-0.06224,282.31979,-4.99221,-1.89937,0.15434
2018.03.18 16:51:35,23.22,1.26,-36.06,0.18436,1.22587,9.12937,-0.00204,-0.00965,-0.105,282.5614,-5.36161,-1.6121,1012.08643
2018.03.18 16:51:35,23.58,0.96,-36.24,-0.20591,1.78134,10.11821,-0.07901,-0.01699,0.02878,282.45667,-5.64119,-1.25784,1012.0874
2018.03.18 16:51:35,23.7,0.24,-36.72,-0.61054,1.50839,10.81494,0.07798,0.03005,0.09231,281.98175,-6.85379,-1.40413,0.07798
2018.03.18 16:51:35,23.76,1.2,-35.22,-0.83321,-0.11253,11.97616,-0.12971,-0.16726,0.176,281.15958,-5.99224,-1.72229,-0.12971
2018.03.18 16:51:35,23.82,-0.66,-36.42,-0.05986,0.39266,9.27063,0.27468,-0.1416,0.37209,279.30231,-6.64923,-1.27988,1012.08984
2018.03.18 16:51:35,23.22,-1.68,-37.5,-0.09338,0.7542,9.09106,0.02912,-0.10617,0.13751,277.79465,-6.98325,-0.32744,0.02912
2018.03.18 16:51:36,23.22,-1.86,-37.62,0.07901,1.42938,8.866,-0.00693,0.05815,-0.11416,277.84711,-6.85713,-0.4712,-0.00693
2018.03.18 16:51:36,24.66,-1.5,-38.34,0.08859,1.40065,10.10145,-0.09489,0.07892,-0.24794,278.89902,-6.55144,-0.67937,-0.09489
2018.03.18 16:51:36,25.08,-0.78,-37.98,-0.55068,1.23784,10.93944,0.08348,-0.12083,-0.25894,280.61523,-7.02275,-0.84836,1012.0874
2018.03.18 16:51:36,24.12,-0.18,-37.68,-0.28731,0.04789,11.92349,-0.36489,0.03433,-0.34385,281.99844,-6.36806,-0.46567,1012.08154
2018.03.18 16:51:36,25.32,1.62,-37.44,-0.42618,0.249,9.05994,0.02912,-0.0347,-0.2345,283.17972,-5.53497,-0.65021,1012.08521
2018.03.18 16:51:36,24.48,1.38,-38.34,-0.2107,0.47167,10.01525,-0.10833,-0.00477,-0.17158,283.59427,-4.62244,-0.61046,1012.08081
2018.03.18 16:51:36,25.44,2.88,-37.8,0.00718,1.38629,8.87797,0.08165,0.11496,0.06726,283.64914,-4.56807,-1.14025,1012.08032
2018.03.18 16:51:36,25.56,1.56,-37.02,-0.42139,1.45093,9.36401,-0.04785,0.07831,-0.03109,283.46149,-5.38232,-1.39311,-0.04785
2018.03.18 16:51:36,26.4,2.52,-37.14,-0.04549,1.78134,10.00567,0.06943,0.03005,0.11064,283.2645,-6.49127,-1.95718,0.06943
2018.03.18 16:51:37,26.52,1.92,-37.02,0.03831,1.23784,10.26665,0.20138,-0.12144,0.08254,282.9494,-7.82168,-1.24508,1012.08057
2018.03.18 16:51:37,26.16,1.68,-36.66,-0.29928,0.12211,10.05595,-0.13643,0.01417,0.06238,282.82257,-6.46188,-1.31009,-0.13643
2018.03.18 16:51:37,24.9,3.78,-35.1,-0.74223,0.1269,9.12698,0.09814,0.02822,0.23342,282.31406,-4.9224,-1.21085,0.09814
2018.03.18 16:51:37,26.16,2.28,-36.12,-0.46688,0.14605,9.96976,-0.11871,-0.04875,0.29512,281.26993,-4.18923,-1.6233,-0.11871
2018.03.18 16:51:37,25.44,2.16,-35.46,-0.25379,0.7949,9.05754,0.03767,-0.03714,0.24869,279.70883,-4.1844,-1.61605,0.03767
2018.03.18 16:51:37,26.52,1.32,-35.1,-0.22267,1.07264,9.66569,-0.02525,-0.0237,0.15217,278.57999,-4.20161,-1.36034,-0.02525
2018.03.18 16:51:37,26.22,1.5,-35.46,-0.21309,1.35995,10.04877,0.03034,0.00745,0.00862,278.47134,-4.84568,-1.35279,0.03034
2018.03.18 16:51:37,27.24,1.92,-35.34,-0.43815,1.57304,10.04398,0.14823,-0.12144,-0.06285,278.93054,-5.91098,-1.12001,1012.09155
2018.03.18 16:51:37,27.42,2.34,-35.28,-0.05986,0.22985,11.30816,0.09814,-0.27172,-0.15692,280.43951,-5.62899,-1.21852,1012.0896
2018.03.18 16:51:38,25.98,2.16,-34.98,0.32562,0.0407,9.0767,0.12441,-0.05119,-0.22656,281.74161,-6.15623,-0.74588,0.12441
2018.03.18 16:51:38,26.22,2.04,-34.98,-0.60096,0.58899,9.534,-0.16819,0.03738,-0.27604,283.33273,-5.21861,-0.92575,1012.08862
2018.03.18 16:51:38,26.76,3.48,-34.86,-0.2107,1.09658,9.3664,0.08348,-0.03837,-0.02314,283.75787,-5.53489,-1.09397,1012.08862
2018.03.18 16:51:38,27.42,3.36,-34.68,-0.34478,1.44614,9.86441,-0.03808,0.08747,0.01045,284.0293,-5.61457,-1.74296,-0.03808
2018.03.18 16:51:38,26.58,3.18,-33.9,0.06465,1.64247,10.27144,0.05722,0.06487,0.13507,283.41315,-7.01189,-1.7549,0.05722
2018.03.18 16:51:38,26.82,3.42,-33.06,-0.1245,0.90504,11.40633,-0.28548,-0.02309,0.02084,283.28973,-6.95795,-1.42432,-0.28548
2018.03.18 16:51:38,26.22,2.64,-33.6,-0.6704,-0.18915,10.81494,-0.12788,-0.13061,0.0074,283.24329,-4.79331,-1.01429,-0.12788
2018.03.18 16:51:38,26.34,2.82,-34.56,-0.85476,0.11014,9.50767,-0.12238,-0.02737,0.02389,282.77988,-4.71131,-0.98857,-0.12238
2018.03.18 16:51:38,27.48,2.16,-32.82,-0.37111,0.64885,9.23951,-0.00631,-0.06402,0.1595,281.8714,-3.75482,-0.89099,-0.00631
2018.03.18 16:51:39,24.9,2.4,-32.64,0.17957,1.11573,9.62259,-0.07046,0.03555,0.0917,280.92163,-3.77527,-0.91363,-0.07046
2018.03.18 16:51:39,25.14,2.52,-32.28,-0.39027,1.36953,9.63935,0.04866,0.04899,-0.08301,281.28445,-4.54177,-1.07566,0.04866
2018.03.18 16:51:39,25.02,3.3,-32.82,-0.67519,1.19235,10.96817,0.04255,0.04532,-0.08728,282.20282,-5.63638,-1.51622,1012.09033
2018.03.18 16:51:39,24.84,3.3,-31.44,-0.37351,0.15563,11.19084,-0.11566,0.06426,-0.27787,283.72592,-4.93866,-1.50332,1012.08936
2018.03.18 16:51:39,23.64,2.76,-31.98,0.45491,-0.0431,9.44541,0.12502,-0.01027,-0.11661,284.36371,-5.41212,-1.25349,1012.09131
2018.03.18 16:51:39,23.94,4.14,-31.38,-0.19394,0.43815,9.20599,0.08348,0.04471,-0.1221,285.64478,-4.84045,-1.09491,0.08348
2018.03.18 16:51:39,24.12,3.72,-31.32,-0.0838,1.32164,8.83727,0.10853,0.06304,-0.05308,286.07123,-5.25401,-1.22508,1012.09692
2018.03.18 16:51:39,24.24,4.08,-30.84,-0.32562,1.50121,10.20919,-0.17797,0.05204,-0.12699,286.51208,-5.18741,-0.96008,1012.10107
2018.03.18 16:51:39,23.58,4.86,-30.96,-0.57941,1.72867,10.71438,0.04439,0.00256,0.12407,286.25378,-6.68353,-1.25263,0.04439
2018.03.18 16:51:39,23.76,4.38,-30.54,-0.65364,0.33759,11.90433,-0.19324,0.11863,0.23647,285.1763,-6.77987,-1.6714,-0.19324
2018.03.18 16:51:40,24.72,3,-30.9,0.01197,-0.35435,10.38876,0.20871,-0.01271,0.36109,283.50742,-6.51251,-1.1723,0.20871
2018.03.18 16:51:40,24.72,2.82,-31.2,-0.7949,0.34478,9.17965,-0.0112,0.01478,0.07398,282.7981,-6.24728,-1.11331,-0.0112
2018.03.18 16:51:40,24.3,3,-31.32,-0.18915,0.92898,9.18923,0.1012,-0.02981,0.25847,281.8573,-6.12403,-1.16196,0.1012
2018.03.18 16:51:40,24.18,2.88,-31.14,-0.42858,1.30488,10.23074,-0.06679,0.09969,-0.05735,282.45328,-5.97428,-1.94499,1012.08521
2018.03.18 16:51:40,24.84,3.06,-31.86,-0.21309,1.506,10.72156,0.02667,0.04044,-0.01459,282.72794,-6.55618,-2.02817,1012.09253
2018.03.18 16:51:40,25.02,4.86,-32.46,-0.47167,0.20591,11.15493,-0.09428,-0.08662,-0.20824,284.34875,-5.0412,-1.35353,-0.09428
2018.03.18 16:51:40,24.3,4.44,-32.76,0.49083,0.34956,9.51245,0.10608,-0.04814,-0.30048,285.41089,-5.44669,-0.89393,0.10608
2018.03.18 16:51:41,23.82,5.88,-34.2,-0.26337,0.97926,8.69601,0.19283,-0.05058,-0.21801,288.48517,-5.75895,-0.62895,0.19283
2018.03.18 16:51:41,23.58,5.4,-33.18,-0.63927,1.03672,9.29218,-0.05824,0.03066,-0.19113,290.16727,-6.10862,-1.04703,1012.09619
2018.03.18 16:51:41,24.18,7.08,-32.88,-0.59378,1.71191,9.47893,-0.01731,0.10946,0.08009,290.53873,-6.0989,-1.90823,1012.09229
2018.03.18 16:51:41,23.16,6.18,-32.82,-0.76377,1.46051,11.09028,-0.13154,0.15772,0.34826,289.82483,-6.4244,-2.73641,-0.13154
2018.03.18 16:51:41,23.76,6.24,-32.16,-0.28731,-0.04549,11.07113,-0.18285,-0.04386,0.3165,288.32132,-5.73485,-2.51748,1012.09033
2018.03.18 16:51:41,23.16,5.58,-31.98,0.09338,0.15563,8.84445,0.20321,-0.0738,0.31711,286.62985,-5.8103,-1.85902,1012.0918
2018.03.18 16:51:41,25.26,4.5,-33.6,-0.22985,0.47167,9.39035,-0.11994,0.05754,0.05321,286.37466,-4.93801,-1.63239,-0.11994
2018.03.18 16:51:41,25.56,4.68,-33.48,-0.3759,0.82842,9.28979,-0.10772,0.06793,0.00496,286.24112,-4.36049,-1.8295,-0.10772
2018.03.18 16:51:41,25.26,5.64,-31.86,-0.35914,1.08461,9.72554,-0.05641,0.06243,-0.0488,286.44379,-4.15487,-2.00161,-0.05641
2018.03.18 16:51:41,24.54,5.46,-31.38,-0.18915,1.05588,10.73353,0.05172,0.03066,0.03061,286.69531,-4.79035,-2.11326,0.05172
2018.03.18 16:51:42,25.14,4.86,-32.46,-0.01437,0.15084,11.63139,-0.00326,-0.17398,-0.11172,287.30945,-4.82305,-1.25236,-0.00326
2018.03.18 16:51:42,25.14,6.96,-32.64,-0.47885,-0.19154,11.0807,-0.15292,0.01845,-0.14593,288.61789,-3.06851,-1.26978,-0.15292
2018.03.18 16:51:42,25.98,7.38,-33.42,-0.00958,0.11014,9.40711,0.04866,0.16444,-0.14837,289.22943,-3.38627,-1.74715,1012.10107
2018.03.18 16:51:42,26.28,6.96,-33.36,-0.01915,0.77335,8.71995,0.30339,-0.08113,0.05688,289.97852,-3.35673,-1.45788,1012.10059
2018.03.18 16:51:42,26.16,6.18,-33.06,0.15563,1.20671,8.82769,0.06638,-0.03226,-0.05674,289.99054,-4.14491,-1.10525,1012.09985
2018.03.18 16:51:42,25.74,7.8,-32.16,-0.10535,1.53234,9.96737,0.05294,0.03555,-0.15815,290.7421,-5.1023,-0.78688,1012.09937
2018.03.18 16:51:42,27.12,7.26,-32.76,-0.34238,1.23066,10.86043,0.12075,-0.05975,0.00373,290.90588,-6.94857,-0.55042,1012.09351
2018.03.18 16:51:42,27.24,6.66,-32.46,-0.11971,0.39266,11.69364,-0.08634,-0.04081,0.13202,290.27441,-6.66103,-0.6027,-0.08634
2018.03.18 16:51:42,27.48,6.18,-32.76,-0.02155,-0.01915,9.534,0.14396,-0.03348,0.16867,289.46255,-5.48941,-0.46319,1012.09033
2018.03.18 16:51:43,28.38,6.06,-33.06,-0.77575,0.39984,9.86202,-0.08695,-0.05608,0.00373,289.01624,-3.37106,-0.66825,1012.09106
2018.03.18 16:51:43,28.62,5.4,-33.6,-0.44294,0.92898,8.7822,0.03584,0.00806,0.06238,288.10321,-3.51025,-1.40531,0.03584
2018.03.18 16:51:43,28.68,5.1,-33.18,-0.22746,1.26418,9.51964,-0.09672,0.06731,0.07154,287.3829,-3.98112,-2.04173,-0.09672
2018.03.18 16:51:43,28.38,5.1,-31.38,-0.22506,1.23545,10.43904,0.07065,-0.06036,0.02939,287.12787,-4.87486,-2.0374,0.07065
2018.03.18 16:51:43,29.04,5.34,-32.16,-0.15323,0.18675,10.64734,-0.37955,-0.09701,-0.08973,286.95496,-5.39427,-1.412,-0.37955
2018.03.18 16:51:43,28.62,6.18,-32.58,-0.32083,-0.18675,11.77265,-0.57075,-0.08418,-0.14165,287.40622,-2.24392,-0.71617,-0.57075
2018.03.18 16:51:43,28.26,6.24,-32.58,0.7542,0.51956,8.96895,0.21054,0.01234,-0.01398,287.07965,-3.12642,-0.35671,0.21054
2018.03.18 16:51:43,29.76,5.88,-34.32,0.44534,1.13489,9.26105,0.11219,-0.02065,-0.14348,288.88681,-4.82765,-0.50007,1012.08081
2018.03.18 16:51:44,30.06,5.58,-34.02,0.18675,1.81007,9.32809,0.31683,0.01722,-0.05491,289.52802,-5.75201,-0.50025,0.31683
2018.03.18 16:51:44,30.84,5.28,-35.1,-0.01676,1.13967,10.48453,0.15129,-0.10861,-0.02437,289.58176,-7.18118,-0.24141,1012.08569
2018.03.18 16:51:44,31.32,5.16,-34.62,-0.71349,0.17957,11.59308,-0.25799,0.07281,0.02328,289.32858,-5.75165,-1.01558,1012.09082
2018.03.18 16:51:44,31.92,5.82,-35.34,-0.39266,0.10295,9.51245,0.06455,-0.12755,0.20043,287.84113,-5.34955,-0.85187,0.06455
2018.03.18 16:51:44,31.98,4.08,-35.82,-0.51477,0.38548,9.71357,-0.07595,-0.13427,0.16745,286.27512,-4.73852,-0.34714,-0.07595
2018.03.18 16:51:44,31.38,3.78,-36.24,-0.62491,0.7925,9.115,0.08593,-0.02248,0.24686,284.6275,-4.77616,-0.17984,1012.09863
2018.03.18 16:51:44,32.22,2.04,-36.72,0.27055,1.44375,8.98811,-0.05518,0.09053,0.30733,282.39349,-4.80414,-0.41506,-0.05518
2018.03.18 16:51:44,32.52,2.64,-36.6,0.02634,1.47966,10.08947,0.0224,0.06487,0.04405,281.9783,-4.80929,-0.71768,0.0224
2018.03.18 16:51:44,32.22,3.24,-36.6,0.02873,0.18915,11.59547,-0.20546,0.19315,-0.0995,282.42136,-4.09094,-1.29172,1012.08887
2018.03.18 16:51:45,33.54,4.68,-36.78,0.73025,0.22506,9.92666,-0.08634,-0.02554,-0.21312,283.16122,-3.5455,-1.32132,-0.08634
2018.03.18 16:51:45,33.12,4.32,-37.2,0.01676,0.81645,9.10303,0.21543,0.03738,-0.14715,284.48416,-3.59444,-0.37503,1012.08984
2018.03.18 16:51:45,33.6,5.4,-37.74,-0.44294,1.09658,9.39035,0.04317,0.09236,-0.22412,285.81476,-3.93834,-0.84361,1012.08936
2018.03.18 16:51:45,33.9,6.48,-37.56,-0.42379,1.64726,10.90113,0.21299,0.02272,-0.01581,286.16003,-5.06767,-1.33783,1012.0791
2018.03.18 16:51:45,33.66,4.8,-37.68,-0.27534,1.36953,9.88836,-0.03747,0.11374,0.05444,285.75146,-7.07034,-1.29024,-0.03747
2018.03.18 16:51:45,34.14,4.98,-37.74,-0.72786,-0.55308,11.87081,-0.44736,-0.108,-0.01765,285.51843,-5.14835,-1.32623,1012.08105
2018.03.18 16:51:45,34.56,5.4,-38.04,-0.59139,0.29928,8.59545,0.0847,0.0105,0.2096,284.2356,-4.82734,-1.44351,1012.08301
2018.03.18 16:51:45,34.62,5.28,-37.44,-0.26576,0.55787,9.4526,-0.07962,-0.05364,0.22487,283.43445,-3.48889,-1.42207,-0.07962
2018.03.18 16:51:45,34.62,5.04,-37.74,-0.22746,1.03193,9.30894,0.02973,-0.09945,0.14545,282.242,-3.51106,-1.03117,0.02973
2018.03.18 16:51:46,35.28,3.96,-38.7,-0.46688,1.20432,10.2451,0.1128,0.04288,-0.03903,281.86667,-4.15257,-1.10811,0.1128
2018.03.18 16:51:46,35.64,3,-38.82,-0.20591,1.15404,10.67607,0.12441,-0.04814,0.05016,281.80051,-5.81228,-1.12835,0.12441
2018.03.18 16:51:46,35.1,3.48,-40.02,0,-0.0838,12.18207,-0.51639,-0.02493,-0.08912,282.01273,-4.24822,-0.84416,-0.51639
2018.03.18 16:51:46,34.74,4.5,-40.44,0.39745,-0.11493,10.3696,-0.00143,0.027,0.02756,282.41592,-2.78619,-0.91876,-0.00143
2018.03.18 16:51:46,34.56,5.58,-40.68,-0.20351,0.03352,9.75428,0.01507,0.10397,-0.25161,282.88553,-3.03962,-0.97926,0.01507
2018.03.18 16:51:46,35.22,4.32,-39.96,-0.13647,0.54829,8.71277,0.26735,0.10824,0.00801,283.21222,-3.46792,-1.4398,0.26735
2018.03.18 16:51:46,35.58,3.78,-40.44,-0.17239,0.88349,9.54119,0.14762,0.02639,-0.0378,283.1666,-4.15295,-1.62684,1012.08984
2018.03.18 16:51:46,35.46,2.76,-40.38,-0.22506,1.09897,10.20201,0.18428,-0.11167,0.01962,282.76877,-5.20115,-1.15843,1012.08618
2018.03.18 16:51:46,34.62,2.64,-40.44,-0.07901,1.26897,11.42548,-0.22256,0.07831,0.10636,281.96616,-5.31982,-1.3141,1012.08423
2018.03.18 16:51:47,34.38,2.7,-40.02,-0.25858,0.19154,11.68406,0.02117,-0.17764,0.0917,281.22888,-4.36429,-0.89912,0.02117
2018.03.18 16:51:47,33.06,1.98,-39.42,-0.72068,0.45731,8.33208,0.22643,-0.02615,0.15217,280.44016,-4.72023,-0.60869,1012.09277
2018.03.18 16:51:47,33.06,2.16,-40.08,-0.57223,0.56984,8.95459,0.05477,-0.05425,0.12041,279.99393,-3.72856,-1.77685,1012.08716
2018.03.18 16:51:47,32.1,1.44,-41.16,-0.40942,0.72307,9.48372,-0.02953,-0.03226,0.0862,279.19406,-3.47771,-1.98708,-0.02953
2018.03.18 16:51:47,31.38,1.62,-41.34,-0.04789,1.0439,10.36721,0.00163,0.04288,-0.01093,278.66843,-3.63029,-1.96035,0.00163
2018.03.18 16:51:47,31.68,0.78,-41.22,-0.20351,1.07503,10.79578,0.03156,0.00501,0.02939,278.68738,-4.311,-1.90794,1012.08521
2018.03.18 16:51:47,32.16,1.74,-40.62,0.34478,-0.04789,11.94264,-0.30014,-0.02065,-0.1783,279.41879,-3.18675,-1.47141,-0.30014
2018.03.18 16:51:47,31.26,4.26,-40.8,0.3328,-0.01437,10.02004,-0.01609,0.16017,-0.16242,280.40973,-2.33691,-1.71491,-0.01609
2018.03.18 16:51:47,32.34,4.62,-40.32,-0.55787,0.11732,9.8692,-0.02831,0.11802,-0.28643,281.92667,-1.95285,-2.11629,-0.02831
2018.03.18 16:51:47,31.8,4.38,-40.74,-0.2921,0.57941,9.17726,0.21421,0.09602,-0.0659,282.57602,-2.8801,-2.46999,0.21421
2018.03.18 16:51:48,32.76,4.2,-40.02,-0.05986,1.01038,8.89952,0.10853,0.12046,-0.10805,282.99023,-3.54443,-2.69536,0.10853
2018.03.18 16:51:48,34.2,4.02,-40.68,-0.46688,1.29291,9.30894,0.20443,0.06731,-0.07018,283.37494,-4.41313,-2.60928,0.20443
2018.03.18 16:51:48,32.82,3.9,-39.36,-0.06704,1.07024,10.25947,0.03156,-0.05303,0.07521,282.96243,-5.50217,-2.28992,1012.08862
2018.03.18 16:51:48,33.36,5.46,-40.08,-0.60336,-0.7949,11.97616,-0.3148,-0.10678,-0.0317,283.28949,-3.56464,-1.99658,1012.08154
2018.03.18 16:51:48,32.58,5.1,-40.56,-0.56984,-0.34717,10.02243,0.21726,-0.06158,0.1815,282.60535,-2.98079,-1.77943,1012.08569
2018.03.18 16:51:48,33.3,4.56,-39.96,-0.54589,0.27534,9.64653,-0.08206,-0.07013,0.10392,281.79999,-1.89265,-2.14294,1012.08398
2018.03.18 16:51:48,33.9,3.9,-41.22,-0.39506,0.64645,9.37598,0.02728,-0.03714,0.08376,280.8894,-2.11545,-2.06194,1012.08643
2018.03.18 16:51:48,34.02,2.4,-40.98,-0.31604,0.89306,9.86681,0.03522,0.02272,-0.00482,280.43509,-2.52805,-2.13165,0.03522
2018.03.18 16:51:48,33.9,3.06,-40.68,-0.79011,0.94574,10.31932,-0.08206,-0.03653,-0.05124,280.54077,-3.77087,-2.48593,-0.08206
2018.03.18 16:51:49,34.38,2.34,-40.56,-0.19154,-0.02873,10.93705,-0.07351,-0.03104,0.03306,280.36386,-3.30549,-2.44082,1012.0918
2018.03.18 16:51:49,33.6,3.84,-39.36,-0.01676,-0.63927,10.87001,-0.01731,0.04654,0.04833,280.0415,-1.17438,-2.02015,-0.01731
2018.03.18 16:51:49,34.92,3.84,-39.3,-0.39984,0.09817,10.11102,0.00285,0.06304,-0.16242,280.23077,-0.98947,-2.08807,0.00285
2018.03.18 16:51:49,34.38,4.5,-39.78,-0.37351,0.40224,9.00726,0.2136,0.02516,0.05688,280.30621,-1.68976,-2.18169,0.2136
2018.03.18 16:51:49,34.56,2.94,-39.36,-0.34478,0.97447,9.19641,0.14701,0.03677,0.05627,279.98569,-2.79761,-2.36517,0.14701
2018.03.18 16:51:49,33.6,2.46,-38.7,0.11971,1.47727,10.25229,0.08593,0.08198,0.07215,279.49152,-4.6262,-2.3917,0.08593
2018.03.18 16:51:49,35.4,2.64,-37.92,-0.01676,0.89785,10.63776,-0.02769,0.05876,-0.0433,279.89017,-5.52103,-1.74737,1012.09106
2018.03.18 16:51:49,34.38,3.54,-37.5,-0.68716,-0.52674,10.90353,-0.21157,-0.21124,-0.05674,279.96771,-4.26021,-0.99035,1012.08447
2018.03.18 16:51:49,34.14,2.64,-38.28,-0.85476,0.01197,8.98332,-0.03808,-0.07013,0.0355,279.43317,-4.23924,-0.68927,1012.08691
2018.03.18 16:51:50,33.84,3.3,-38.04,-0.26337,0.32083,9.6585,0.045,-0.08968,0.16806,278.86511,-2.61236,-1.71974,0.045
2018.03.18 16:51:50,34.02,2.58,-37.44,-0.39266,1.11094,8.97135,-0.03747,0.03249,-0.00665,278.25592,-3.23253,-1.85275,-0.03747
2018.03.18 16:51:50,33.42,2.64,-37.08,-0.45731,1.21629,9.9937,0.02362,0.07464,-0.08301,278.66266,-4.13856,-2.22902,0.02362
2018.03.18 16:51:50,33.6,3.42,-37.14,-0.31365,0.85236,11.26506,-0.01487,-0.11595,-0.00299,279.12354,-4.65106,-1.98711,-0.01487
2018.03.18 16:51:50,33.3,3.9,-37.26,0.29689,-0.33041,12.18686,-0.25127,0.0441,-0.06407,279.65387,-3.31072,-1.40646,-0.25127
2018.03.18 16:51:50,32.52,5.64,-37.08,0.52195,-0.01915,9.12698,0.1745,-0.00416,0.07826,279.96265,-2.92343,-1.11999,1012.07837
2018.03.18 16:51:50,32.28,6.72,-36.78,-0.48843,0.22746,9.43823,-0.08267,0.10458,-0.17891,280.99136,-1.65576,-0.47853,1012.08228
2018.03.18 16:51:50,31.32,6.9,-36.42,-0.10774,0.45252,9.72554,0.04255,0.07037,-0.01581,281.43536,-1.82437,-1.08085,1012.08301
2018.03.18 16:51:50,31.86,7.74,-36,-0.06465,1.1301,9.44302,0.11647,0.07648,0.01839,281.95984,-2.65156,-1.42891,1012.09302
2018.03.18 16:51:51,31.74,6.42,-35.22,0.17239,1.38629,10.34566,0.21176,0.00195,0.08987,281.85315,-4.77445,-1.19932,1012.09277
2018.03.18 16:51:51,30.6,6.48,-34.32,-0.56505,0.50998,11.66491,-0.22195,0.18032,0.03855,282.30386,-4.734,-1.4839,1012.09204
2018.03.18 16:51:51,31.08,6.84,-34.02,-0.62251,-0.17478,10.68325,0.16167,-0.02981,0.20227,282.17239,-3.85631,-1.62026,0.16167
2018.03.18 16:51:51,30.72,5.88,-34.02,-0.66561,0.25379,8.32968,-0.03686,0.05449,-0.09034,282.22314,-4.89866,-1.48308,-0.03686
2018.03.18 16:51:51,30.48,7.02,-33.72,-0.75899,0.34956,9.41429,-0.04724,-0.10556,-0.05552,283.02579,-4.07698,-1.68355,1012.09863
2018.03.18 16:51:51,30.78,6.42,-34.02,-0.74701,0.84278,9.58907,-0.08206,-0.01027,0.01717,283.23996,-3.40054,-2.56616,-0.08206
2018.03.18 16:51:51,30.24,6.72,-34.26,-0.56744,1.04869,9.68963,-0.09611,0.02211,-0.05185,283.66458,-3.71294,-2.91587,-0.09611
2018.03.18 16:51:51,30,7.56,-33.48,-0.40224,1.01757,10.88677,-0.04113,-0.10434,0.00373,284.22968,-4.22484,-2.8657,-0.04113
2018.03.18 16:51:51,29.22,7.86,-32.94,-0.01676,-0.15323,11.60505,-0.07351,-0.11656,-0.09217,285.12897,-3.99362,-2.21939,-0.07351
2018.03.18 16:51:51,28.02,9.18,-32.82,0.01197,-0.20591,11.2507,-0.03197,-0.07563,-0.15753,286.75131,-2.52851,-1.25857,-0.03197
2018.03.18 16:51:52,28.14,9.36,-32.76,-0.63927,-0.25619,9.23711,0.06271,0.13756,-0.26505,288.18085,-3.22943,-1.20593,0.06271
2018.03.18 16:51:52,28.62,9.48,-33,-0.2921,0.55308,8.87318,0.11158,0.09969,0.00251,289.23022,-3.46318,-1.90372,0.11158
2018.03.18 16:51:52,28.44,9.36,-31.98,-0.31126,0.68955,9.28021,0.03889,0.06915,-0.02681,289.68387,-3.70235,-2.29106,0.03889
2018.03.18 16:51:52,28.2,9.24,-31.92,-0.05028,1.29051,9.73752,-0.02586,0.10946,-0.02253,289.90332,-4.14218,-2.28172,1012.08057
2018.03.18 16:51:52,29.28,10.02,-30.72,-0.40703,1.12291,10.86522,-0.04174,0.00501,0.01412,290.08118,-5.05088,-1.98328,1012.0752
2018.03.18 16:51:52,29.46,9.24,-30.72,-0.53632,0.68476,11.06873,-0.14193,0.01967,0.07521,290.06403,-4.60707,-2.21479,-0.14193
2018.03.18 16:51:52,29.1,9.78,-29.22,-0.73983,-0.57941,10.41749,0.13907,-0.10312,0.11186,290.38336,-2.98217,-1.74449,0.13907
2018.03.18 16:51:52,28.44,9.66,-30.66,-0.60575,0.23224,9.26105,0.01079,-0.08296,0.18455,289.6604,-2.67263,-1.52259,1012.07837
2018.03.18 16:51:52,29.04,8.88,-30.72,-0.14126,0.75659,8.88037,0.1238,-0.06891,0.20165,288.77402,-2.55847,-1.73627,1012.07666
2018.03.18 16:51:53,29.64,7.68,-31.08,-0.06704,1.01996,9.58189,0.03156,0.01295,0.05505,288.41071,-3.09386,-1.7041,0.03156
2018.03.18 16:51:53,30.12,7.56,-31.32,-0.15802,1.09658,9.80934,0.08409,-0.01576,-0.01642,288.51523,-4.3197,-1.66105,0.08409
2018.03.18 16:51:53,30.54,6.6,-31.86,0.07422,0.53392,9.49091,0.12075,-0.19841,-0.10805,288.96732,-4.87865,-0.99874,1012.07373
2018.03.18 16:51:53,28.74,9.24,-30.6,-0.88349,-0.9625,12.41192,-0.50478,-0.2033,-0.17281,290.56976,-1.44583,-0.75075,-0.50478
2018.03.18 16:51:53,28.8,8.88,-30.3,0.16999,-0.40703,10.42707,0.08654,0.03005,0.16561,289.25534,-1.52329,-0.78412,0.08654
2018.03.18 16:51:53,29.52,8.1,-29.94,0.46928,0.54829,8.59066,0.26674,0.24324,-0.13493,289.55042,-2.07334,-1.44926,0.26674
2018.03.18 16:51:53,29.52,8.28,-29.04,0.25379,0.60336,8.92346,-0.03625,0.09541,-0.2064,290.5683,-2.79044,-2.16476,-0.03625
2018.03.18 16:51:53,30.12,9.18,-29.88,-0.2921,1.24263,9.22275,-0.00387,0.00562,-0.03719,291.12921,-2.91598,-2.19296,-0.00387
2018.03.18 16:51:53,30.42,8.94,-29.28,-0.11014,1.12291,10.26186,0.15495,-0.04692,0.04466,291.06113,-4.61377,-1.7401,1012.08789
2018.03.18 16:51:54,30.12,8.04,-29.76,0.03113,0.35435,11.11183,-0.12421,0.05815,0.04588,290.83673,-4.97711,-1.54826,1012.08984
2018.03.18 16:51:54,30.6,9.18,-29.22,-0.42139,-0.23703,10.96338,0.16473,0.06548,-0.02498,291.16718,-3.33067,-1.3425,0.16473
2018.03.18 16:51:54,29.64,9.06,-29.04,-0.88349,-0.249,9.91469,-0.16086,-0.10861,0.05566,291.08823,-1.76677,-1.99913,-0.16086
2018.03.18 16:51:54,29.94,8.88,-29.46,-0.13408,0.70152,8.50207,0.1128,-0.04936,0.25724,289.80954,-1.20742,-2.45722,1012.08765
2018.03.18 16:51:54,29.94,7.56,-29.94,-0.15323,0.68716,9.62738,-0.04358,-0.04386,0.11369,288.92767,-1.4802,-2.1744,-0.04358
2018.03.18 16:51:54,30.3,7.2,-30.48,-0.42139,0.80926,10.01765,0.05416,0.01661,-0.00054,288.64163,-2.19905,-2.14099,0.05416
2018.03.18 16:51:54,30.6,7.5,-29.28,-0.05746,0.98644,10.56354,0.1183,-0.02126,-0.05552,288.45721,-3.1084,-1.75178,0.1183
2018.03.18 16:51:54,30.42,7.02,-30,0.06225,-0.30168,11.16929,-0.21462,-0.04081,-0.22962,289.44461,-2.52131,-1.26553,-0.21462
2018.03.18 16:51:54,30.24,8.82,-30.54,0.44534,-0.5004,9.86202,0.04622,0.00867,-0.06102,290.35715,-1.58264,-1.18637,0.04622
2018.03.18 16:51:54,31.38,9,-30,-0.18915,-0.06704,9.93624,-0.06068,0.03738,-0.02925,290.37543,-1.01981,-1.04329,-0.06068
2018.03.18 16:51:55,30.96,8.04,-31.38,0.00958,0.5842,9.06712,-0.00631,0.05082,0.0526,289.7182,-1.16562,-1.10649,-0.00631
2018.03.18 16:51:55,31.02,8.88,-30.12,0,0.91222,9.33049,0.08593,0.11924,0.01962,289.26508,-1.95935,-1.323,0.08593
2018.03.18 16:51:55,31.14,7.8,-30.48,-0.25379,1.43417,9.72315,0.1293,0.17483,0.0581,288.539,-3.31656,-1.72814,0.1293
2018.03.18 16:51:55,32.76,7.02,-30.36,0.08619,0.94813,10.69044,0.12441,-0.07318,0.21082,287.3652,-4.83194,-1.25484,0.12441
2018.03.18 16:51:55,33.12,7.26,-30.3,-0.27295,-0.1676,11.46618,-0.22562,-0.00843,0.03916,286.69412,-3.36044,-1.47154,-0.22562
2018.03.18 16:51:55,33.12,6.78,-31.32,-0.42379,-0.22985,8.41827,0.03461,0.10397,0.09597,286.10291,-3.30544,-1.44768,0.03461
2018.03.18 16:51:55,33,7.08,-31.38,-0.3328,-0.02634,9.79737,0.08043,-0.05975,0.19188,285.45789,-1.12652,-2.33593,0.08043
2018.03.18 16:51:55,33.78,5.58,-31.68,-0.6273,0.67997,9.08627,-0.01364,0.02639,0.11552,284.28647,-1.25517,-2.40705,1012.08008
2018.03.18 16:51:55,33.54,5.64,-32.16,-0.09577,1.11094,9.93863,0.03522,0.07037,0.01717,283.6647,-2.2697,-2.66397,0.03522
2018.03.18 16:51:56,34.74,5.82,-31.98,-0.36632,0.88349,10.10145,0.17756,0.03677,-0.11111,284.18292,-3.52652,-2.7405,0.17756
2018.03.18 16:51:56,34.56,5.52,-32.64,-0.21548,-0.06704,10.93226,-0.23967,0.01173,-0.12882,284.81213,-3.74123,-2.5327,-0.23967
2018.03.18 16:51:56,33.84,6.96,-32.28,-0.52435,-0.84757,11.19802,-0.13521,-0.29187,-0.24428,285.77905,-2.33726,-1.96168,-0.13521
2018.03.18 16:51:56,35.28,6.3,-33.3,-0.78532,-0.26098,9.46696,-0.04602,0.10213,-0.25344,286.75098,-1.81682,-2.26365,-0.04602
2018.03.18 16:51:56,35.7,6.96,-33.54,-0.34478,0.39984,9.21078,0.05905,-0.03409,-0.05185,286.85211,-1.81696,-2.29678,0.05905
2018.03.18 16:51:56,35.76,7.02,-32.94,-0.44534,0.55547,9.34725,0.01568,0.03433,-0.07507,286.90042,-1.89077,-2.42995,0.01568
2018.03.18 16:51:56,35.58,7.44,-33.36,-0.19633,1.10615,9.75667,0.07554,-0.00049,0.0691,286.49588,-2.59724,-2.52366,0.07554
2018.03.18 16:51:56,35.7,6.72,-32.64,-0.30647,1.01278,10.47256,0.01751,0.12901,0.08681,285.78546,-3.72342,-2.42281,0.01751
2018.03.18 16:51:56,36.6,6.18,-32.58,-0.69673,-0.15563,11.56914,-0.17858,0.15161,-0.02498,285.30914,-3.091,-2.74855,1012.08545
2018.03.18 16:51:57,37.14,6.54,-33.72,-0.72307,-0.50519,9.97934,0.13235,-0.05303,0.10269,284.72052,-1.8562,-2.82456,1012.08838
2018.03.18 16:51:57,35.94,6.48,-32.28,-0.93137,-0.2083,9.09106,0.04683,-0.04753,0.06177,284.1846,-0.9995,-3.01906,0.04683
2018.03.18 16:51:57,37.38,4.74,-34.14,-0.48843,0.59139,9.06233,0.11219,-0.02065,0.09292,282.66116,-0.78259,-2.79174,0.11219
2018.03.18 16:51:57,37.56,4.02,-34.86,-0.61772,0.7518,9.78061,-0.07168,0.03249,0.02817,281.87012,-1.33253,-3.26128,1012.08545
2018.03.18 16:51:57,38.7,3.66,-34.38,-0.40942,0.96729,9.89554,0.08226,0.0777,0.02389,281.18579,-2.59598,-3.50858,0.08226
2018.03.18 16:51:57,38.34,3.6,-34.02,-0.43097,0.56026,10.48932,0.07798,-0.06952,-0.04819,281.11533,-3.47914,-3.03638,0.07798
2018.03.18 16:51:57,39.06,3.84,-33.84,-0.35196,-0.27295,11.56914,-0.09245,-0.07074,-0.09156,281.35876,-1.8486,-2.50868,-0.09245
2018.03.18 16:51:57,38.7,3.48,-34.5,-0.02155,-0.249,9.94582,0.07798,0.02394,-0.20701,281.31073,-1.63691,-2.49695,0.07798
2018.03.18 16:51:57,39.12,2.88,-35.04,-0.46928,0.43815,8.88276,0.07004,0.01173,-0.03842,281.55969,-1.19348,-2.6321,0.07004
2018.03.18 16:51:57,39.18,2.28,-34.38,-0.07183,0.44773,9.28979,0.07554,-0.01088,0.02511,280.71002,-1.96143,-2.49045,0.07554
2018.03.18 16:51:58,39.96,1.56,-34.74,-0.11493,0.91701,9.42387,0.00651,0.10397,0.00251,280.29272,-2.26239,-2.55471,0.00651
2018.03.18 16:51:58,39.54,2.4,-34.2,-0.23703,1.0894,10.34806,0.04989,-0.0347,0.01045,279.92969,-3.56234,-2.08543,0.07982
2018.03.18 16:51:58,39.48,1.5,-33.96,-0.1676,0.95053,10.22355,0.10425,-0.0854,0.04772,279.28302,-4.37143,-1.4882,0.10425
2018.03.18 16:51:58,39.9,0.9,-35.52,-0.66321,-0.63927,10.16848,-0.2751,-0.05119,0.00251,278.76022,-2.8406,-1.40498,-0.2751
2018.03.18 16:51:58,39.66,0.12,-34.92,-0.76856,-0.09098,8.80135,0.03706,0.06059,0.04711,277.85068,-3.24874,-1.5301,0.03706
2018.03.18 16:51:58,39.48,-1.44,-36,-0.4597,0.24422,9.32331,0.08409,-0.0573,0.18089,276.4631,-1.95597,-2.48863,0.08409
2018.03.18 16:51:58,39.42,-1.68,-35.64,-0.26816,0.78293,9.03599,0.0395,0.00256,0.14973,275.07333,-2.18012,-2.53816,1012.09619
2018.03.18 16:51:58,39.06,-1.92,-35.16,-0.4166,1.14925,9.6178,-0.05763,0.05937,0.01595,274.35022,-2.6367,-2.65382,1012.08594
2018.03.18 16:51:58,39.36,-2.16,-35.82,-0.1269,1.07982,10.51326,0.0114,-0.0457,-0.05247,274.02734,-3.55295,-2.16809,0.0114
2018.03.18 16:51:59,38.4,-2.16,-35.64,-0.08141,0.19872,11.15014,-0.3765,0.0948,-0.19358,274.26764,-3.31093,-1.31594,-0.3765
2018.03.18 16:51:59,37.98,-1.14,-35.88,-0.29689,-0.56984,11.02803,0.02179,0.06243,-0.14348,274.83459,-2.45249,-0.92667,0.02179
2018.03.18 16:51:59,37.74,-1.98,-35.1,-0.28252,-0.2514,9.63935,0.17633,0.07831,-0.15998,275.17462,-2.83164,-1.15217,0.17633
2018.03.18 16:51:59,38.16,-1.5,-35.04,-0.13169,0.51477,8.66488,0.23131,0.11557,-0.03658,275.19092,-3.60835,-1.78582,0.23131
2018.03.18 16:51:59,37.92,-2.94,-33.6,-0.11732,0.94813,9.0767,0.03584,0.11618,-0.07568,275.03702,-3.91582,-2.28447,0.03584
2018.03.18 16:51:59,37.74,-3.18,-34.2,-0.08619,1.13728,10.02962,0.12563,-0.03409,0.07337,274.49161,-4.52004,-2.37547,0.12563
2018.03.18 16:51:59,36.96,-4.92,-34.2,-0.34478,1.20432,11.11662,-0.01364,0.02333,0.07704,273.60324,-5.4828,-1.95012,-0.01364
2018.03.18 16:51:59,36.78,-4.92,-33.54,-0.64406,-0.20591,11.9187,-0.38749,0.03066,0.03367,272.49234,-3.99339,-1.97615,-0.38749
2018.03.18 16:51:59,36.66,-4.74,-33.3,-0.43815,-0.09817,8.9929,0.24964,-0.03775,0.22792,270.97299,-4.42572,-1.66031,1012.07202
2018.03.18 16:52:00,36.12,-6.42,-33.12,-0.4166,0.34717,8.91628,0.00774,-0.06402,0.19799,269.41428,-4.21693,-1.44392,1012.07666
2018.03.18 16:52:00,34.5,-7.32,-33.6,-0.15802,0.99362,9.18683,-0.0112,-0.0457,0.12407,267.71933,-4.06309,-1.16945,-0.0112
2018.03.18 16:52:00,33.78,-7.32,-33.66,-0.2514,1.15643,10.0775,-0.07046,0.15467,-0.08118,267.19946,-3.99216,-1.79814,-0.07046
2018.03.18 16:52:00,34.26,-7.08,-32.46,0.01915,1.02954,10.52523,0.10181,0.13023,-0.04941,267.11377,-4.90976,-2.12569,1012.07886
2018.03.18 16:52:00,32.82,-8.1,-31.2,0.03352,0.64885,10.38397,0.04683,-0.17337,-0.12027,267.30026,-5.26049,-1.52237,0.04683
2018.03.18 16:52:00,32.04,-5.4,-30.78,-0.18915,-0.11732,10.24271,0.01018,-0.10495,-0.15509,268.2012,-4.67081,-1.47411,0.01018
2018.03.18 16:52:00,31.86,-5.64,-31.98,-0.2945,0.10535,9.56992,-0.05763,0.05082,-0.2229,268.94934,-4.08447,-1.60234,-0.05763
2018.03.18 16:52:00,31.2,-5.58,-31.74,-0.38787,0.56265,8.89473,0.05294,0.00989,-0.0433,269.23306,-3.87199,-1.94547,0.05294
2018.03.18 16:52:00,30.84,-4.86,-30.96,-0.47646,0.89067,9.34007,-0.06984,0.02211,-0.06713,269.12308,-3.64402,-2.23286,-0.06984
2018.03.18 16:52:00,31.08,-4.68,-31.38,-0.68476,1.4629,9.66569,0.06271,0.03616,0.06177,268.60382,-4.69581,-2.81459,0.06271
2018.03.18 16:52:01,30.54,-5.46,-30.3,-0.05267,1.506,9.69202,0.24109,0.00073,0.17905,267.3717,-6.41366,-2.40999,0.24109
2018.03.18 16:52:01,29.76,-5.58,-31.08,-0.28492,-0.44055,12.00729,-0.40032,-0.04081,-0.0262,267.11975,-5.09335,-2.25984,-0.40032
2018.03.18 16:52:01,29.22,-5.34,-31.14,-0.49801,0.19154,8.47094,0.11464,-0.2876,0.07215,266.53662,-4.55169,-1.13997,0.11464
2018.03.18 16:52:01,27.54,-5.46,-31.02,-0.84278,0.05986,10.09905,-0.16086,-0.00294,0.00801,265.87778,-3.4224,-1.50081,1012.08716
2018.03.18 16:52:01,27.24,-4.98,-30.72,-0.45491,0.76617,8.85642,0.10059,0.05082,0.17539,264.49817,-3.46671,-1.82204,1012.07935
2018.03.18 16:52:01,26.22,-6.6,-29.64,-0.19633,1.09897,9.71597,-0.00448,0.05021,0.11736,263.3866,-3.75404,-1.90484,-0.00448
2018.03.18 16:52:01,25.62,-6.48,-30.12,-0.15084,1.05348,10.26904,0.16839,-0.04447,0.01351,262.74704,-4.72796,-1.93596,0.16839
2018.03.18 16:52:01,24.42,-7.86,-31.14,0.0407,0.5028,10.10145,0.16045,-0.06891,-0.03231,262.66849,-5.68666,-1.4833,1012.08276
2018.03.18 16:52:01,24.3,-7.5,-30.06,-0.29928,0.26816,10.26426,-0.03747,-0.18253,-0.17281,263.26688,-4.36102,-0.61207,-0.03747
2018.03.18 16:52:02,22.68,-7.2,-30.48,0.2514,0.2083,9.56513,-0.12788,-0.04875,-0.25161,263.20374,-4.72692,-0.2508,-0.12788
2018.03.18 16:52:02,21.3,-6.3,-29.82,-0.18915,0.9194,8.82051,0.06943,0.01845,-0.01642,263.52664,-4.31947,-0.50264,0.06943
2018.03.18 16:52:02,21.42,-6.3,-29.58,-0.18196,0.7518,9.42387,-0.03747,0.08564,-0.07201,263.44766,-4.25337,-1.01644,-0.03747
2018.03.18 16:52:02,21.3,-7.14,-30.06,-0.14126,1.50839,9.23472,0.06088,0.07831,0.06421,262.75287,-4.75592,-1.5171,0.06088
2018.03.18 16:52:02,21.36,-7.38,-28.74,0.00479,1.4653,10.71917,0.04866,0.00806,0.07643,261.87256,-6.32115,-1.31794,0.04866
2018.03.18 16:52:02,21.06,-7.38,-28.38,-0.25379,0.60096,11.52843,-0.18835,0.0441,0.01717,261.18042,-5.99175,-1.12107,-0.18835
2018.03.18 16:52:02,19.86,-7.44,-28.02,-0.77575,-0.35435,10.87001,-0.26899,0.00806,0.00373,260.55182,-4.06182,-0.88903,-0.26899
2018.03.18 16:52:02,20.1,-8.1,-28.38,-0.66561,0.02634,8.82051,0.00468,-0.0237,0.05505,259.36142,-2.55746,-1.78195,0.00468
2018.03.18 16:52:02,19.2,-7.8,-27.12,-0.11493,0.73025,9.00966,-0.08084,-0.01332,0.21509,257.0769,-2.0605,-2.11308,-0.08084
2018.03.18 16:52:03,19.56,-7.44,-27.06,-0.5004,0.82842,10.21158,-0.36184,0.24263,-0.02437,255.70461,-1.48689,-2.34623,-0.36184
2018.03.18 16:52:03,19.8,-6.96,-26.04,-0.48364,1.2546,9.75188,-0.07656,0.02578,-0.00726,255.27243,-1.23968,-2.84735,-0.07656
2018.03.18 16:52:03,18.6,-6.24,-25.8,-0.17239,1.15883,10.91789,0.08226,0.00989,-0.0152,254.97679,-3.36998,-2.52791,1012.07983
2018.03.18 16:52:03,18.6,-6.72,-25.38,0.15084,-0.16281,12.20362,-0.30258,-0.1416,-0.15631,255.53122,-2.94494,-1.41256,1012.08301
2018.03.18 16:52:03,18.18,-6.6,-25.44,0.46449,-0.20591,9.88596,0.11464,0.00806,-0.08423,256.18671,-3.09749,-1.01026,0.11464
2018.03.18 16:52:03,17.76,-5.52,-25.08,-0.62491,-0.06943,10.04877,-0.02342,0.04471,-0.23511,257.73788,-2.79903,-1.09907,-0.02342
2018.03.18 16:52:03,17.7,-5.52,-25.92,-0.32083,0.54111,9.33288,0.20138,0.06487,-0.00909,257.86075,-3.3942,-1.66047,1012.08301
2018.03.18 16:52:03,16.5,-5.88,-24.36,-0.08141,0.93137,9.42147,0.20566,0.01234,0.01901,257.53516,-4.27544,-1.93404,0.20566
2018.03.18 16:52:03,16.92,-4.98,-24.6,-0.17957,1.51797,9.67526,0.13846,0.0667,0.05993,257.5083,-5.725,-1.80037,0.13846
2018.03.18 16:52:03,17.1,-5.64,-23.88,0.02873,0.87391,11.72955,-0.20912,0.02394,0.13446,257.01785,-6.4772,-1.60399,-0.20912
2018.03.18 16:52:04,15.96,-5.22,-24.3,-0.43815,-0.65364,11.4997,-0.16758,-0.23384,0.10697,256.64197,-5.02423,-0.89288,-0.16758
2018.03.18 16:52:04,16.02,-5.34,-24.72,-0.5435,0.21309,8.6553,0.17206,-0.02065,0.26824,255.46375,-5.05709,-0.6371,0.17206
2018.03.18 16:52:04,15.6,-4.74,-25.62,-0.12929,0.4166,9.91469,-0.1572,-0.00294,0.13141,254.83505,-4.16643,-0.46826,-0.1572
2018.03.18 16:52:04,15.72,-4.5,-25.08,-0.36872,1.0894,9.35683,-0.13399,0.0722,-0.02498,254.65521,-3.8488,-0.72283,-0.13399
2018.03.18 16:52:04,14.94,-4.92,-25.68,-0.25619,1.26418,9.89554,-0.02159,0.07892,0.00557,255.05965,-4.28101,-1.14837,-0.02159
2018.03.18 16:52:04,15.06,-3.84,-24.96,-0.23224,1.26657,10.23553,0.13663,0.03005,-0.04697,256.00653,-5.47076,-1.39284,0.13663
2018.03.18 16:52:04,13.98,-2.88,-25.44,0.22267,0.08859,11.35605,-0.00021,-0.18925,-0.08973,257.70331,-6.37747,-0.39022,-0.00021
2018.03.18 16:52:04,13.32,-2.46,-24.66,0.06704,0.5866,9.01205,0.30156,0.02028,0.0636,259.36823,-5.50195,0.01364,0.30156
2018.03.18 16:52:04,11.88,-1.14,-24.42,-0.06225,0.3759,9.52443,-0.03258,-0.11411,-0.2626,261.85699,-5.41387,0.15315,-0.03258
2018.03.18 16:52:05,13.68,-1.26,-26.94,-0.43815,0.68955,8.71995,0.02606,0.14734,-0.15326,264.64722,-5.00633,-0.63551,1012.08057
2018.03.18 16:52:05,13.62,-0.06,-26.94,0.07183,1.06066,9.2443,0.08959,0.05021,-0.06102,266.11298,-4.60053,-0.65035,1012.08936
2018.03.18 16:52:05,13.38,0.72,-26.52,-0.10774,1.48684,10.29059,0.0114,0.08808,-0.01581,267.73157,-5.23724,-0.7258,1012.0835
2018.03.18 16:52:05,12.72,1.2,-27.78,0.23224,0.85236,10.81733,0.0395,0.05143,0.08192,269.07678,-6.17082,-0.34917,0.0395
2018.03.18 16:52:05,12.78,2.46,-27.48,-0.57702,-0.28731,11.39435,-0.17491,-0.03837,0.05566,270.69635,-4.3912,-0.4032,-0.17491
2018.03.18 16:52:05,13.68,3.48,-27.66,-0.49801,0.0838,8.5332,0.23864,-0.08662,0.25663,271.74792,-3.77116,-0.53228,0.23864
2018.03.18 16:52:05,13.68,3.72,-27.24,0.14845,0.4166,9.47415,-0.00754,-0.13427,0.29512,272.34241,-3.41693,-0.15266,-0.00754
2018.03.18 16:52:05,13.92,3.24,-28.14,0.17478,0.97926,8.85882,0.05966,-0.02432,0.12163,273.23007,-3.7877,0.25344,0.05966
2018.03.18 16:52:05,13.8,4.32,-28.02,-0.05746,1.0032,9.84765,-0.02708,-0.01943,0.03794,275.18982,-3.68549,0.13513,-0.02708
2018.03.18 16:52:05,13.92,4.62,-28.68,-0.01915,1.01996,10.4534,0.12991,-0.01699,0.01229,277.00146,-4.37611,0.06142,0.12991
2018.03.18 16:52:06,13.14,5.34,-28.8,0.06465,0.56505,11.61223,0.2026,0.13573,-0.06163,279.64035,-5.00311,-0.55158,0.2026
2018.03.18 16:52:06,14.76,6.66,-28.8,-1.13967,0.06943,10.91789,-0.27448,0.00623,-0.22962,282.9556,-3.80893,-1.18779,-0.27448
2018.03.18 16:52:06,14.22,5.94,-28.92,0.47646,0.45012,9.01684,0.13663,-0.10006,-0.10622,284.36536,-4.28957,-0.28977,1012.0769
2018.03.18 16:52:06,14.22,7.08,-30,-0.26576,0.86912,8.3201,0.14335,0.07953,-0.13066,287.39258,-4.65551,-0.31007,0.14335
2018.03.18 16:52:06,14.76,6.66,-29.64,0.11971,0.89306,8.88037,-0.02586,0.02028,-0.10744,289.38544,-4.78053,-0.42159,1012.07861
2018.03.18 16:52:06,15.3,7.32,-30.24,0.26337,1.5036,9.79258,0.03217,-0.00477,0.04222,290.70166,-5.18256,-0.30821,1012.07837
2018.03.18 16:52:06,15.24,8.22,-29.94,0.2083,1.32164,11.31055,-0.04541,-0.09395,-0.00665,291.77295,-6.28672,0.43553,-0.04541
2018.03.18 16:52:06,14.4,8.4,-29.16,0.09098,0.59857,11.04718,-0.05579,-0.22957,-0.0824,293.61383,-5.41018,0.49454,-0.05579
2018.03.18 16:52:06,15.84,9.84,-29.76,0.26098,0.14366,9.67526,-0.04358,-0.10006,-0.09584,294.95187,-4.89712,1.37141,-0.04358
2018.03.18 16:52:07,13.86,10.14,-29.04,-0.11732,0.26098,9.46217,0.22459,-0.18497,0.11002,296.23322,-4.4374,1.57459,1012.08228
2018.03.18 16:52:07,16.26,7.98,-30.96,-0.21548,0.69913,8.64812,0.12075,0.02516,0.08926,296.4873,-4.80154,1.04939,0.12075
2018.03.18 16:52:07,16.62,8.22,-31.14,0.06465,1.05348,9.55795,-0.00693,0.02761,0.10758,296.8252,-4.39371,0.1043,-0.00693
2018.03.18 16:52:07,16.62,8.46,-31.62,0.28252,1.29291,9.98173,0.13602,0.06182,0.04405,296.89871,-4.95402,-0.12865,0.13602
2018.03.18 16:52:07,18.36,7.98,-32.1,0.11971,1.24023,10.52763,0.00651,0.00867,-0.0317,297.59616,-5.74388,-0.05962,0.00651
2018.03.18 16:52:07,17.34,7.8,-31.62,0.00718,0.41182,11.22915,-0.41132,-0.17948,-0.25649,299.18246,-3.72462,0.58987,-0.41132
2018.03.18 16:52:07,18.18,9.18,-31.86,0.65603,0.08619,9.953,0.05416,0.02455,-0.11355,299.69449,-3.63211,0.93928,0.05416
2018.03.18 16:52:07,17.64,9.72,-31.56,-0.25858,0.42618,9.16768,0.13724,0.19987,-0.13982,301.18082,-3.65952,0.46394,0.13724
2018.03.18 16:52:07,18.12,9.9,-31.86,0.13169,0.57223,9.35683,0.07249,0.10885,-0.06163,301.827,-4.07579,-0.38722,0.07249
2018.03.18 16:52:08,18.78,9.72,-31.08,-0.17718,1.31206,9.62259,-0.03747,0.14367,-0.04575,302.03607,-4.19929,-0.97442,1012.07178
2018.03.18 16:52:08,19.02,9.06,-30.42,0.36393,1.5898,10.21877,0.13724,0.09725,0.10514,301.58301,-5.96787,-1.18461,1012.07275
2018.03.18 16:52:08,20.88,9.24,-31.62,-0.0838,1.25699,10.47974,-0.06007,0.01661,0.02206,301.38458,-7.07873,-1.02864,-0.06007
2018.03.18 16:52:08,20.88,9.12,-31.86,-0.98884,-0.28731,11.72716,-0.50234,0.03555,0.01534,301.13867,-5.1519,-1.21781,1012.0835
2018.03.18 16:52:08,21.72,8.76,-31.5,-0.41421,-0.01676,8.69601,0.21543,-0.0854,0.2658,299.38235,-5.45502,-1.17639,1012.08447
2018.03.18 16:52:08,21.66,7.32,-31.38,-0.52913,0.22746,9.45739,0.00896,-0.09273,0.04955,298.49304,-4.93294,-0.87009,0.00896
2018.03.18 16:52:08,22.26,7.8,-31.5,-0.419,0.60815,9.60104,-0.03869,-0.04386,0.0862,297.73669,-4.65641,-0.83081,-0.03869
2018.03.18 16:52:08,21.72,6.06,-31.2,-0.09577,1.24023,9.77582,0.02301,-0.08052,0.07765,296.83743,-4.60501,-0.65496,0.02301
2018.03.18 16:52:08,21.96,6.48,-30.96,0.16042,1.23784,10.67607,0.0169,-0.01393,-0.01887,296.01172,-5.49922,-0.3132,0.0169
2018.03.18 16:52:08,22.08,6.6,-31.74,0.36393,0.40942,11.01845,0.02912,-0.08357,-0.11172,296.19937,-5.55383,0.11631,0.02912
2018.03.18 16:52:09,21.42,7.86,-31.62,-0.13169,0.36872,10.06314,-0.21034,0.00012,-0.24244,297.43439,-3.75801,0.24445,-0.21034
2018.03.18 16:52:09,22.5,8.4,-31.74,0.20112,-0.05507,10.40791,-0.16575,0.02944,-0.13066,297.77597,-2.81553,0.20436,-0.16575
2018.03.18 16:52:09,22.26,8.28,-31.38,0.35196,1.07024,8.63136,0.0902,0.05204,-0.01765,297.61111,-2.95677,0.05587,0.0902
2018.03.18 16:52:09,21.54,8.64,-30.24,0.20351,0.89306,9.58668,-0.01731,0.08014,-0.1612,298.18121,-3.58547,-0.07122,-0.01731
2018.03.18 16:52:09,21.42,8.7,-29.46,-0.05986,1.33122,9.47654,0.16351,0.01417,-0.03353,298.39615,-4.74656,-0.15131,0.16351
2018.03.18 16:52:09,22.02,8.88,-30.36,0.08619,1.52515,10.02483,0.44817,-0.19597,0.05444,298.17206,-6.78208,0.76214,1012.08325
2018.03.18 16:52:09,21.36,7.8,-30.66,-0.03352,0.3759,11.56914,-0.23844,-0.0011,-0.06652,298.04767,-6.43949,0.29924,-0.23844
2018.03.18 16:52:09,21.6,7.56,-29.58,-0.11493,0.43336,8.91867,0.09081,-0.00049,0.10453,297.46994,-6.39717,0.59927,1012.08252
2018.03.18 16:52:09,21.66,7.02,-29.7,-0.59857,0.26337,9.64893,-0.12604,-0.05975,-0.02986,297.05563,-5.322,0.34789,1012.08813
2018.03.18 16:52:10,21.18,7.44,-30.18,-0.45252,0.62969,9.14852,0.04989,-0.0066,0.10636,296.32126,-3.90563,-0.80424,0.04989
2018.03.18 16:52:10,21.18,7.32,-29.7,-0.15563,1.11094,9.53161,-0.06435,0.05021,0.10941,295.41309,-3.84713,-1.23161,-0.06435
2018.03.18 16:52:10,21.3,8.1,-29.04,-0.19394,1.15883,10.11102,0.03217,0.04288,0.01473,295.01721,-4.31658,-1.53315,0.03217
2018.03.18 16:52:10,22.68,6.84,-29.22,-0.1676,1.28094,10.84846,0.02179,0.01478,-0.02009,295.01364,-4.94454,-1.4697,0.02179
2018.03.18 16:52:10,22.26,8.16,-30.66,-0.13887,0.11253,11.15971,-0.23295,-0.00965,-0.02253,295.22839,-3.65531,-1.22226,-0.23295
2018.03.18 16:52:10,22.14,9.06,-29.7,0.98884,0.18675,9.69442,0.09448,-0.10495,0.15279,294.8923,-2.88187,-0.73753,0.09448
2018.03.18 16:52:10,21.9,9.36,-28.98,-0.06225,0.31126,9.55555,0.09509,0.01783,-0.04636,295.3045,-2.13118,-0.0964,0.09509
2018.03.18 16:52:10,22.56,8.4,-30.06,0.1269,0.59617,8.72234,0.09326,0.07464,-0.03414,295.23904,-2.94652,-0.20306,0.09326
2018.03.18 16:52:10,22.5,9,-29.88,-0.28731,1.01278,9.73752,-0.01242,0.08747,-0.08973,295.55771,-3.34707,-0.4104,-0.01242
2018.03.18 16:52:11,23.28,8.82,-29.52,0.36393,1.28333,10.80057,0.1293,0.03433,0.08681,295.30652,-4.60526,-0.58489,0.1293
2018.03.18 16:52:11,23.04,8.34,-28.56,0.37351,1.2139,10.69044,-0.0784,0.10397,-0.04514,295.30807,-5.61022,-0.673,-0.0784
2018.03.18 16:52:11,24.12,9,-29.58,-0.75659,-0.18915,12.25629,-0.27448,0.06059,-0.15815,296.13516,-4.40573,-0.87293,1012.09009
2018.03.18 16:52:11,23.82,8.16,-29.76,-0.5866,-0.22267,9.38316,0.22704,-0.02615,0.05138,295.82675,-5.18196,-0.89256,1012.09229
2018.03.18 16:52:11,24.06,8.1,-30.06,-0.62969,0.28013,9.01444,0.01812,0.02883,0.01778,295.84164,-3.73612,-1.50418,1012.0918
2018.03.18 16:52:11,23.94,8.4,-29.58,-0.43336,1.24981,8.38475,0.02179,-0.01149,0.12591,295.07623,-3.22211,-2.31639,1012.08643
2018.03.18 16:52:11,24.36,8.22,-29.52,-0.59378,1.46051,9.22514,-0.10772,0.00012,0.06543,294.49365,-3.96982,-2.70016,-0.10772
2018.03.18 16:52:11,24.6,7.8,-29.22,-0.09577,1.38389,9.6178,-0.05641,-0.04753,0.08559,294.31616,-4.64771,-2.78666,1012.09058
2018.03.18 16:52:11,25.14,9.6,-29.4,0.249,0.38787,12.13658,-0.26105,-0.00049,0.00496,294.298,-4.99046,-2.1695,1012.08252
2018.03.18 16:52:11,25.44,10.32,-28.68,-0.24422,-0.04789,10.57791,0.05783,0.05632,0.00557,295.09308,-3.14431,-1.77432,0.05783
2018.03.18 16:52:12,25.2,10.14,-29.1,0.15802,-0.15084,9.74709,0.06699,-0.02004,-0.1948,295.33636,-3.89919,-1.44515,0.06699
2018.03.18 16:52:12,25.44,10.32,-29.58,-0.3328,0.62251,8.49489,0.14762,0.04105,-0.02864,296.41211,-2.95314,-1.22588,0.14762
2018.03.18 16:52:12,25.26,10.62,-29.7,0.00479,0.67279,9.24669,0.06455,0.03983,-0.06224,296.52896,-3.17875,-1.41327,0.06455
2018.03.18 16:52:12,26.1,11.64,-29.34,-0.13647,1.28094,9.64174,0.02179,0.13634,-0.04391,297.05746,-3.32376,-1.7204,0.02179
2018.03.18 16:52:12,25.44,11.16,-28.32,-0.3759,1.44135,10.65692,0.03095,0.07953,0.10208,297.1055,-5.14199,-2.13859,0.03095
2018.03.18 16:52:12,26.04,11.34,-28.44,-0.5866,0.18196,12.14137,-0.30442,0.07037,0.03061,296.66013,-4.82075,-2.24345,-0.30442
2018.03.18 16:52:12,26.28,11.22,-27.72,-0.54111,-0.39506,9.59146,-0.04358,0.02639,0.14729,296.54694,-3.96151,-2.21248,-0.04358
2018.03.18 16:52:12,26.88,11.94,-27.78,-0.68237,-0.36632,9.68484,-0.0167,-0.05669,0.09659,295.77014,-4.03418,-2.18793,1012.0813
2018.03.18 16:52:12,26.04,10.86,-28.26,-0.34238,0.59617,8.67925,0.21726,-0.04631,0.21326,294.79092,-3.00635,-2.25583,1012.07617
2018.03.18 16:52:13,27,10.2,-27.18,-0.88349,0.62969,9.30655,-0.07473,0.03372,-0.01887,294.33112,-3.34536,-2.15841,1012.0752
2018.03.18 16:52:13,26.94,10.02,-27.66,-0.57463,1.24023,9.8716,-0.03197,-0.02187,0.05077,294.29108,-3.37983,-2.91469,-0.03197
2018.03.18 16:52:13,27.06,10.02,-27,-0.17718,1.25939,10.83888,-0.03197,-0.08174,0.07154,294.48087,-3.97824,-2.84378,1012.07935
2018.03.18 16:52:13,27.48,10.08,-27.54,0.1652,0.06465,11.73913,-0.28915,-0.09518,-0.05613,294.32806,-4.65285,-1.76806,-0.28915
2018.03.18 16:52:13,25.68,11.28,-27.36,0.23464,-0.39745,10.09666,0.13113,-0.01271,-0.08362,295.24005,-2.90857,-0.72601,0.13113
2018.03.18 16:52:13,26.28,10.5,-26.28,0.09577,0.37351,9.27542,-0.0112,0.00562,-0.2455,295.98218,-3.67781,-0.64768,-0.0112
2018.03.18 16:52:13,26.34,11.1,-26.58,-0.23943,0.54589,8.97374,0.11525,0.08931,-0.18197,296.797,-3.65145,-0.72107,0.11525
2018.03.18 16:52:13,26.88,11.04,-26.88,-0.30168,0.72307,9.17247,0.07249,0.07892,-0.07629,297.47897,-3.94799,-1.41077,0.07249
2018.03.18 16:52:13,26.22,10.68,-25.44,-0.5004,1.2953,10.20919,0.05294,0.09053,0.01106,297.53033,-4.46739,-1.69153,0.05294
2018.03.18 16:52:13,26.82,9.36,-26.58,-0.15802,1.27136,10.68804,0.19222,0.09602,0.18944,296.66794,-5.8236,-1.88287,0.19222
2018.03.18 16:52:14,27.72,9.24,-25.56,-0.1245,-0.22985,12.43826,-0.19507,0.09419,0.04405,296.02512,-5.94762,-1.96068,-0.19507
2018.03.18 16:52:14,27.24,9.6,-26.1,-0.75899,-0.0431,8.75107,0.23498,-0.0909,0.12041,295.67682,-4.64206,-1.72394,0.23498
2018.03.18 16:52:14,27.9,9.18,-24.78,-0.90743,0.18196,9.7423,0.02117,0.00378,0.02145,295.18512,-2.85884,-2.45249,0.02117
2018.03.18 16:52:14,27.18,8.76,-25.2,-0.40224,1.24263,8.75107,0.10547,0.03127,0.08926,294.07294,-3.22945,-3.08628,1012.08105
2018.03.18 16:52:14,27.9,7.68,-24.6,-0.54111,1.50121,9.34485,-0.05579,0.08931,-0.03231,293.61816,-4.34022,-3.68187,1012.07861
2018.03.18 16:52:14,28.2,7.38,-23.88,-0.52674,1.41023,10.18524,-0.03564,0.07587,-0.0488,293.55875,-5.01075,-3.92941,1012.06689
2018.03.18 16:52:14,27.66,7.38,-23.7,-0.01915,1.43656,11.11901,0.11403,-0.00477,0.06177,292.88962,-6.07934,-3.94166,1012.05835
2018.03.18 16:52:14,27.6,7.14,-23.76,-0.29689,0.3328,10.80776,0.03828,0.09236,-0.15081,293.22064,-6.88496,-3.46951,1012.05981
2018.03.18 16:52:14,27.6,7.14,-23.34,-0.11493,0.40463,8.92107,0.09142,-0.03653,-0.00604,293.40723,-5.22478,-2.80672,0.09142
2018.03.18 16:52:15,28.38,7.02,-24.54,-0.70392,0.48125,9.76146,-0.13154,-0.06158,-0.24061,293.47134,-4.5904,-2.26199,1012.05859
2018.03.18 16:52:15,27.96,7.38,-23.88,-0.37111,1.02954,9.41189,-0.00387,-0.05058,-0.0207,294.02411,-3.28548,-1.84129,1012.05029
2018.03.18 16:52:15,26.94,7.74,-23.82,-0.26098,1.23545,9.4095,0.04622,0.06854,-0.01704,293.60828,-3.9213,-2.38162,0.04622
2018.03.18 16:52:15,27.96,7.38,-23.7,-0.50998,1.94176,9.4933,0.06393,0.05632,0.07215,292.22913,-5.62475,-2.61913,0.06393
2018.03.18 16:52:15,27.96,7.56,-21.48,-0.419,1.67599,10.46537,0.06455,-0.06524,0.10269,291.78439,-6.83274,-2.61647,1012.07544
2018.03.18 16:52:15,28.08,6.3,-23.22,-0.77575,0.35914,11.97856,-0.30197,0.03311,0.02939,291.02762,-6.89439,-2.29541,-0.30197
2018.03.18 16:52:15,29.34,5.94,-23.4,-0.419,0.02873,8.80375,0.1348,0.11069,0.16317,290.10709,-6.38452,-2.34854,0.1348
2018.03.18 16:52:15,29.64,5.88,-22.5,-1.13728,0.03352,10.14933,-0.11505,-0.04081,0.12591,289.32071,-3.89768,-3.30041,-0.11505
2018.03.18 16:52:15,29.58,5.28,-22.2,-0.28731,0.92658,8.80375,0.00163,-0.05425,0.16439,287.54645,-3.62644,-3.48045,0.00163
2018.03.18 16:52:16,30.24,5.28,-22.44,-0.36154,1.27615,9.82371,-0.12727,0.06426,0.06177,286.91458,-3.57021,-3.38265,-0.12727
2018.03.18 16:52:16,29.58,4.74,-21.9,-0.55308,1.41262,9.86441,0.00346,0.09297,-0.0488,286.37424,-4.35399,-3.3479,0.00346
2018.03.18 16:52:16,29.52,5.1,-22.98,-0.49561,1.43896,10.92986,0.16534,-0.10617,-0.03047,286.40207,-5.84907,-2.86114,1012.07227
2018.03.18 16:52:16,29.4,4.74,-23.4,-0.22746,0.21788,10.90113,-0.18835,-0.1416,-0.17403,286.87512,-5.74396,-2.02948,1012.07471
2018.03.18 16:52:16,29.16,5.88,-23.76,-0.04789,0.16042,9.45739,0.01568,-0.09884,-0.0488,287.19281,-4.99519,-1.51214,1012.0813
2018.03.18 16:52:16,28.92,6.6,-23.34,-0.43815,0.27055,10.04877,-0.17125,0.04716,-0.27116,287.46375,-3.66746,-1.25417,1012.08643
2018.03.18 16:52:16,28.98,6.6,-23.34,-0.28971,1.10137,8.46855,0.01568,0.14612,-0.17586,288.35541,-3.35299,-1.8875,1012.08472
2018.03.18 16:52:16,28.56,6.48,-22.74,-0.28971,1.29051,9.86681,-0.03808,0.04899,-0.02253,288.78983,-3.19313,-2.55096,-0.03808
2018.03.18 16:52:16,28.86,6.78,-22.08,0.2083,1.4653,10.43664,0.01995,0.00745,-0.10989,288.61932,-4.26993,-2.43019,0.01995
2018.03.18 16:52:16,28.92,7.44,-22.86,-0.40942,1.33361,11.03042,0.23803,0.05998,-0.01459,288.85272,-6.49093,-1.75891,1012.0979
2018.03.18 16:52:17,29.04,8.04,-22.62,-0.97447,0.03831,11.2507,0.00224,-0.108,-0.1276,289.42752,-6.63617,-1.9873,0.00224
2018.03.18 16:52:17,28.92,8.16,-22.38,-1.15165,-0.05986,8.54517,0.23742,-0.13061,0.09475,289.58188,-4.81116,-2.61122,0.23742
2018.03.18 16:52:17,27.72,7.26,-21.96,-0.61533,0.48843,9.42865,0.00102,-0.11656,0.24442,288.80377,-4.20399,-2.42033,0.00102
2018.03.18 16:52:17,27.9,7.38,-22.92,-0.26337,1.13489,8.94262,0.00835,-0.01515,0.21204,288.02197,-4.16192,-2.27603,0.00835
2018.03.18 16:52:17,27.12,7.14,-22.92,-0.20591,1.51558,9.54837,-0.00937,0.03188,0.07215,286.94205,-4.24382,-2.05657,-0.00937
2018.03.18 16:52:17,28.08,7.62,-22.38,-0.14126,1.55149,10.32172,0.08898,0.01783,0.02573,287.01297,-5.7751,-2.07213,0.08898
2018.03.18 16:52:17,27.06,7.02,-22.74,0.03352,1.33601,10.4127,0.02362,-0.11656,-0.09095,287.48517,-7.12369,-1.49284,0.02362
2018.03.18 16:52:17,27,8.34,-22.86,-0.76138,-0.15563,11.16929,-0.01242,-0.02309,-0.04758,288.93555,-5.5492,-0.70719,1012.07642
2018.03.18 16:52:17,26.88,7.62,-22.2,0.34238,0.27774,9.77343,0.05966,-0.07441,0.03672,288.95999,-5.32168,-0.60151,1012.07642
2018.03.18 16:52:18,26.76,8.34,-23.16,-0.44294,0.63209,9.18683,0.00102,0.06365,-0.09645,289.48746,-4.12125,-0.38329,1012.08569
2018.03.18 16:52:18,27.48,8.64,-22.02,-0.00479,1.02236,9.30894,-0.00754,0.08381,-0.01581,289.75284,-4.23066,-1.12265,-0.00754
2018.03.18 16:52:18,26.88,7.92,-21.42,-0.15323,1.39107,9.79498,-0.09245,0.09664,-0.04452,289.87167,-4.64751,-1.46347,-0.09245
2018.03.18 16:52:18,27.3,8.04,-21.6,-0.17239,1.76458,9.82371,0.01995,0.09541,0.04283,289.85059,-5.43314,-1.45491,1012.07544
2018.03.18 16:52:18,27.48,8.22,-21.54,0.15802,1.10855,12.2132,-0.21767,0.07281,0.07032,289.84171,-6.7538,-1.19071,-0.21767
2018.03.18 16:52:18,25.68,9.18,-19.74,-0.6273,-0.19633,10.75748,-0.17919,-0.00721,0.03367,289.80716,-5.16137,-1.14043,-0.17919
2018.03.18 16:52:18,27.18,7.32,-20.64,-0.71589,-0.10774,8.71995,0.1293,0.03005,0.09659,289.86685,-3.13203,-2.37024,0.1293
2018.03.18 16:52:18,27.84,7.98,-21.24,-0.27774,0.0431,9.42147,-0.00937,-0.06891,0.10697,289.41644,-2.37816,-2.80093,-0.00937
2018.03.18 16:52:18,28.38,6.78,-20.46,-0.32323,0.78293,8.92586,0.06577,-0.09151,0.14973,288.21609,-2.18892,-2.48544,0.06577
2018.03.18 16:52:18,27.72,7.14,-19.44,-0.58181,0.99602,9.77582,-0.01792,-0.04508,0.02023,287.40921,-2.14198,-2.59408,-0.01792
2018.03.18 16:52:19,27.72,6.6,-20.58,-0.00239,0.99602,10.44862,0.02789,-0.02981,0.0019,287.20285,-3.36373,-2.55252,0.02789
2018.03.18 16:52:19,27.96,7.26,-20.52,-0.11971,0.5866,10.75508,-0.10222,0.1003,-0.24306,287.68414,-4.45504,-1.92165,-0.10222
2018.03.18 16:52:19,28.26,7.44,-21.24,-0.73744,-0.26098,10.72875,-0.3539,-0.2259,-0.25894,288.61514,-3.67514,-1.84993,-0.3539
2018.03.18 16:52:19,27.9,9,-21.18,0.58181,0.07183,9.63456,0.04439,0.02272,-0.094,289.07938,-3.32086,-1.28545,0.04439
2018.03.18 16:52:19,28.14,9.24,-21.66,-0.3352,0.81405,8.68403,0.15556,0.03066,-0.03109,290.15521,-3.00129,-1.0544,1012.07227
2018.03.18 16:52:19,27.6,9.96,-20.52,-0.15802,0.89785,9.42626,0.03095,0.02578,-0.09828,290.64423,-3.65413,-1.36534,0.03095
2018.03.18 16:52:19,28.32,9.24,-21.48,-0.70392,1.61374,9.93385,0.0059,0.11802,-0.09767,291.00159,-3.80051,-1.57342,1012.0769
2018.03.18 16:52:19,29.76,9.24,-20.46,0.3352,1.42938,10.51087,0.14396,-0.09701,0.24136,290.46899,-6.15833,-1.77211,1012.07397
2018.03.18 16:52:19,29.82,8.64,-21.06,-0.53632,0.34717,11.61702,-0.22623,0.20354,-0.06224,290.07642,-7.21105,-1.52122,-0.22623
2018.03.18 16:52:20,30.06,9.06,-19.2,-0.38308,0.17239,8.88276,0.27896,-0.01027,0.13079,290.1257,-6.35151,-2.05971,0.27896
2018.03.18 16:52:20,30.9,9.06,-19.92,-0.95532,0.03591,9.3664,-0.11016,-0.01027,0.01412,290.06973,-4.17933,-2.77198,-0.11016
2018.03.18 16:52:20,30.96,8.82,-19.92,-0.52913,0.80687,8.49968,-0.09306,-0.02432,0.08559,289.81769,-3.06147,-3.16561,-0.09306
2018.03.18 16:52:20,31.5,8.82,-20.04,-0.6704,1.05588,9.83089,-0.20485,-0.01637,0.02145,289.2764,-2.31054,-3.24293,-0.20485
2018.03.18 16:52:20,32.52,8.76,-19.92,-0.4166,1.25699,10.40791,0.07798,0.00623,0.07215,288.79807,-3.36615,-3.56637,0.07798
2018.03.18 16:52:20,31.98,8.04,-19.32,-0.14845,1.18038,10.84367,0.18366,-0.05852,0.02756,288.30911,-5.46228,-3.03461,0.18366
2018.03.18 16:52:20,32.1,7.68,-20.1,-0.58899,-0.19872,11.21478,-0.15292,0.13023,-0.23695,288.51895,-5.55771,-2.74134,-0.15292
2018.03.18 16:52:20,31.74,7.8,-19.74,0.35675,0.20591,9.41668,0.1012,-0.02615,0.04283,289.38199,-4.91259,-2.03854,0.1012
2018.03.18 16:52:20,31.32,8.16,-20.16,-0.69434,0.39266,9.54837,0.00896,-0.07929,-0.18441,289.77679,-4.64341,-1.35283,0.00896
2018.03.18 16:52:21,32.28,7.92,-20.1,-0.28731,0.98405,9.05036,0.13724,0.05388,-0.03414,290.18979,-4.77251,-2.38662,0.13724
2018.03.18 16:52:21,32.7,7.2,-19.86,-0.15084,1.30488,9.41668,-0.00754,-0.00416,0.01412,290.06238,-5.30339,-2.54255,1012.07178
2018.03.18 16:52:21,32.04,7.08,-19.98,0.00718,1.71909,9.85962,0.02362,-0.03714,0.16012,289.56073,-5.69266,-2.25377,1012.07617
2018.03.18 16:52:21,33.06,6.36,-19.5,-0.57463,0.34238,12.42389,-0.19935,0.0044,0.05993,288.5296,-6.66644,-1.60886,1012.07642
2018.03.18 16:52:21,32.4,6.54,-19.8,-0.57223,0.15084,9.54119,0.08104,-0.02798,0.18027,287.70374,-4.76878,-1.48276,1012.08057
2018.03.18 16:52:21,31.98,4.74,-20.22,-0.61054,-0.01437,9.41668,-0.07229,-0.08174,0.15217,286.2919,-4.33603,-1.24766,-0.07229
2018.03.18 16:52:21,32.4,5.52,-20.04,-0.06225,0.73504,9.12458,0.02056,-0.03042,0.16806,285.58505,-3.15668,-1.72986,1012.07813
2018.03.18 16:52:21,31.62,3.78,-20.1,-0.11732,1.17798,9.59625,-0.04174,-0.04081,0.05321,283.97513,-3.35115,-1.82491,1012.07617
2018.03.18 16:52:21,31.08,3.9,-19.8,-0.24182,1.20671,10.44622,0.05538,0.03188,-0.0433,283.61337,-4.174,-1.68583,0.05538
2018.03.18 16:52:21,32.64,3.12,-21,-0.17957,1.06066,11.06634,0.18916,0.03188,-0.09339,283.44427,-5.9284,-1.73722,0.18916
2018.03.18 16:52:22,31.62,3.48,-19.62,-0.38787,0.16042,10.79339,0.04255,-0.04692,-0.27726,284.00183,-5.92686,-1.54366,0.04255
2018.03.18 16:52:22,31.86,3.06,-20.34,0.30647,-0.08619,9.99131,-0.07046,-0.05791,-0.12638,284.38132,-5.87014,-1.4308,-0.07046
2018.03.18 16:52:22,30.9,4.14,-19.74,-0.67997,0.49561,9.50527,0.0114,-0.07318,-0.09828,284.61188,-4.03797,-1.31025,0.0114
2018.03.18 16:52:22,31.26,3.24,-20.1,-0.18196,0.73265,9.61062,0.0059,0.06243,0.01229,283.90097,-3.88205,-1.59599,0.0059
2018.03.18 16:52:22,31.92,2.34,-20.1,-0.23224,1.22826,9.55316,-0.02831,0.01783,0.02878,283.03802,-4.40834,-1.74091,-0.02831
2018.03.18 16:52:22,30.9,2.52,-19.68,-0.27055,1.69754,10.11581,0.11403,0.11557,0.06788,282.45248,-4.92814,-1.51644,0.11403
2018.03.18 16:52:22,30.48,2.28,-18.84,-0.23464,0.74941,10.52284,0.03461,0.06121,0.13568,281.65524,-6.72649,-1.61446,1012.06738
2018.03.18 16:52:22,30.18,2.16,-19.14,-0.04789,0.21309,10.32651,0.034,-0.14771,0.22303,280.81891,-5.08665,-1.61161,1012.073
2018.03.18 16:52:22,31.2,1.2,-19.02,-0.28013,-0.07901,9.62977,-0.09428,0.03433,-0.03292,279.65363,-4.96871,-1.50198,-0.09428
2018.03.18 16:52:23,30.36,1.5,-18.84,-0.45012,0.16042,9.23232,-0.00265,-0.14466,0.05321,279.53857,-3.80431,-1.54462,1012.07544
2018.03.18 16:52:23,30.18,1.56,-19.2,-0.47407,0.77335,9.79498,-0.09367,-0.05975,0.00496,278.32901,-2.91418,-1.67626,1012.07568
2018.03.18 16:52:23,30.36,1.38,-19.62,-0.35914,1.22826,9.57949,0.01201,0.03188,-0.04819,278.06622,-2.86281,-1.70808,0.01201
2018.03.18 16:52:23,28.98,1.26,-19.44,-0.09338,1.32403,10.19003,0.08348,-0.03226,-0.04758,277.99747,-4.37299,-1.76073,0.08348
2018.03.18 16:52:23,29.64,1.86,-19.62,-0.36632,0.65843,10.85325,-0.35512,0.17727,-0.08301,278.1217,-4.98984,-1.72092,-0.35512
2018.03.18 16:52:23,30,2.1,-20.58,-0.16281,-0.09338,10.80057,-0.01731,-0.22285,-0.07018,278.39771,-3.95607,-1.63943,1012.09131
2018.03.18 16:52:23,29.52,2.16,-21.42,-0.05267,-0.13408,9.90512,-0.07779,0.06121,-0.17281,278.56992,-4.01847,-1.52554,-0.07779
2018.03.18 16:52:23,27.96,3.36,-20.76,0.21788,0.90025,8.57869,0.19283,0.00256,0.08437,278.93207,-2.70359,-1.24427,0.19283
2018.03.18 16:52:23,29.7,2.46,-21.36,0.03591,0.85954,9.46217,0.0059,0.10519,-0.10378,278.93835,-3.50123,-1.01215,0.0059
2018.03.18 16:52:23,29.4,3,-20.82,-0.18915,1.29291,9.80695,0.03034,0.07281,-0.02192,279.16211,-3.82561,-1.12641,0.03034
2018.03.18 16:52:24,29.04,2.22,-20.64,0.0431,1.24502,9.75428,0.24109,-0.108,0.1369,278.97141,-5.37144,-1.20739,0.24109
2018.03.18 16:52:24,29.34,2.4,-21.06,-0.44055,-0.02873,11.5021,-0.24028,0.08564,-0.0262,278.69312,-5.88263,-1.25285,-0.24028
2018.03.18 16:52:24,29.4,2.34,-21.18,-0.10295,0.63927,8.63136,0.2252,-0.09518,0.22975,278.50433,-4.61881,-1.69546,1012.07568
2018.03.18 16:52:24,29.28,2.1,-22.26,-0.64406,0.21788,9.80216,-0.09367,-0.08113,0.1198,277.78946,-3.57272,-1.82061,-0.09367
2018.03.18 16:52:24,28.74,2.04,-21.84,-0.17239,0.94813,8.75586,0.02728,-0.01882,0.11064,277.2482,-3.17289,-1.80999,1012.07251
2018.03.18 16:52:24,28.38,1.08,-22.32,-0.4597,1.33122,9.61062,-0.03197,0.00928,-0.00848,276.61026,-3.87417,-1.78155,1012.0647
2018.03.18 16:52:24,28.98,1.5,-22.44,-0.0838,1.44375,10.86043,0.0566,0.08075,-0.0036,277.01205,-4.89175,-2.0545,0.0566
2018.03.18 16:52:24,27.84,1.26,-20.4,-0.37111,1.52755,10.45819,0.19894,0.03799,0.0074,277.17218,-6.32609,-2.52179,0.19894
2018.03.18 16:52:24,27.78,1.92,-22.92,-0.53153,0.36154,10.03919,-0.07779,-0.09579,-0.04819,278.06436,-5.82097,-1.89656,-0.07779
2018.03.18 16:52:25,27.84,1.98,-22.8,0.49083,0.26816,9.59865,-0.03075,-0.09334,0.03428,278.12305,-5.03228,-1.84795,-0.03075
2018.03.18 16:52:25,28.44,2.22,-22.8,-0.31604,0.41182,9.72315,-0.07534,-0.10739,-0.09217,278.57837,-2.96718,-1.26034,-0.07534
2018.03.18 16:52:25,26.82,2.4,-23.46,0.36393,1.0894,9.68245,0.01262,0.10336,0.05199,278.09656,-3.00268,-1.11519,0.01262
2018.03.18 16:52:25,26.46,1.86,-23.46,-0.22985,1.37671,9.42865,0.04927,0.06121,-0.05918,278.39264,-4.39082,-0.98716,0.04927
2018.03.18 16:52:25,26.64,2.52,-23.16,-0.05507,1.39347,11.05916,0.1745,0.00195,0.12285,278.33768,-6.08018,-1.04264,0.1745
2018.03.18 16:52:25,26.7,1.08,-23.16,-0.08859,0.78772,11.95461,-0.01853,0.03249,0.09048,277.95337,-6.92663,-0.90064,-0.01853
2018.03.18 16:52:25,25.56,1.44,-23.22,-0.45491,0.27534,9.05994,0.07737,0.06182,0.07643,277.60297,-5.43676,-0.71827,1012.06763
2018.03.18 16:52:25,26.16,0.66,-22.98,-0.81884,-0.00718,9.04078,-0.0057,-0.01576,0.05077,276.82855,-4.97312,-1.40792,1012.07886
2018.03.18 16:52:25,23.94,1.02,-22.02,-0.31844,1.04869,8.83248,0.05111,0.04288,0.17966,275.69388,-3.68826,-2.34478,1012.07568
2018.03.18 16:52:26,24.12,-0.42,-23.04,-0.1676,1.27375,9.59386,-0.02525,0.06182,-0.01459,275.14252,-4.08143,-2.27908,-0.02525
2018.03.18 16:52:26,23.88,-0.54,-22.92,-0.42618,1.49403,10.22355,-0.00998,0.05815,-0.09034,274.94977,-5.27648,-2.21458,1012.07935
2018.03.18 16:52:26,23.16,0.54,-22.98,-0.12929,1.40305,11.14295,0.02789,-0.10678,-0.116,275.77533,-6.65168,-2.01885,0.02789
2018.03.18 16:52:26,23.94,1.26,-23.22,0.38308,0.14605,11.4997,-0.27815,-0.10067,-0.13676,276.89795,-6.31269,-1.18086,-0.27815
2018.03.18 16:52:26,23.46,1.5,-24.9,-0.03352,0.34238,9.1988,0.06149,0.02639,-0.1441,278.0282,-5.54895,-1.04883,0.06149
2018.03.18 16:52:26,21.6,2.58,-23.46,-0.94813,0.249,10.10863,-0.05763,0.05754,-0.23389,278.79633,-5.33003,-1.1794,-0.05763
2018.03.18 16:52:26,22.2,1.92,-24.06,-0.31844,0.94574,9.37119,0.07676,0.06059,-0.00848,279.71619,-4.41334,-2.09656,0.07676
2018.03.18 16:52:26,21.72,2.64,-24.6,-0.3783,1.38389,9.73991,-0.04969,0.09786,-0.0262,280.02615,-4.90431,-2.58441,-0.04969
2018.03.18 16:52:26,22.14,3.12,-23.64,-0.29689,1.37671,10.48213,0.02362,-0.02676,0.07521,280.05951,-6.48446,-2.47367,0.02362
2018.03.18 16:52:27,21,2.76,-23.58,0.39745,1.45093,11.36802,-0.16942,-0.11106,0.24319,279.64212,-6.92238,-1.96157,-0.16942
2018.03.18 16:52:27,22.32,3.66,-25.5,-0.76138,-0.03831,10.85085,-0.15842,-0.10678,0.09231,279.52966,-6.16734,-1.65012,-0.15842
2018.03.18 16:52:27,22.62,4.02,-25.8,-0.36393,0.03113,9.41908,0.03522,-0.05913,0.14301,279.31323,-5.94467,-0.84618,1012.07764
2018.03.18 16:52:27,22.68,4.5,-26.34,-0.50519,0.67997,9.00487,0.00957,0.02578,0.05383,279.77798,-4.27143,-1.21654,1012.08447
2018.03.18 16:52:27,23.04,4.62,-25.02,-0.419,1.29051,9.56273,-0.04052,0.0105,0.0355,281.30188,-4.09321,-1.75088,-0.04052
2018.03.18 16:52:27,22.8,5.4,-25.68,-0.24661,1.3815,9.93145,0.09387,0.05388,-0.07262,284.99811,-5.40034,-2.08033,0.09387
2018.03.18 16:52:27,23.22,5.34,-25.92,-0.12211,1.18995,10.50129,-0.01303,-0.17642,-0.14471,286.14468,-6.47953,-1.68935,-0.01303
2018.03.18 16:52:27,23.76,6.84,-26.28,0.11253,-0.03591,12.55318,-0.06801,-0.10739,-0.18197,286.97855,-6.35959,-0.87193,-0.06801
2018.03.18 16:52:27,23.76,7.08,-26.58,0.27534,0.3352,10.18524,0.1971,0.01111,0.10086,288.2782,-5.38307,-0.1773,0.1971
2018.03.18 16:52:27,24.36,7.2,-27.06,-0.17957,0.77096,9.77104,-0.00754,0.08686,-0.13676,288.94147,-5.17973,-0.31016,-0.00754
2018.03.18 16:52:28,25.74,7.62,-26.34,-0.02155,0.97926,9.03599,0.03034,0.10763,-0.0824,289.83276,-5.80726,-0.9134,0.03034
2018.03.18 16:52:28,24.72,8.22,-25.32,-0.14366,1.35037,9.21796,-0.04419,0.12962,0.00435,290.51483,-6.03731,-1.37405,-0.04419
2018.03.18 16:52:28,25.68,7.8,-25.38,0.03352,1.53234,10.0799,0.06393,0.08381,0.04894,290.56476,-6.33775,-1.54078,0.06393
2018.03.18 16:52:28,26.58,7.74,-25.08,-0.57463,1.07982,11.08789,-0.16942,0.2017,0.04161,290.55621,-6.699,-1.6658,-0.16942
2018.03.18 16:52:28,27.36,8.82,-25.98,-0.86912,-0.07662,9.8692,0.02606,-0.0573,0.21693,290.04904,-4.59778,-2.06038,1012.0752
2018.03.18 16:52:28,28.8,8.22,-24.3,-0.57463,-0.08141,9.33528,-0.11261,0.07526,0.00129,288.94705,-4.4463,-2.19524,-0.11261
2018.03.18 16:52:28,28.14,8.16,-24.48,-0.52913,0.30407,9.71836,0.05783,0.01234,0.19555,288.3808,-2.90065,-3.04066,0.05783
2018.03.18 16:52:28,28.86,7.08,-24.54,-0.40463,1.0056,9.2443,0.09753,0.00501,0.16195,287.87531,-3.06967,-3.13737,1012.06982
2018.03.18 16:52:28,30.06,5.94,-24.12,-0.57463,1.24742,9.64174,0.08043,0.0551,0.04649,287.1456,-3.82927,-3.36349,0.08043
2018.03.18 16:52:29,29.7,5.52,-24.42,-0.11971,1.23784,10.85804,0.19466,-0.16176,0.01595,286.89917,-5.48242,-3.27342,0.19466
2018.03.18 16:52:29,29.22,5.58,-25.2,-0.29689,0.15802,11.46858,-0.25371,-0.20452,-0.24367,287.15671,-6.66279,-1.88707,-0.25371
2018.03.18 16:52:29,28.44,5.82,-24.36,-0.32083,0.32562,9.8261,0.06393,-0.16726,0.00618,287.60654,-5.88219,-1.53902,0.06393
2018.03.18 16:52:29,29.4,5.82,-25.02,-0.15563,0.23703,9.60583,0.00774,-0.05547,-0.22229,287.99622,-5.45953,-0.80448,0.00774
2018.03.18 16:52:29,29.16,6.48,-25.38,-0.2945,0.87391,8.47573,0.12563,0.07464,0.00801,288.97531,-4.60051,-1.13544,0.12563
2018.03.18 16:52:29,29.7,6.96,-25.38,-0.0407,1.21869,9.66808,0.00285,0.04593,-0.05369,288.99158,-4.53565,-1.11333,0.00285
2018.03.18 16:52:29,29.34,6.6,-24.9,-0.13887,1.90824,9.46457,0.04011,0.15955,-0.04819,289.03287,-4.88001,-1.30817,0.04011
2018.03.18 16:52:29,30.24,6.3,-25.74,-0.42858,1.53952,10.50608,0.07676,0.1229,0.05505,288.75983,-6.88402,-1.65662,0.07676
2018.03.18 16:52:29,31.14,6.66,-24.9,-0.45252,0.18436,12.14137,-0.27448,-0.07502,0.05749,288.16235,-6.41987,-1.92624,-0.27448
2018.03.18 16:52:30,32.34,5.7,-24.72,-0.57223,0.22267,9.00247,0.13724,-0.04203,0.10453,287.27792,-5.45681,-1.86789,0.13724
2018.03.18 16:52:30,31.14,6.3,-24.12,-0.92419,0.11014,9.42865,-0.02586,-0.03592,0.04222,286.99387,-4.98954,-2.05372,-0.02586
2018.03.18 16:52:30,31.68,5.52,-25.02,-0.23943,0.91701,8.82051,0.08043,-0.01821,0.2267,285.99396,-3.11547,-2.87591,1012.0813
2018.03.18 16:52:30,30.96,5.1,-24.9,-0.17239,1.21869,9.54119,0.01445,0.05021,0.04833,284.66766,-3.65179,-2.77196,0.01445
2018.03.18 16:52:30,31.92,5.7,-25.44,-0.26337,1.28333,10.59227,-0.05274,0.07098,-0.12882,284.93268,-4.98818,-2.74952,-0.05274
2018.03.18 16:52:30,32.28,7.02,-24.48,-0.53632,1.26897,10.39594,0.04011,-0.0799,-0.16792,285.94128,-5.97978,-2.64492,0.04011
2018.03.18 16:52:30,32.46,6.78,-24.72,-0.84518,0.19394,10.36242,-0.23783,0.06121,-0.19785,286.57336,-5.54751,-2.37601,1012.06323
2018.03.18 16:52:30,32.4,8.16,-25.56,0.25379,0.04549,9.55316,0.10364,-0.11167,0.03244,286.70734,-4.7733,-1.81659,0.10364
2018.03.18 16:52:30,33.06,8.4,-25.02,-0.52674,0.33759,9.47175,0.01201,0.02211,-0.09217,287.42957,-2.96134,-1.43847,0.01201
2018.03.18 16:52:30,32.94,8.76,-25.02,-0.40703,0.68237,9.7016,-0.05274,-0.01882,-0.00421,287.32199,-3.00891,-1.85953,-0.05274
2018.03.18 16:52:31,33.06,8.52,-25.32,-0.41182,1.00081,9.4095,0.03828,0.06059,-0.0152,287.29474,-3.07847,-1.9616,0.03828
2018.03.18 16:52:31,33.48,9.42,-24.6,-0.19633,1.33601,9.92188,0.04927,0.06976,0.04039,287.36179,-3.98152,-2.46236,0.04927
2018.03.18 16:52:31,34.8,7.74,-24.6,-0.07422,1.2953,11.27943,0.06149,0.05388,0.09475,287.065,-5.34609,-2.14009,0.06149
2018.03.18 16:52:31,34.98,9.66,-24.66,-0.40463,-0.02155,11.98574,-0.14376,-0.10678,-0.01337,286.58588,-4.70445,-1.55767,-0.14376
2018.03.18 16:52:31,36.54,8.1,-23.58,-0.87152,-0.04549,8.3656,0.06455,0.05571,0.02817,286.36472,-4.91256,-1.44038,0.06455
2018.03.18 16:52:31,36.78,7.8,-24.9,-0.50759,0.0407,10.50608,-0.15598,-0.01821,0.10575,285.86066,-2.37692,-2.17032,1012.08325
2018.03.18 16:52:31,37.02,8.64,-25.14,-0.5004,1.11334,9.06233,0.03584,0.04288,0.07948,285.40305,-2.14868,-2.1583,1012.07544
2018.03.18 16:52:31,38.34,8.64,-23.82,-0.34717,1.24263,9.94821,-0.06496,0.19437,-0.05552,285.22964,-2.58508,-2.9878,1012.07886
2018.03.18 16:52:31,38.76,8.1,-24.3,-0.03831,1.11334,10.36721,0.24964,0.06854,0.0245,285.52371,-4.46255,-3.58933,1012.07251
2018.03.18 16:52:32,39.6,9.06,-24.6,0.25619,0.3759,11.21718,-0.08328,-0.15199,-0.1331,285.87012,-6.27139,-2.93398,-0.08328
2018.03.18 16:52:32,39.96,9.72,-25.14,-0.75899,0.05986,9.85962,0.10547,-0.02737,-0.1783,287.64429,-5.49355,-2.79657,0.10547
2018.03.18 16:52:32,39.48,10.8,-24.66,-0.73744,0.44055,9.44302,0.034,0.06548,-0.24733,288.24866,-5.44532,-2.7445,0.034
2018.03.18 16:52:32,40.32,11.52,-24.72,-0.79011,0.79969,9.25627,0.05783,0.02883,-0.04941,289.63257,-4.80287,-3.04163,0.05783
2018.03.18 16:52:32,40.86,12.12,-24.6,-0.48843,1.1277,9.29457,0.01507,0.08381,0.02084,289.58743,-5.09207,-3.36096,0.01507
2018.03.18 16:52:32,41.46,11.64,-24.18,-0.35196,1.65205,9.70878,0.06699,0.02394,0.2212,288.87653,-5.76101,-3.75561,0.06699
2018.03.18 16:52:32,42.06,10.98,-24.78,-0.35914,1.50839,11.12141,0.0676,-0.00049,0.20776,288.0928,-6.79253,-3.41407,0.0676
2018.03.18 16:52:32,43.02,10.32,-25.74,-0.43336,0.66561,12.11264,-0.24883,0.12779,0.09353,286.883,-7.46043,-2.77996,-0.24883
2018.03.18 16:52:32,43.26,9.12,-25.56,-0.65603,0.35914,9.16528,0.29973,-0.15871,0.22365,286.13385,-6.83746,-2.56835,0.29973
2018.03.18 16:52:33,42.72,9.36,-24.9,-1.11094,0.36872,9.11979,0.1293,0.07342,0.10575,285.60217,-7.21562,-2.58909,0.1293
2018.03.18 16:52:33,44.16,8.46,-26.1,-0.52435,1.25221,8.74629,0.0059,0.04105,0.11186,285.21332,-5.39462,-3.57267,0.0059
2018.03.18 16:52:33,44.46,7.26,-26.34,-0.51956,1.30488,9.17486,-0.1065,0.07464,-0.00299,284.54141,-5.49169,-4.15091,-0.1065
2018.03.18 16:52:33,44.76,7.32,-25.8,-0.67758,1.65923,9.69442,-0.0222,0.06976,-0.05247,284.6871,-5.60372,-4.37313,1012.06958
2018.03.18 16:52:33,44.22,8.28,-25.92,-0.77575,1.41023,10.67607,0.1067,-0.13183,-0.04941,285.03976,-6.74578,-4.1526,0.1067
2018.03.18 16:52:33,43.5,7.98,-27.9,-0.64885,0.35196,11.8756,-0.13582,-0.24362,-0.07751,285.21832,-7.06841,-3.49312,1012.07642
2018.03.18 16:52:33,43.38,8.52,-27.78,-0.03831,0.13408,10.44383,-0.07717,-0.13061,-0.06102,285.9863,-5.53428,-2.19347,1012.07153
2018.03.18 16:52:33,43.02,8.52,-28.8,-0.51956,0.2945,9.71597,0.00835,0.0215,-0.1893,286.67352,-5.11364,-1.86997,0.00835
2018.03.18 16:52:33,43.32,8.64,-29.22,-0.22267,1.11094,8.91867,0.17206,0.03616,-0.01154,287.03979,-4.69575,-2.35818,0.17206
2018.03.18 16:52:33,42.9,7.5,-29.64,-0.3352,1.10855,8.9905,0.04683,0.06365,-0.13493,287.25629,-5.6974,-2.66595,0.04683
2018.03.18 16:52:34,43.62,7.68,-28.8,-0.46688,1.56107,9.534,-0.03014,0.13023,-0.02253,287.48126,-5.73814,-2.8624,1012.07568
2018.03.18 16:52:34,44.04,6.96,-29.1,-0.19872,1.56107,10.73114,0.02301,0.01539,0.18822,286.47128,-6.57627,-3.09965,0.02301
2018.03.18 16:52:34,45.42,7.38,-28.2,-0.3328,0.12211,10.90353,-0.07168,-0.23201,0.07398,285.49039,-5.60143,-3.14944,-0.07168
2018.03.18 16:52:34,45.12,5.64,-29.28,-0.66082,-0.14605,9.27542,-0.06618,-0.03959,0.00557,284.70163,-5.17089,-2.28728,-0.06618
2018.03.18 16:52:34,45.18,5.52,-29.94,-1.29291,0.00958,9.67287,-0.12665,0.03005,-0.07751,284.64502,-3.65721,-2.4855,-0.12665
2018.03.18 16:52:34,45.18,4.5,-29.7,-0.419,1.19474,8.71037,0.09326,0.02211,0.2157,283.11972,-1.81636,-4.0715,0.09326
2018.03.18 16:52:34,46.02,3.78,-29.82,-0.56984,1.47727,9.77104,-0.02586,0.13512,-0.03719,281.85492,-3.29433,-4.2961,-0.02586
2018.03.18 16:52:34,45.84,3.72,-28.86,-0.51477,1.24023,10.06553,0.14885,-0.04264,-0.02314,281.76126,-5.08741,-4.18037,0.14885
2018.03.18 16:52:34,45.06,2.88,-30.6,-0.27295,0.53153,11.48534,-0.15659,-0.20086,-0.03597,281.42191,-5.98339,-3.15785,-0.15659
2018.03.18 16:52:35,45.12,2.7,-30.6,-0.43576,0.1245,10.55157,-0.11444,0.01173,-0.06468,281.42316,-5.09286,-2.88575,1012.07153
2018.03.18 16:52:35,45.3,2.64,-31.44,0.18196,0.19872,9.18683,0.20749,0.02944,-0.10195,281.27597,-3.5905,-2.45934,1012.07153
2018.03.18 16:52:35,45.36,3.84,-31.92,-0.668,0.22506,9.89793,0.08776,0.06487,-0.21251,282.14752,-2.6829,-2.08571,0.08776
2018.03.18 16:52:35,45.66,2.52,-31.44,-0.52195,0.94334,9.54837,0.05477,-0.01821,-0.1276,282.29605,-3.50235,-2.36767,0.05477
2018.03.18 16:52:35,45,3.18,-30.96,-0.78532,1.34319,9.76146,0.05783,0.02944,-0.116,282.27655,-3.96598,-2.44379,1012.06934
2018.03.18 16:52:35,45,2.58,-31.56,-0.668,1.18038,10.63058,0.10059,0.02211,-0.01215,282.0697,-5.83722,-2.82518,1012.07202
2018.03.18 16:52:35,46.32,0.84,-31.62,-0.81645,0.48125,12.02405,-0.34107,-0.03165,0.09659,281.08475,-6.20372,-3.13004,-0.34107
2018.03.18 16:52:35,44.88,0.66,-32.4,-0.63209,0.33999,9.37598,0.22093,-0.13183,0.33055,279.13995,-5.32071,-2.36958,0.22093
2018.03.18 16:52:35,44.76,0.18,-32.94,-0.80208,0.28731,9.45739,-0.0222,-0.11045,0.18333,278.0007,-5.58658,-1.95385,1012.08667
2018.03.18 16:52:35,44.34,-1.86,-33.72,-0.44534,0.98405,8.88276,-0.00082,0.01722,0.2157,276.33163,-4.93625,-1.58092,-0.00082
2018.03.18 16:52:36,43.86,-1.08,-33.6,-0.26098,1.18756,9.62259,-0.11566,0.11374,0.10453,274.71204,-4.71565,-1.87384,-0.11566
2018.03.18 16:52:36,44.4,-1.86,-33.3,-0.34238,1.29291,10.12778,0.13113,0.06243,0.00679,274.1424,-5.51971,-2.33014,0.13113
2018.03.18 16:52:36,43.98,-1.2,-34.44,-0.31365,1.25221,10.66889,0.02973,-0.03226,-0.10928,274.39313,-6.50595,-2.22725,0.02973
2018.03.18 16:52:36,44.1,-1.02,-34.8,-0.37351,0.63209,10.72875,-0.0784,-0.0237,-0.16731,274.75821,-6.25098,-2.0015,-0.0784
2018.03.18 16:52:36,41.34,0.3,-33.9,0.60336,0.16999,9.68484,0.2869,0.04716,-0.1331,275.57571,-5.33422,-1.44478,0.2869
2018.03.18 16:52:36,42.18,1.02,-35.04,-0.86673,0.49322,8.87797,0.04011,0.07342,-0.3976,277.69699,-5.84163,-1.29311,1012.07861
2018.03.18 16:52:36,42.6,1.62,-35.4,-0.55787,1.18517,8.77023,-0.04846,0.01173,-0.16853,279.08557,-5.95015,-2.16333,1012.0752
2018.03.18 16:52:36,42.06,1.86,-35.58,-0.63688,1.57783,9.35443,-0.04236,0.17483,-0.10072,279.52747,-5.72622,-2.35537,1012.07861
2018.03.18 16:52:36,41.16,3,-35.22,-0.42379,1.755,10.18524,-0.00143,0.04288,0.05077,279.61746,-6.48482,-3.19559,1012.07666
2018.03.18 16:52:37,41.4,1.26,-35.04,-0.73983,0.47407,12.71599,-0.47485,0.14428,-0.03658,279.21509,-7.09183,-3.52069,1012.07886
2018.03.18 16:52:37,40.26,3.54,-34.44,-1.47248,0.48843,9.58668,0.33821,-0.07196,0.37697,279.05585,-4.90374,-3.63491,0.33821
2018.03.18 16:52:37,39.78,1.02,-34.68,-0.75659,0.36393,9.18683,-0.06679,-0.05058,0.17417,277.01514,-5.81176,-3.55599,-0.06679
2018.03.18 16:52:37,38.94,0.66,-34.5,-0.56505,0.79011,9.15571,-0.05702,-0.04447,0.19677,276.41925,-5.42165,-3.31093,-0.05702
2018.03.18 16:52:37,38.58,0.12,-35.28,-0.62251,1.35755,9.31133,-0.06312,-0.02615,0.10392,275.07941,-5.62109,-3.39881,-0.06312
2018.03.18 16:52:37,37.86,-0.72,-34.2,-0.71349,1.69994,10.33369,0.04744,0.05571,0.041,274.53632,-6.09225,-3.98315,0.04744
2018.03.18 16:52:37,37.2,-0.72,-32.76,-0.60815,1.4198,11.82293,-0.03869,-0.0573,-0.00665,274.52429,-7.59853,-4.19541,-0.03869
2018.03.18 16:52:37,37.02,0.24,-32.46,-1.07982,0.04789,12.59389,-0.39788,-0.12328,-0.2174,275.45242,-5.76712,-3.97811,-0.39788
2018.03.18 16:52:37,34.92,1.08,-33.36,-0.30407,0.03831,8.96416,0.20199,-0.03714,-0.03964,275.92807,-4.99464,-3.72499,0.20199
2018.03.18 16:52:38,35.88,1.32,-32.88,-0.93137,0.01197,9.21078,0.03522,0.05388,-0.25344,277.03271,-5.34873,-3.84719,0.03522
2018.03.18 16:52:38,35.28,1.2,-33.3,-0.74701,0.84278,9.01444,0.18366,-0.0457,0.06665,278.02844,-5.14539,-4.01734,0.18366
2018.03.18 16:52:38,34.8,0,-33.18,-0.46688,1.41502,8.74629,0.12991,0.05204,0.02573,277.69672,-5.98801,-3.92831,0.12991
2018.03.18 16:52:38,34.98,-0.12,-32.76,-0.40463,1.64487,9.77582,0.05722,0.0496,0.0074,277.62164,-6.47027,-4.07129,1012.07666
2018.03.18 16:52:38,33.9,-1.32,-32.1,-0.14126,1.82444,9.80934,0.08532,0.02944,0.14729,277.16971,-7.86389,-3.55746,1012.07324
2018.03.18 16:52:38,34.08,0.18,-31.5,-0.838,0.14605,12.40713,-0.43331,0.1394,-0.02925,276.96609,-7.38842,-3.42334,-0.43331
2018.03.18 16:52:38,34.56,0.54,-32.82,-0.82363,0.42379,9.31852,0.15618,0.01783,0.11736,276.51581,-6.04031,-3.45238,0.15618
2018.03.18 16:52:38,34.5,-0.96,-31.86,-1.1277,-0.1269,9.29936,-0.02281,0.03677,-0.01581,276.42395,-6.08576,-3.74896,1012.06396
2018.03.18 16:52:38,34.02,-0.18,-32.82,-0.76856,0.78293,8.67685,0.0224,0.05998,0.12591,276.06622,-3.35724,-5.31704,1012.06421
2018.03.18 16:52:38,34.2,-0.66,-31.14,-0.77814,1.13249,10.00567,-0.16147,-0.03775,0.07521,274.89078,-3.62587,-5.66721,-0.16147
2018.03.18 16:52:39,32.64,-0.18,-31.98,-0.72307,1.54431,9.95779,0.02362,-0.0347,0.0355,274.44836,-4.74295,-5.0933,0.02362
2018.03.18 16:52:39,33.9,0.06,-32.22,-0.81884,1.31206,11.15253,0.13968,-0.11289,0.10025,274.38947,-6.33687,-4.24844,0.13968
2018.03.18 16:52:39,33.36,-0.18,-33.18,-0.60575,-0.30407,11.83729,-0.26166,-0.25339,-0.11355,274.36008,-6.53672,-3.81111,-0.26166
2018.03.18 16:52:39,33.3,2.4,-33.6,0.50998,0.2083,9.51485,0.08593,-0.07807,0.04772,275.78915,-4.72018,-2.5696,0.08593
2018.03.18 16:52:39,32.46,2.16,-34.38,-0.61293,0.71828,8.90191,0.02789,0.05021,-0.22839,276.74698,-4.69189,-2.13373,0.02789
2018.03.18 16:52:39,34.14,3.72,-34.02,-0.59857,0.76138,9.7878,-0.03991,0.02944,-0.19968,278.28064,-4.52307,-2.58733,-0.03991
2018.03.18 16:52:39,33.36,4.92,-33.72,-0.59139,1.33122,9.12937,0.02606,0.11252,-0.0378,278.94739,-4.56287,-2.89279,0.02606
2018.03.18 16:52:39,33.06,5.1,-32.16,-0.18196,1.46051,10.3313,0.02667,0.03677,0.16195,279.56073,-5.53221,-3.6312,1012.06763
2018.03.18 16:52:39,33.48,4.8,-32.16,-0.35435,1.50839,9.96976,0.02362,0.08198,0.10392,279.55548,-7.04667,-3.12921,0.02362
2018.03.18 16:52:40,33.9,6.54,-33.3,-0.84757,-0.02394,11.26506,-0.03014,-0.01515,0.01168,279.90546,-5.73082,-2.83804,1012.06738
2018.03.18 16:52:40,33.9,6.78,-32.94,-0.95771,0.19394,8.5308,0.09814,-0.08174,0.01656,280.34583,-5.71627,-2.46757,0.09814
2018.03.18 16:52:40,34.26,6.42,-33.78,-0.76138,0.48125,9.38077,-0.101,-0.10312,0.02939,280.7074,-4.61479,-3.02546,1012.06787
2018.03.18 16:52:40,34.74,6.3,-33.3,-0.79729,0.89546,9.25627,-0.04846,-0.0854,0.07276,280.71945,-3.60984,-3.38621,1012.06494
2018.03.18 16:52:40,35.22,7.44,-34.02,-0.76617,1.25939,10.0775,-0.07473,0.05632,-0.00421,280.94318,-3.82695,-3.48211,-0.07473
2018.03.18 16:52:40,34.38,7.44,-32.76,0.00479,0.9218,11.04718,0.08409,-0.06341,-0.00787,281.65887,-4.79186,-3.5934,0.08409
2018.03.18 16:52:40,33.78,7.44,-32.88,0.18675,0.85476,11.33689,0.26735,-0.03653,0.00373,282.13257,-5.47829,-3.07514,1012.06274
2018.03.18 16:52:40,33.96,8.34,-33.66,-0.47885,-0.14126,11.04,-0.06374,-0.06036,-0.20763,283.56586,-5.21087,-2.24732,-0.06374
2018.03.18 16:52:40,34.38,8.82,-34.2,0.12211,0.32802,9.60822,0.17511,0.06182,-0.14348,285.1759,-5.26795,-2.1944,0.17511
2018.03.18 16:52:41,33.96,8.82,-33.9,-0.60815,1.04869,8.16687,0.0902,0.0777,-0.06041,286.71216,-5.67783,-2.64099,0.0902
2018.03.18 16:52:41,35.04,9,-33.72,-0.40942,1.19235,9.2443,-0.13521,0.05632,-0.03047,287.30478,-5.61042,-2.69598,-0.13521
2018.03.18 16:52:41,34.44,9.42,-33.3,-0.38308,1.97288,9.75428,-0.10527,0.05815,0.07765,287.32965,-5.34784,-2.80535,-0.10527
2018.03.18 16:52:41,35.82,9.84,-31.98,-0.19872,1.74782,10.86522,0.03461,0.09053,0.08376,287.1571,-7.45818,-2.72498,0.03461
2018.03.18 16:52:41,36.66,9,-30.9,-0.27295,0.60336,12.40474,-0.30991,0.0551,0.12713,286.80469,-8.27586,-2.87857,1012.06128
2018.03.18 16:52:41,35.94,9.06,-30.54,-0.74223,0.32802,9.06712,0.2252,-0.05669,0.17783,286.62305,-7.30523,-2.97125,0.2252
2018.03.18 16:52:41,37.02,7.68,-30.96,-1.13967,-0.13887,9.76146,0.00224,-0.09273,0.00312,286.59442,-7.34937,-2.84616,1012.06934
2018.03.18 16:52:41,35.94,9.12,-29.58,-0.61772,0.79729,9.03599,0.05966,-0.0683,0.21387,286.6073,-4.55589,-3.858,1012.07568
2018.03.18 16:52:41,38.04,7.02,-31.14,-0.5004,1.21869,9.39992,-0.03258,-0.04631,0.07398,285.44183,-4.59141,-3.60842,-0.03258
2018.03.18 16:52:41,37.08,7.68,-30.78,-0.71349,1.53712,9.75188,-0.01364,0.08198,-0.0317,285.46671,-5.24057,-3.85178,-0.01364
2018.03.18 16:52:42,38.64,7.14,-30.42,-0.31365,1.55388,10.74311,0.00712,-0.01393,0.00862,285.57239,-5.83266,-3.9882,1012.07617
2018.03.18 16:52:42,38.04,7.32,-30.06,-0.13408,0.26098,12.85486,-0.20607,-0.12389,-0.08179,285.60736,-6.4835,-3.1097,-0.20607
2018.03.18 16:52:42,38.34,9.42,-30.42,-0.15323,0.83081,8.75826,0.24597,0.07831,-0.03536,286.25522,-5.39925,-2.33153,0.24597
2018.03.18 16:52:42,40.32,9,-30.18,-0.60336,0.2921,9.4095,-0.03808,0.05082,-0.21862,287.34528,-5.89954,-3.03397,-0.03808
2018.03.18 16:52:42,40.56,10.92,-28.56,-0.39745,0.91222,9.41189,-0.03808,-0.0011,-0.07812,288.23666,-5.55699,-3.46463,-0.03808
2018.03.18 16:52:42,41.34,10.32,-29.58,-0.21788,1.4198,9.12219,0.02423,0.0551,-0.02131,288.49527,-5.38458,-3.47675,0.02423
2018.03.18 16:52:42,42.12,11.82,-28.14,-0.20112,1.65684,9.92906,0.10547,0.0777,0.07154,288.93826,-5.8437,-3.53545,0.10547
2018.03.18 16:52:42,43.26,11.76,-27.66,-0.34478,1.23066,10.54439,0.02484,0.04227,0.15034,288.37601,-7.16974,-3.25846,0.02484
2018.03.18 16:52:42,44.22,13.02,-26.64,-0.95292,0.21548,10.68565,-0.02647,-0.03165,0.19494,287.67365,-5.68054,-2.93421,1012.07007
2018.03.18 16:52:43,46.98,11.4,-27.54,-0.20591,0.24661,9.50048,-0.17491,-0.24362,0.12224,286.03406,-6.4102,-2.15496,1012.06738
2018.03.18 16:52:43,46.62,10.92,-27.12,-0.72307,0.75899,9.2012,-0.1181,-0.05608,0.03,285.85861,-5.57735,-1.66319,1012.07104
2018.03.18 16:52:43,48.36,11.34,-27.36,-0.48843,0.92898,8.99529,-0.00815,-0.00538,0.03183,285.61072,-5.22801,-1.82127,1012.06348
2018.03.18 16:52:43,49.14,10.68,-27.3,-0.57463,1.24023,9.31373,-0.02953,0.09053,-0.01337,285.68988,-4.8364,-2.29023,1012.05884
2018.03.18 16:52:43,48.12,10.44,-25.38,-0.14366,1.27615,9.98891,0.05233,0.01173,0.01473,285.84509,-5.24545,-2.93636,0.05233
2018.03.18 16:52:43,47.58,11.88,-25.68,-0.46928,0.35196,11.33689,-0.21767,-0.07502,-0.2345,286.34937,-5.43749,-2.31882,-0.21767
2018.03.18 16:52:43,47.94,10.92,-26.22,-0.67279,-0.36872,11.92109,-0.36489,-0.04936,-0.25833,287.22818,-4.29358,-2.35913,1012.06128
2018.03.18 16:52:43,47.1,12.42,-26.04,0.11971,0.17478,9.17007,0.17817,0.00684,-0.0769,288.03378,-3.29146,-2.32646,0.17817
2018.03.18 16:52:43,45.6,12.12,-23.88,-0.51477,0.52195,8.43503,0.2026,0.06854,-0.16548,288.75565,-3.73174,-2.04555,0.2026
2018.03.18 16:52:44,46.32,12,-25.8,-0.35196,0.76856,9.31373,0.03767,0.09236,-0.11294,289.5437,-4.21744,-2.56158,0.03767
2018.03.18 16:52:44,45.72,11.82,-24.42,-0.42858,1.41502,9.73273,0.05172,0.11435,-0.02437,289.84167,-4.6381,-3.22707,0.05172
2018.03.18 16:52:44,44.46,11.46,-24.3,-0.52674,1.56825,10.42467,0.11158,0.03677,0.01962,289.6814,-5.39387,-3.23499,0.11158
2018.03.18 16:52:44,45,10.32,-23.7,-0.76377,0.56984,11.78701,-0.12971,0.05815,0.0972,289.10077,-6.77501,-3.26017,1012.07202
2018.03.18 16:52:44,44.34,9.78,-23.22,-1.17559,0.01197,9.54358,0.15068,0.04227,0.19371,288.55865,-5.2043,-3.59626,1012.06714
2018.03.18 16:52:44,44.34,8.46,-23.16,-0.90264,-0.16999,9.90033,0.01812,-0.08357,0.12713,287.09949,-5.08064,-3.69197,1012.07178
2018.03.18 16:52:44,43.56,6.54,-23.52,-0.60575,0.56505,8.6984,0.1293,-0.02432,0.15401,285.7771,-3.54512,-4.20792,0.1293
2018.03.18 16:52:44,43.98,6.54,-23.4,-0.68716,1.05588,9.23472,0.0169,-0.02798,0.09353,285.10626,-3.69033,-4.10925,1012.07788
2018.03.18 16:52:44,42.66,6.84,-23.94,-0.838,1.35516,9.76625,-0.04785,0.10824,-0.10072,284.64471,-3.92313,-4.22677,1012.07031
2018.03.18 16:52:44,42.12,6.48,-23.76,-0.70152,1.18277,10.51805,0.01323,-0.08357,-0.09156,284.95428,-5.1494,-4.66906,0.01323
2018.03.18 16:52:45,40.92,6.84,-24.9,-0.61054,-0.03113,11.7535,-0.3258,-0.10312,-0.25161,285.47794,-5.45045,-3.60571,-0.3258
2018.03.18 16:52:45,40.08,8.22,-25.56,-0.56265,0.12211,9.60822,-0.01548,-0.16726,-0.01459,285.96152,-4.38434,-3.20105,1012.06763
2018.03.18 16:52:45,39.24,8.04,-26.4,-0.28492,0.30886,9.23232,0.0114,0.04288,-0.10744,285.54321,-4.22986,-2.69874,0.0114
2018.03.18 16:52:45,39.48,8.88,-26.7,-0.31365,0.55787,9.73512,0.01018,-0.10373,-0.04086,286.16629,-3.31906,-2.49385,0.01018
2018.03.18 16:52:45,38.7,8.58,-27.54,-0.55547,0.74223,9.63935,-0.02769,0.0044,-0.04941,286.46533,-3.19105,-2.48714,-0.02769
2018.03.18 16:52:45,39.12,8.7,-27.96,-0.46449,1.35516,9.80695,-0.01059,0.05021,0.01351,286.48102,-3.36032,-2.59433,-0.01059
2018.03.18 16:52:45,38.16,9.42,-28.2,-0.12211,1.31446,10.62579,0.07493,-0.01332,0.06971,286.14285,-4.95465,-2.41,0.07493
2018.03.18 16:52:45,39.24,9.54,-28.38,-0.64167,0.71828,11.23394,-0.21401,0.13084,0.11369,285.70691,-5.6981,-2.21771,-0.21401
2018.03.18 16:52:45,38.88,9.36,-28.2,-0.53153,0.01915,10.01046,0.08654,-0.07563,0.22242,284.90308,-4.40042,-2.09956,1012.05933
2018.03.18 16:52:46,40.14,8.16,-30.42,-0.91461,0.03591,8.77262,0.02545,-0.05425,0.165,283.94595,-4.75822,-2.23282,1012.06567
2018.03.18 16:52:46,39.66,7.86,-30.24,-0.51716,0.32083,9.79019,-0.01426,-0.08968,0.1424,283.45074,-4.37388,-2.16417,1012.06274
2018.03.18 16:52:46,39.84,7.68,-30.96,-0.62491,1.01996,8.93064,0.02973,0.01967,0.08376,283.02963,-3.83993,-2.52784,1012.06714
2018.03.18 16:52:46,40.38,7.68,-30.18,-0.62969,1.30488,10.25707,-0.16514,0.14306,0.02695,282.83353,-3.69676,-3.44039,1012.07129
2018.03.18 16:52:46,40.56,7.56,-30.72,-0.2945,1.50839,10.15172,0.03156,-0.10434,-0.06163,283.05719,-5.21612,-3.31277,0.03156
2018.03.18 16:52:46,39.54,8.34,-30.66,0.00958,0.91222,10.41031,0.03522,-0.15932,-0.09645,283.48483,-5.80368,-2.88314,1012.06836
2018.03.18 16:52:46,41.28,8.7,-32.22,-0.5435,-0.33041,11.47097,-0.17736,-0.02859,-0.06163,284.60434,-5.09373,-2.13505,1012.06885
2018.03.18 16:52:46,40.44,9.78,-32.58,-0.12211,-0.13887,9.69921,0.1012,0.08014,-0.22168,285.17548,-4.43584,-1.76446,0.1012
2018.03.18 16:52:46,40.26,10.26,-32.28,-0.6273,0.62969,8.88755,0.12502,-0.04631,-0.14959,286.94922,-3.93592,-2.08636,0.12502
2018.03.18 16:52:47,40.56,10.86,-32.7,-0.0407,0.85476,9.44781,0.1183,0.01967,-0.03231,287.63379,-4.53246,-1.90807,0.1183
2018.03.18 16:52:47,41.22,10.86,-32.7,-0.16999,1.18517,9.6609,0.15312,0.03799,0.06849,288.05212,-5.16599,-2.07371,0.15312
2018.03.18 16:52:47,41.34,10.02,-33.3,0.22985,1.22587,10.65931,0.14762,-0.0121,0.01412,287.86261,-6.15747,-1.7078,0.14762
2018.03.18 16:52:47,40.5,10.26,-32.28,-0.52674,0.57702,11.11183,-0.02342,0.11252,0.05688,288.03122,-6.89684,-1.36651,1012.06323
2018.03.18 16:52:47,41.58,9.54,-33.42,-0.73744,0.13408,9.95539,0.13357,-0.17703,0.2829,287.2196,-5.10574,-1.54124,1012.06567
2018.03.18 16:52:47,43.8,8.16,-33.54,-0.93616,0.15802,9.1581,0.01323,-0.00843,0.11125,285.66791,-5.35142,-1.39694,1012.0647
2018.03.18 16:52:47,42.72,7.32,-33.54,-0.38069,0.81405,8.62178,-0.00021,0.03127,0.14118,285.16669,-5.02375,-1.56095,1012.05933
2018.03.18 16:52:47,42.9,7.5,-32.88,-0.5842,1.0463,9.43105,-0.11077,0.06182,0.01901,284.43945,-4.89202,-2.30641,1012.0542
2018.03.18 16:52:47,42.78,7.86,-32.34,-0.72307,1.60177,9.57471,-0.08939,0.0722,-0.03597,284.48428,-4.43496,-2.92601,1012.0498
2018.03.18 16:52:47,42.66,7.92,-31.56,-0.32802,1.49642,10.76466,-0.00937,-0.12877,-0.03475,284.6954,-5.558,-2.9384,-0.00937
2018.03.18 16:52:48,43.32,8.94,-31.74,0.34478,0.48125,11.89955,-0.25799,-0.0683,-0.1105,285.17288,-5.10858,-2.64834,-0.25799
2018.03.18 16:52:48,42.12,10.68,-31.5,0.2514,0.28013,10.72156,-0.12727,0.01967,-0.24306,285.9696,-4.34939,-2.53989,1012.05396
2018.03.18 16:52:48,42.96,10.56,-32.16,-0.33759,-0.2107,9.80216,0.11036,-0.0011,-0.31941,287.33569,-4.68184,-2.03553,0.11036
2018.03.18 16:52:48,42.78,11.22,-32.28,-0.29928,0.47167,8.73431,0.17023,0.03738,-0.10744,289.13409,-4.5741,-2.05483,0.17023
2018.03.18 16:52:48,43.44,11.34,-32.7,0.30647,1.04869,8.80375,-0.00021,0.01783,-0.02803,289.62732,-4.74425,-2.0135,-0.00021
2018.03.18 16:52:48,42.54,12.66,-30.66,0.2921,1.60895,9.52682,0.06027,0.00317,-0.07751,289.7612,-4.93897,-1.69292,0.06027
2018.03.18 16:52:48,43.02,12.42,-30.72,-0.44534,1.49163,10.5372,0.06577,-0.03165,0.0129,290.03046,-5.80443,-1.53097,0.06577
2018.03.18 16:52:48,43.38,12.12,-30.3,-0.50998,0.14845,11.99292,-0.34718,0.03066,0.08254,289.68896,-6.05565,-2.04096,-0.34718
2018.03.18 16:52:48,43.44,12.66,-29.88,-0.36154,-0.59139,10.13736,0.11708,-0.18314,0.2603,288.79419,-4.30268,-1.60267,1012.06665
2018.03.18 16:52:49,44.1,12.12,-30.48,-0.85954,-0.22506,9.534,-0.00693,-0.04508,0.19616,287.55087,-3.71558,-1.08268,-0.00693
2018.03.18 16:52:49,43.44,10.56,-30.78,-0.15084,0.80208,8.66249,0.17572,-0.02676,0.24991,286.73459,-3.51005,-1.04559,1012.06445
2018.03.18 16:52:49,44.22,9.3,-30.84,-0.40463,1.10376,9.13176,-0.00143,0.04227,0.01901,285.71783,-4.10315,-1.01628,1012.06616
2018.03.18 16:52:49,44.4,9.78,-30.18,-0.59378,1.28573,10.26665,-0.05946,0.08625,-0.01154,285.94412,-4.26044,-1.76497,-0.05946
2018.03.18 16:52:49,44.4,9.84,-29.46,0.14845,1.39107,11.17169,0.25025,-0.07196,0.11736,285.49924,-5.62595,-1.93779,0.25025
2018.03.18 16:52:49,44.1,10.8,-29.4,-0.28492,0.18915,11.13338,0.12869,-0.19475,-0.14776,285.57773,-6.85475,-1.39904,1012.07227
2018.03.18 16:52:49,43.08,12,-29.64,0.43576,0.14126,10.30256,-0.03808,-0.15138,-0.19846,287.57404,-5.23984,-0.73213,-0.03808
2018.03.18 16:52:49,43.32,13.26,-30.18,-0.38548,0.36872,9.29218,-0.00021,0.07831,-0.20701,288.74591,-5.18921,-0.47724,-0.00021
2018.03.18 16:52:49,43.32,15.12,-29.28,-0.19872,1.01996,8.43503,0.1464,0.06976,-0.05613,289.96823,-5.37495,-0.8577,0.1464
2018.03.18 16:52:49,43.74,14.82,-29.34,0.00718,0.75659,9.285,-0.07412,0.06304,-0.09156,290.59918,-5.2447,-1.4821,-0.07412
2018.03.18 16:52:50,44.04,15.48,-28.62,0.26576,1.98007,9.05754,0.0395,0.20232,-0.0714,291.07962,-4.76962,-1.70639,0.0395
2018.03.18 16:52:50,46.02,15.06,-28.02,-0.73504,1.57064,9.97934,0.11219,0.11252,-0.00299,291.36609,-6.5444,-2.12913,0.11219
2018.03.18 16:52:50,45.48,14.94,-26.46,-0.55068,-0.59378,12.80458,-0.4553,-0.12633,-0.02559,291.25363,-6.33118,-2.23004,1012.05933
2018.03.18 16:52:50,44.76,16.08,-26.46,-0.48364,0.15084,8.7415,0.18244,-0.11228,0.03611,291.29407,-5.31885,-1.44648,1012.06714
2018.03.18 16:52:50,45.9,16.02,-27.78,-0.93377,-0.18675,9.91709,-0.01548,-0.11167,0.06054,291.7251,-3.67804,-1.62206,1012.06738
2018.03.18 16:52:50,47.16,15.96,-28.38,-0.20351,0.68955,8.68882,0.15984,-0.09334,0.23342,291.22134,-2.78338,-1.93504,1012.05908
2018.03.18 16:52:50,47.64,14.76,-28.2,-0.2107,0.94095,9.85005,-0.05396,-0.03226,0.09292,289.85767,-2.96289,-1.41142,1012.05908
2018.03.18 16:52:50,48.84,14.52,-29.22,0.09098,1.32882,9.95061,0.07493,0.09175,-0.02742,289.60791,-3.64161,-1.44832,1012.05469
2018.03.18 16:52:50,49.32,14.1,-28.44,-0.1245,1.06066,10.11342,0.07432,0.12229,-0.18686,290.08011,-5.12462,-1.36176,0.07432
2018.03.18 16:52:51,49.8,15.54,-27.48,-0.48364,-0.13887,11.36562,-0.19507,-0.02248,-0.20946,291.72638,-3.71504,-1.60256,-0.19507
2018.03.18 16:52:51,49.38,16.08,-27.6,0.33759,0.09098,9.25627,0.22276,0.04105,-0.02131,291.98233,-3.39308,-1.6081,1012.05591
2018.03.18 16:52:51,50.34,15.48,-27.24,-0.51956,0.3352,9.21796,0.04378,0.00867,-0.03047,292.16724,-3.61718,-1.62082,0.04378
2018.03.18 16:52:51,51.54,13.92,-28.02,0.10295,1.05348,9.79258,-0.01548,0.05937,0.05993,291.40778,-3.61256,-1.78285,-0.01548
2018.03.18 16:52:51,51.12,12.3,-27.18,-0.04549,1.35037,9.59865,-0.0393,0.09786,-0.01704,290.7641,-4.05266,-2.09174,-0.0393
2018.03.18 16:52:51,50.16,13.26,-25.02,-0.41421,1.8388,9.89314,0.04866,0.11007,0.04039,290.54431,-4.79504,-2.1565,0.04866
2018.03.18 16:52:51,50.94,11.4,-25.8,-0.57941,1.58501,10.56115,0.09753,-0.00049,0.23831,289.41159,-7.03136,-2.40975,0.09753
2018.03.18 16:52:51,51.72,8.76,-24.48,-0.2945,-0.00958,11.81335,0.12258,-0.18131,0.05016,287.32632,-6.60202,-2.07105,0.12258
2018.03.18 16:52:51,52.26,6.48,-25.38,-0.71349,-0.05267,8.69361,0.34493,-0.03287,0.15279,286.64536,-6.93645,-1.68372,0.34493
2018.03.18 16:52:52,51.72,6.12,-25.32,-0.79969,-0.30886,10.26426,-0.12116,-0.05669,0.00312,285.71588,-6.73305,-1.59445,-0.12116
2018.03.18 16:52:52,51,5.16,-26.28,-0.21309,1.02714,8.39433,0.07737,0.00562,0.21021,284.36868,-3.7673,-2.619,0.07737
2018.03.18 16:52:52,51.18,4.2,-25.38,-0.30168,1.55388,9.60583,-0.11138,0.04471,-0.02009,282.94293,-3.80948,-2.59192,1012.05908
2018.03.18 16:52:52,51.54,4.02,-25.68,-0.16042,1.70951,9.77104,0.05599,0.06976,-0.0659,282.76971,-5.43348,-2.96812,1012.0603
2018.03.18 16:52:52,50.22,3.54,-25.02,-0.34956,1.70951,9.83329,0.03706,-0.0066,-0.09339,282.7619,-6.38941,-2.80594,1012.06616
2018.03.18 16:52:52,49.02,4.8,-26.22,-0.44773,0.30647,11.03521,-0.33129,-0.03714,-0.28582,283.30649,-6.23939,-1.97039,1012.06494
2018.03.18 16:52:52,46.98,5.76,-25.38,0.14845,-0.30407,10.08708,0.17389,0.00562,-0.0036,283.9812,-4.83101,-1.68656,0.17389
2018.03.18 16:52:52,45.96,6.36,-25.02,-0.09098,0.31844,9.05036,0.07065,0.05449,-0.06774,283.75623,-4.7753,-1.50236,0.07065
2018.03.18 16:52:52,46.98,5.28,-27.48,-0.2083,0.92419,9.12698,0.06577,0.04593,-0.00604,283.53412,-4.11573,-1.50104,0.06577
2018.03.18 16:52:52,46.14,5.52,-26.82,-0.05746,1.15643,9.41189,0.01384,0.08686,-0.05491,281.94843,-4.36682,-1.6006,0.01384
2018.03.18 16:52:53,46.86,6.24,-26.4,-0.36632,1.57783,9.45739,0.10914,0.12351,0.00801,281.43854,-5.07836,-1.78907,0.10914
2018.03.18 16:52:53,45.78,4.86,-25.8,-0.63688,1.30727,10.53481,0.0621,0.06548,0.11552,280.93176,-6.87046,-1.75832,0.0621
2018.03.18 16:52:53,45.48,4.74,-26.16,-0.65364,-0.24422,12.26108,-0.08328,-0.05303,0.07521,280.00815,-6.04568,-1.88274,-0.08328
2018.03.18 16:52:53,45.36,4.32,-27.3,-0.45252,0.10295,8.39672,0.0224,-0.09029,0.05077,279.09744,-5.74349,-1.53524,0.0224
2018.03.18 16:52:53,45.36,4.14,-27.78,-0.5435,0.17957,9.93385,-0.12299,-0.11106,0.06849,279.00333,-4.87171,-1.49436,-0.12299
2018.03.18 16:52:53,45.06,3.84,-28.8,-0.27774,1.03672,8.73431,0.0395,-0.0176,0.09842,278.18613,-3.50083,-1.84848,0.0395
2018.03.18 16:52:53,44.4,4.2,-28.2,-0.54589,1.30009,9.49809,-0.09306,0.07831,-0.04452,278.10306,-3.53464,-2.27222,-0.09306
2018.03.18 16:52:53,44.04,4.32,-27.9,-0.62251,1.5036,10.0775,0.08043,0.01478,-0.02314,278.45551,-4.88541,-3.08662,0.08043
2018.03.18 16:52:53,44.34,5.34,-27.48,-0.13169,1.46769,10.20919,0.11403,-0.08052,0.03794,278.53662,-5.81054,-3.16334,1012.07153
2018.03.18 16:52:54,44.58,5.94,-28.44,-0.46449,0.50998,11.44224,-0.23295,-0.06952,-0.09706,279.0177,-5.86104,-1.9272,1012.0769
2018.03.18 16:52:54,43.38,6.54,-29.16,0.31365,0.05746,9.61301,0.1574,-0.04936,-0.00604,279.49219,-4.93069,-1.54339,1012.06787
2018.03.18 16:52:54,43.56,7.14,-29.58,-0.08619,-0.00479,9.77104,0.03828,0.02883,-0.09095,280.4809,-3.32233,-0.74194,0.03828
2018.03.18 16:52:54,43.68,7.2,-29.76,-0.01676,0.83321,8.47573,0.12441,0.1058,-0.01765,280.71368,-2.94677,-0.89241,1012.06763
2018.03.18 16:52:54,44.94,6.72,-30.18,-0.22985,1.41023,9.54837,-0.00265,0.05021,-0.08179,281.02039,-3.52484,-1.25972,1012.06812
2018.03.18 16:52:54,45.18,7.56,-28.5,-0.26098,1.9226,9.94342,0.09448,0.16383,0.00312,281.64258,-4.88088,-1.63305,0.09448
2018.03.18 16:52:54,45.42,7.44,-28.2,-0.5028,1.91781,10.04877,0.24231,0.09847,0.14484,281.6073,-7.48187,-2.19785,0.24231
2018.03.18 16:52:54,46.14,6.96,-28.2,-0.52674,-0.72068,13.23316,-0.15903,-0.1807,-0.03475,281.33572,-7.85656,-2.38804,1012.06519
2018.03.18 16:52:54,46.02,6.42,-28.68,-0.38548,0.11732,8.09265,0.44206,-0.11472,0.27251,281.27048,-6.47833,-1.62103,0.44206
2018.03.18 16:52:54,46.86,5.22,-28.98,-0.90743,-0.11732,10.09666,-0.14254,-0.05547,0.08192,280.63562,-5.46885,-1.50438,-0.14254
2018.03.18 16:52:55,47.16,4.08,-29.64,-0.39027,1.02954,8.94022,0.03706,0.03433,0.16622,279.32767,-4.64756,-2.17002,0.03706
2018.03.18 16:52:55,46.8,2.7,-28.68,-0.49322,1.3384,9.29936,-0.00937,0.10336,-0.03109,278.56268,-4.8614,-2.30882,-0.00937
2018.03.18 16:52:55,46.14,3.3,-29.64,-0.38787,1.58262,10.25707,-0.00937,0.0832,-0.06529,278.65018,-5.31576,-2.60016,-0.00937
2018.03.18 16:52:55,47.16,2.58,-29.52,-0.16281,1.52755,10.63297,0.18244,-0.06891,-0.0378,278.80765,-7.14291,-2.73295,0.18244
2018.03.18 16:52:55,46.5,2.4,-29.76,-0.84518,-0.03591,11.34886,-0.08695,-0.04508,-0.15143,279.68185,-6.82155,-2.44863,1012.06177
2018.03.18 16:52:55,45.9,2.22,-31.62,0.7111,0.16042,9.64414,0.13052,-0.11778,0.04711,279.30981,-6.15688,-1.75546,1012.06689
2018.03.18 16:52:55,45.18,2.7,-31.14,-0.43576,0.73744,9.00966,0.04317,-0.03409,-0.15815,279.44342,-6.02017,-1.24456,1012.06665
2018.03.18 16:52:55,45.12,1.98,-31.38,-0.58181,1.34798,9.53161,-0.05274,0.10946,-0.06774,279.90427,-5.34096,-1.68983,1012.05713
2018.03.18 16:52:55,45.66,2.28,-30.72,-0.27774,1.34079,9.78061,-0.04908,0.02211,0.04588,279.62723,-5.7567,-2.6509,1012.0564
2018.03.18 16:52:56,45.48,1.98,-31.2,0.53392,1.95852,9.44541,0.05111,-0.00294,0.09109,278.72949,-7.01032,-2.2966,0.05111
2018.03.18 16:52:56,45.72,2.28,-31.74,-0.24182,1.49642,10.10145,-0.10589,0.06487,0.09536,278.25146,-8.48927,-1.8584,-0.10589
2018.03.18 16:52:56,45.12,2.22,-31.44,-0.45012,0.19394,12.2946,-0.43331,0.1229,0.01839,278.01294,-7.56052,-1.90275,1012.06934
2018.03.18 16:52:56,46.38,1.98,-31.74,-0.74223,0.28971,8.46137,0.23498,0.0551,0.16622,277.80682,-6.64698,-1.91696,0.23498
2018.03.18 16:52:56,46.38,1.14,-32.64,-0.48364,0.06943,10.15651,-0.08695,-0.10984,0.19066,276.93573,-5.03481,-2.69311,-0.08695
2018.03.18 16:52:56,45.54,-0.12,-32.58,-0.30407,1.15165,8.69601,0.04622,-0.05303,0.10819,275.49658,-4.14662,-2.63417,0.04622
2018.03.18 16:52:56,45.18,-0.24,-32.46,-0.81884,1.5467,9.80216,-0.08084,-0.0518,-0.05796,275.22821,-4.27981,-2.49998,-0.08084
2018.03.18 16:52:56,45.78,-0.12,-32.52,-0.79969,1.61853,10.00807,-0.03747,0.12718,-0.13493,275.9584,-5.23294,-3.45447,-0.03747
2018.03.18 16:52:56,45.3,0.84,-33.06,0.10295,1.58262,10.72396,0.08898,-0.16054,0.01412,276.18094,-6.91881,-3.48339,0.08898
2018.03.18 16:52:57,44.1,1.14,-34.08,-0.61054,-0.1245,11.26506,-0.17308,-0.17337,-0.3298,277.45898,-6.28088,-1.66729,1012.07275
2018.03.18 16:52:57,42.36,3.3,-33.84,0.06465,0.0407,9.8716,0.09265,-0.09212,-0.10561,278.26364,-5.71835,-1.44356,0.09265
2018.03.18 16:52:57,43.92,2.04,-35.22,-0.15323,0.35435,9.82371,0.09326,0.05388,-0.14837,278.79352,-5.86599,-1.14825,1012.06372
2018.03.18 16:52:57,42.54,2.1,-34.98,-0.06943,1.31925,8.10223,0.14885,0.12596,-0.04391,279.18451,-5.11047,-1.73168,1012.0603
2018.03.18 16:52:57,42.78,3.12,-35.34,-0.18196,1.31206,9.44302,-0.10039,0.13084,-0.03353,279.61841,-5.17809,-2.03369,1012.06445
2018.03.18 16:52:57,42.3,2.82,-34.62,0.08141,1.87232,10.09426,0.03034,0.01967,0.09048,279.06757,-6.03994,-2.10242,0.03034
2018.03.18 16:52:57,42.12,3.24,-34.2,-0.26337,1.66881,9.83568,0.10364,0.07037,0.11186,278.79694,-7.01684,-1.80397,1012.06396
2018.03.18 16:52:57,42,2.76,-34.92,-0.37111,-0.2083,12.39277,-0.2867,-0.08968,0.01778,278.14417,-6.94495,-1.34488,1012.06152
2018.03.18 16:52:57,42.12,1.62,-34.14,-1.14207,0.22985,8.54517,0.29973,-0.05791,0.06849,278.02155,-6.48413,-0.85973,0.29973
2018.03.18 16:52:57,43.14,1.26,-36.18,-0.68476,0.21788,9.72554,0.00529,-0.05486,0.14118,277.53427,-4.8527,-2.54181,0.00529
2018.03.18 16:52:58,43.02,0.6,-34.98,-0.25858,0.99602,8.78938,-0.00631,0.02272,0.13812,276.35342,-4.00686,-3.27184,-0.00631
2018.03.18 16:52:58,42.9,0.6,-35.22,-0.35914,1.28573,9.46457,-0.06923,0.04471,0.02328,275.93893,-3.95285,-3.21942,-0.06923
2018.03.18 16:52:58,43.38,0.18,-33.84,-0.40703,1.73345,10.26904,0.02789,0.11313,-0.05124,275.90701,-4.71422,-3.45042,0.02789
2018.03.18 16:52:58,43.8,1.74,-34.32,-0.57463,1.49163,10.4534,0.10547,-0.06708,-0.10439,276.5498,-6.69945,-3.16998,0.10547
2018.03.18 16:52:58,43.92,1.32,-34.44,-0.7925,0.68237,10.37679,-0.02403,-0.0854,-0.01948,277.28732,-6.46661,-2.7425,-0.02403
2018.03.18 16:52:58,43.14,1.44,-34.92,0.09098,0.17478,9.48851,0.19527,0.04044,-0.19907,277.52435,-5.86187,-1.96182,1012.0625
2018.03.18 16:52:58,44.04,0.84,-35.46,-0.47885,0.52195,9.52921,0.11403,0.02211,-0.22412,278.29333,-5.90502,-2.04498,1012.06128
2018.03.18 16:52:58,44.4,1.08,-34.74,-0.35675,1.14925,9.11979,0.06149,-0.04508,0.02328,278.73456,-6.06732,-2.14437,1012.05908
2018.03.18 16:52:58,44.04,1.32,-35.76,-0.4166,1.28094,8.9474,0.045,0.09602,-0.00787,278.56656,-6.01643,-2.18466,1012.05811
2018.03.18 16:52:59,44.88,0.18,-34.14,-0.48843,1.82683,9.00247,0.01629,0.08747,0.05444,278.3519,-6.24438,-2.52085,1012.06299
2018.03.18 16:52:59,44.4,-0.48,-35.4,-0.23703,1.45572,10.33369,-0.06557,0.03921,0.19494,277.18481,-7.09283,-2.5843,1012.06396
2018.03.18 16:52:59,45.24,-1.62,-34.14,-0.63209,0.24422,12.42868,-0.28915,-0.00599,0.14729,275.53973,-6.58026,-2.43394,1012.06616
2018.03.18 16:52:59,44.1,-3,-34.74,-0.52435,0.64167,8.37517,0.21604,-0.0518,0.32933,273.72354,-5.9229,-2.2411,0.21604
2018.03.18 16:52:59,43.92,-4.74,-35.88,-0.52435,0.18436,9.82371,-0.20912,-0.14282,0.10514,271.9313,-5.6513,-1.67477,-0.20912
2018.03.18 16:52:59,44.82,-5.58,-35.82,-0.13408,1.22826,8.47813,0.06271,0.05204,0.09475,270.75995,-4.79146,-1.44446,0.06271
2018.03.18 16:52:59,44.4,-5.88,-35.52,-0.28013,1.25939,9.73752,-0.12238,0.00195,-0.02314,270.397,-4.74544,-1.46735,-0.12238
2018.03.18 16:52:59,44.7,-5.82,-35.76,-0.40942,1.63768,9.11979,-0.03686,0.03983,-0.13066,270.48355,-5.1,-1.67446,-0.03686
2018.03.18 16:52:59,44.04,-5.34,-36.36,-0.05267,1.28333,10.99451,0.14885,-0.10128,-0.13249,271.24335,-6.71713,-1.82643,0.14885
2018.03.18 16:53:00,44.64,-4.86,-37.56,-0.67279,-0.14366,11.20521,0.01445,-0.17276,-0.38233,272.70013,-6.84274,-1.26075,1012.04028
2018.03.18 16:53:00,43.92,-4.14,-37.56,0.62969,0.31126,9.67287,0.23498,-0.14221,-0.08057,273.409,-7.07782,-1.13969,0.23498
2018.03.18 16:53:00,44.4,-5.76,-37.32,0.30647,0.6704,10.7479,0.04317,0.09969,-0.20946,273.50922,-7.31875,-0.51274,0.04317
2018.03.18 16:53:00,43.92,-6.18,-36.78,0.19394,1.41023,8.83009,0.17267,0.10885,-0.10133,273.75787,-7.78419,-0.72053,1012.04761
2018.03.18 16:53:00,44.46,-5.34,-35.7,-0.22985,1.45811,9.20838,0.0059,0.13879,-0.21618,274.57996,-7.8306,-1.00362,0.0059
2018.03.18 16:53:00,46.2,-4.38,-36.24,-0.8763,1.56586,9.45739,-0.01731,0.1736,-0.02375,275.05411,-7.48315,-1.99438,-0.01731
2018.03.18 16:53:00,45.78,-5.52,-36.48,-0.78772,1.50121,10.07032,-0.0167,0.08075,0.16439,274.51999,-7.50285,-2.38123,1012.06079
2018.03.18 16:53:00,46.62,-6.12,-35.52,-0.32802,0.74701,11.67688,-0.54449,-0.02065,0.16745,272.74017,-7.52629,-3.78398,-0.54449
