Time,Mag_x,Mag_y,Mag_z,Acc_x,Acc_y,Acc_z,Gyro_x,Gyro_y,Gyro_z,Orn_x,Orn_y,Orn_z,Pressure
2018.03.18 18:42:19,33.9,1.98,-36.06,-0.2921,1.00081,9.83089,-0.02069,-0.14063,0.06443,279.93661,-3.94539,-2.33879,1012.1394
2018.03.18 18:42:19,33.06,2.34,-36.78,-0.34478,0.68955,10.52044,-0.30902,0.1422,0.08947,279.19348,-3.80321,-2.18749,1012.146
2018.03.18 18:42:19,34.26,1.74,-36.3,-0.10535,0.8787,9.54837,-0.11599,0.15564,0.15606,278.29001,-3.50386,-2.74678,-0.11599
2018.03.18 18:42:19,33.66,2.58,-35.7,-0.43576,0.73265,10.82212,-0.15203,0.03958,0.07115,277.66428,-2.81128,-2.97732,1012.15186
2018.03.18 18:42:19,35.7,1.98,-34.86,-1.05109,1.34319,9.55795,0.03062,0.12327,-0.00765,277.26627,-3.82099,-3.47774,1012.14575
2018.03.18 18:42:19,35.04,2.82,-34.68,-0.77814,1.31685,10.02483,-0.15142,-0.06793,-0.06019,277.61826,-4.54466,-3.87271,1012.14893
2018.03.18 18:42:20,35.64,3.36,-34.44,-1.34558,1.47966,9.44302,-0.09217,-0.03678,-0.11456,278.40948,-5.43426,-4.6319,-0.09217
2018.03.18 18:42:20,34.86,3.3,-34.86,-1.19714,0.98405,10.42467,-0.09339,-0.09359,-0.04553,279.32892,-5.97291,-5.04703,1012.15381
2018.03.18 18:42:20,34.62,3.54,-34.26,-0.90504,0.76377,10.5396,0.18822,-0.09909,0.10902,279.5116,-6.51812,-4.85527,1012.15698
2018.03.18 18:42:20,34.44,1.92,-33.72,-0.34478,-0.39506,11.40633,-0.12332,-0.07404,0.00029,279.28772,-5.39364,-4.15617,-0.12332
2018.03.18 18:42:20,34.26,2.58,-34.86,-0.14605,-0.33999,9.73273,0.07399,-0.02273,-0.05103,279.67255,-3.55106,-3.40282,0.07399
2018.03.18 18:42:20,35.1,2.88,-34.86,-0.14126,-0.04549,10.0368,-0.21312,0.08784,-0.28743,280.30203,-1.20581,-2.49089,-0.21312
2018.03.18 18:42:20,35.04,4.2,-34.32,-0.25858,0.7111,9.22993,-0.12332,0.03591,-0.06752,280.56616,-0.74462,-2.4675,-0.12332
2018.03.18 18:42:20,34.44,4.44,-33.48,-0.19872,0.85476,9.92906,-0.07506,0.03652,-0.09256,280.5863,-1.52721,-2.05571,1012.16602
2018.03.18 18:42:20,34.92,4.5,-32.04,-0.31126,1.03912,9.73512,0.0294,0.08112,-0.03514,280.83923,-2.82897,-2.19853,1012.16504
2018.03.18 18:42:21,34.8,4.68,-32.64,-0.34238,0.89306,9.69921,0.09415,-0.01112,-0.02476,281.03717,-3.87349,-1.85286,1012.16748
2018.03.18 18:42:21,36.12,4.14,-32.28,-0.4166,-0.53871,11.63139,-0.1557,0.09883,-0.07729,281.18152,-3.74395,-2.16107,1012.16187
2018.03.18 18:42:21,35.82,4.74,-32.1,-0.85476,-0.21309,9.09106,0.20471,-0.11619,0.08214,281.37988,-2.64494,-1.75963,0.20471
2018.03.18 18:42:21,35.58,3.42,-32.16,-1.27854,-0.30647,9.05994,-0.11538,-0.01174,0.04122,280.51038,-3.07122,-1.94992,-0.11538
2018.03.18 18:42:21,35.46,3.06,-32.16,-1.04151,-0.11493,9.88836,-0.19418,-0.05999,0.12368,279.6384,-1.6216,-2.09136,1012.16797
2018.03.18 18:42:21,35.88,3.48,-32.34,-0.47646,0.74941,9.00966,-0.05063,-0.02334,0.28312,278.01553,-1.20146,-2.63766,-0.05063
2018.03.18 18:42:21,35.52,2.58,-32.46,-0.18915,1.06066,10.09426,-0.01581,-0.04289,0.19699,276.49823,-0.53582,-2.45411,-0.01581
2018.03.18 18:42:21,35.58,1.5,-31.32,-0.05986,0.90264,10.87001,0.22426,0.01331,0.09314,275.71478,-1.49909,-2.54156,0.22426
2018.03.18 18:42:21,36,0.78,-31.92,0.24182,0.08619,10.88198,0.28657,-0.07588,0.02961,275.62497,-3.16903,-2.15416,0.28657
2018.03.18 18:42:21,35.46,1.2,-32.28,-0.38308,-0.67758,10.19961,-0.05918,-0.049,-0.36012,277.2695,-2.19737,-1.70247,-0.05918
2018.03.18 18:42:22,36.72,2.52,-32.52,-0.38308,-0.50998,8.79417,0.06177,0.01331,-0.23551,278.03952,-1.9551,-1.82442,0.06177
2018.03.18 18:42:22,36.48,2.88,-32.22,-0.56744,-0.03591,9.39274,-0.08361,-0.07893,-0.03331,278.43701,-0.74746,-2.03335,-0.08361
2018.03.18 18:42:22,36.66,2.94,-32.22,-0.11971,0.44294,9.57949,-0.11904,0.03286,0.08581,277.86249,-0.21043,-2.12345,-0.11904
2018.03.18 18:42:22,37.38,3.54,-31.44,0.38069,1.01757,9.28021,0.041,0.1532,0.0687,277.41907,-1.08635,-2.39005,1012.15674
2018.03.18 18:42:22,37.5,2.46,-30.84,-0.2945,0.9194,10.63776,0.06299,0.14342,-0.03881,277.72974,-2.27662,-1.79836,1012.14722
2018.03.18 18:42:22,37.38,2.46,-30.24,-0.51956,0.2921,11.77983,-0.12393,0.04813,0.13773,276.96664,-2.76801,-1.86904,1012.15356
2018.03.18 18:42:22,37.02,1.8,-30.42,-0.69913,-0.7518,9.8285,0.24625,-0.18766,0.0968,276.39941,-2.11802,-1.1358,0.24625
2018.03.18 18:42:22,37.44,0.3,-31.26,-0.66561,-0.54589,8.67685,0.19189,-0.06549,0.12185,275.53665,-2.5371,-1.11655,1012.15894
2018.03.18 18:42:22,36.9,-0.18,-29.76,-0.57223,-0.1676,9.44063,-0.04024,-0.07221,0.05404,274.75854,-1.29199,-1.83941,-0.04024
2018.03.18 18:42:23,36.96,-0.78,-29.52,-0.76138,0.26816,9.32809,-0.17097,0.02247,0.01617,274.12283,-0.00899,-2.60024,-0.17097
2018.03.18 18:42:23,36.48,-0.18,-30.3,-0.25379,0.63688,9.98173,-0.11171,0.00842,0.05893,273.28024,0.32846,-3.0002,-0.11171
2018.03.18 18:42:23,35.88,-0.12,-30.24,-0.44773,0.66321,10.84846,-0.05796,-0.03678,-0.00888,272.85593,-0.80278,-2.58637,-0.05796
2018.03.18 18:42:23,35.22,-0.6,-30.3,0.22027,-0.32323,11.44224,0.02084,-0.17239,-0.117,273.1564,-1.71357,-1.4914,0.02084
2018.03.18 18:42:23,35.16,0.36,-29.88,-0.11253,-0.86194,9.92427,-0.01703,0.01392,-0.13777,274.13098,-0.69326,-1.25772,-0.01703
2018.03.18 18:42:23,34.8,-1.08,-30.36,0.13408,-0.61772,9.4933,0.06238,-0.02762,-0.17137,274.16565,-1.00218,-0.75876,0.06238
2018.03.18 18:42:23,34.2,-0.36,-29.52,-0.66321,-0.1676,9.56273,0.00252,0.02919,-0.05775,274.87103,-0.51754,-1.14798,0.00252
2018.03.18 18:42:23,34.26,-1.56,-30.12,0.05507,0.18436,9.50767,0.02817,0.02186,0.00456,274.14673,-0.47005,-1.47199,0.02817
2018.03.18 18:42:23,33.96,-1.02,-29.88,-0.21548,0.58181,9.50767,-0.06101,0.08539,-0.0382,273.64957,-0.45635,-1.53295,1012.16333
2018.03.18 18:42:24,33.72,-2.16,-28.62,-0.00479,1.18517,10.34327,0.02268,0.08967,0.07787,272.56558,-1.83501,-1.37503,1012.16113
2018.03.18 18:42:24,32.7,-2.52,-28.38,-0.01197,0.51956,11.53083,-0.00726,0.03591,0.15056,271.68481,-2.87078,-1.18611,1012.1604
2018.03.18 18:42:24,33.24,-3.48,-28.5,-0.60096,-0.85236,10.44143,0.18761,-0.07527,0.14506,270.61188,-2.03445,-0.85874,0.18761
2018.03.18 18:42:24,32.34,-5.16,-28.5,-0.79011,-0.84757,8.85403,-0.04574,-0.05389,0.02106,269.04233,-1.31078,-0.62721,1012.15649
2018.03.18 18:42:24,31.74,-5.58,-28.32,-0.47646,-0.36872,9.52443,-0.05246,-0.02029,0.11818,267.59695,1.51281,-2.08557,1012.16553
2018.03.18 18:42:24,32.46,-6.66,-28.74,-0.4621,0.29689,9.26824,-0.1618,0.05851,0.16828,265.59064,1.91409,-2.63626,-0.1618
2018.03.18 18:42:24,30.9,-6.66,-29.7,0.11014,0.89546,10.07511,-0.1673,0.06829,0.09803,263.68015,1.98453,-3.06037,-0.1673
2018.03.18 18:42:24,31.02,-6,-28.74,-0.03591,0.7542,10.06074,0.00924,0.06829,-0.23306,263.59558,-0.12445,-2.51855,0.00924
2018.03.18 18:42:24,31.08,-6,-28.44,0.03591,-0.20351,11.15732,-0.03658,-0.11742,-0.23429,264.55948,-0.98822,-1.5844,-0.03658
2018.03.18 18:42:24,30.06,-4.08,-29.16,-0.29689,-1.2115,10.25947,-0.08178,-0.17972,-0.22085,265.5928,0.32533,-0.58582,-0.08178
2018.03.18 18:42:25,30.3,-4.68,-29.28,0.49801,-1.05348,9.93385,-0.03413,-0.02212,-0.14693,265.67804,0.51756,-0.14221,-0.03413
2018.03.18 18:42:25,30.06,-3.12,-30.18,-0.15563,-0.12211,9.05275,0.05811,0.06829,-0.07302,266.26593,1.60433,-0.47181,1012.15991
2018.03.18 18:42:25,30.96,-3.36,-28.98,0.01915,0.22027,9.45978,-0.094,0.08784,-0.01437,265.85211,1.23158,-0.89877,1012.15015
2018.03.18 18:42:25,29.82,-4.02,-29.1,0.22985,1.07982,9.46457,-0.01214,0.12815,0.07726,265.21368,0.04847,-1.02721,1012.15796
2018.03.18 18:42:25,29.76,-3.48,-27.48,-0.21788,0.54111,11.85884,0.02634,0.0408,0.07176,264.75711,-2.32956,-0.71469,1012.15918
2018.03.18 18:42:25,29.34,-4.02,-28.5,-0.16042,-0.5842,11.41111,0.00863,0.00537,0.11513,264.13208,-2.90494,-0.43041,1012.15796
2018.03.18 18:42:25,29.94,-2.94,-28.92,-0.61533,-0.94095,9.43823,0.1644,-0.04533,0.18049,263.71838,-0.38712,-0.81226,0.1644
2018.03.18 18:42:25,28.38,-4.74,-28.74,-0.92419,-0.8356,8.73431,-0.06773,0.09211,0.08398,262.61783,1.95764,-2.20918,-0.06773
2018.03.18 18:42:25,28.68,-5.52,-28.38,-0.5435,-0.28971,9.41189,-0.10622,0.02614,0.18049,261.15225,3.31219,-3.26136,1012.16016
2018.03.18 18:42:26,29.46,-4.98,-29.52,-0.34238,0.25619,9.48372,-0.09827,0.03103,0.2483,259.08289,3.37973,-3.56664,-0.09827
2018.03.18 18:42:26,29.22,-5.16,-28.74,-0.03591,0.95532,9.81653,-0.05735,0.05668,0.14995,257.49326,3.08721,-3.83996,-0.05735
2018.03.18 18:42:26,28.08,-5.7,-29.16,0.08141,0.57223,10.91789,0.03734,-0.09603,-0.18786,257.69699,-0.62231,-1.63493,0.03734
2018.03.18 18:42:26,27.78,-3.72,-29.88,-0.09338,-1.01757,11.84687,-0.23572,-0.0154,-0.38456,259.70453,-1.28271,-0.01283,-0.23572
2018.03.18 18:42:26,28.02,-2.34,-29.52,-0.27534,-0.61533,9.80934,0.00802,-0.0099,-0.22634,261.63034,-0.49904,-0.10258,0.00802
2018.03.18 18:42:26,27.6,-2.4,-29.64,-0.18436,-0.85476,10.00089,0.02879,0.0463,-0.23306,263.02454,-0.33588,-0.25383,0.02879
2018.03.18 18:42:26,28.08,-1.86,-29.88,-0.50759,0.04789,9.00726,0.041,0.09883,-0.03453,264.14142,-0.22507,-1.06856,1012.14966
2018.03.18 18:42:26,28.08,-1.44,-29.28,0.249,0.55308,9.27063,-0.03719,0.05974,0.09741,263.92303,-0.38625,-1.7437,-0.03719
2018.03.18 18:42:26,28.56,-1.56,-30.66,0.16042,1.07503,9.76385,-0.04941,0.08539,0.01678,264.04343,-1.14845,-1.30866,1012.15259
2018.03.18 18:42:27,28.68,-1.56,-29.82,0.03591,0.5866,10.80297,0.14913,0.00354,0.10108,264.27173,-2.99737,-0.97957,1012.1543
2018.03.18 18:42:27,27.96,-2.1,-30.6,-0.28013,-0.60336,12.09827,-0.21739,0.06279,0.05526,264.2659,-2.93275,-0.49188,-0.21739
2018.03.18 18:42:27,27.78,-1.86,-29.76,-0.50759,-0.50519,8.87079,0.16195,-0.00746,0.23242,264.2793,-2.07713,-0.85841,0.16195
2018.03.18 18:42:27,27.96,-1.38,-30.18,-0.97686,-0.55547,9.44302,-0.04024,0.01392,0.0125,264.43256,-0.075,-1.86091,-0.04024
2018.03.18 18:42:27,27.6,-0.66,-31.56,-0.56505,0.10774,9.2826,0.03428,0.05668,0.00212,264.59186,0.8055,-2.82595,0.03428
2018.03.18 18:42:27,27.84,-0.36,-30.06,-0.89306,0.13887,9.51485,-0.10805,0.00964,-0.05408,264.97614,0.75595,-3.25512,-0.10805
2018.03.18 18:42:27,27.96,-0.84,-30.78,-0.67758,0.60336,10.22595,-0.02131,0.01759,0.08275,264.7157,0.15283,-3.48205,-0.02131
2018.03.18 18:42:27,26.88,-0.3,-31.02,-0.43336,0.58181,10.8748,0.17417,-0.12597,0.07359,264.62558,-1.62157,-3.13948,0.17417
2018.03.18 18:42:27,25.98,-1.68,-31.5,0.28252,-0.1652,10.43186,0.311,-0.30129,0.0235,265.19205,-2.88222,-1.67849,0.311
2018.03.18 18:42:27,26.58,-0.96,-32.4,0.52435,-0.14845,8.9474,0.13263,-0.02762,-0.04186,266.27872,-2.07697,-1.57081,0.13263
2018.03.18 18:42:28,25.5,0.18,-32.04,0.08141,-0.35435,9.61301,-0.00664,-0.05144,-0.22573,267.46741,-1.91214,-1.04329,-0.00664
2018.03.18 18:42:28,25.2,0.78,-32.76,-0.77814,0.14366,9.38795,0.0013,0.09944,-0.01743,269.0639,-0.40824,-1.12869,0.0013
2018.03.18 18:42:28,25.02,0.9,-31.86,0.30647,0.67519,9.41908,-0.03902,0.10311,-0.00521,268.97794,-0.87843,-1.75472,1012.15503
2018.03.18 18:42:28,25.08,0.78,-32.64,0.13408,1.24742,9.71836,-0.05429,0.1422,-0.05652,269.76071,-2.38426,-0.99482,1012.15503
2018.03.18 18:42:28,25.68,1.44,-32.82,0.17478,1.01038,11.12141,0.06666,-0.0435,-0.04858,270.58487,-3.81304,-0.38844,0.06666
2018.03.18 18:42:28,26.28,1.98,-32.4,-0.15802,0.03113,11.94025,-0.16242,-0.05877,-0.01926,271.76477,-3.90121,-0.15716,1012.15137
2018.03.18 18:42:28,24.96,2.16,-32.4,-0.56744,-0.26337,8.71995,0.43623,-0.38375,0.22325,272.31311,-3.07842,0.10655,0.43623
2018.03.18 18:42:28,24.6,0.6,-33.78,-0.11014,-0.59139,9.77822,-0.04879,-0.00746,0.14384,272.0116,-3.07297,0.4336,1012.16089
2018.03.18 18:42:28,24.54,0.66,-34.56,-0.49322,0.26337,8.71277,0.04833,0.05363,0.01189,272.26047,-1.96861,-0.55404,1012.15308
2018.03.18 18:42:29,24.84,1.86,-34.44,-0.19633,0.67997,9.51245,-0.1166,0.03286,0.08642,272.17169,-1.47356,-1.46936,-0.1166
2018.03.18 18:42:29,25.92,1.62,-33.96,-0.13169,0.98165,10.34087,-0.12088,0.09944,-0.00521,272.23605,-1.96203,-1.75512,-0.12088
2018.03.18 18:42:29,25.56,1.26,-34.74,-0.4166,0.9625,10.48932,0.14607,-0.02212,0.018,272.73047,-3.62187,-1.66753,0.14607
2018.03.18 18:42:29,24.12,2.28,-34.02,-0.13647,-0.28731,11.45421,-0.07384,-0.10153,-0.07485,273.71063,-3.47798,-1.18537,-0.07384
2018.03.18 18:42:29,24.78,2.82,-35.52,0.00958,-0.46449,10.26904,0.02695,-0.07465,0.08459,274.31,-1.6587,-1.14148,0.02695
2018.03.18 18:42:29,24,2.52,-34.92,-0.21788,-0.25858,9.52203,-0.0433,0.11227,-0.26177,275.12137,-1.7546,-1.12176,-0.0433
2018.03.18 18:42:29,24.42,3,-35.64,-0.43576,0.36393,8.55953,0.07704,0.07134,-0.02659,276.26379,-1.63134,-1.67749,1012.15552
2018.03.18 18:42:29,24.42,3.72,-35.4,-0.12929,0.30168,9.48851,-0.0659,-0.00257,0.03022,276.42688,-1.37234,-2.00677,1012.15674
2018.03.18 18:42:29,25.08,3.42,-35.16,-0.16281,0.90504,9.59625,-0.04757,0.02308,0.01373,276.6618,-1.12286,-2.15136,1012.15186
2018.03.18 18:42:30,24.72,2.88,-34.32,-0.18675,1.05827,10.50129,-0.01703,0.08784,0.03755,276.74319,-2.44987,-2.13501,1012.14819
2018.03.18 18:42:30,24.9,3.66,-34.86,-0.12211,0.30407,11.66251,-0.07201,-0.05511,0.08398,276.76828,-3.01904,-1.46834,1012.14771
2018.03.18 18:42:30,25.56,4.02,-35.64,-0.81645,-0.249,9.58189,0.32383,-0.03739,0.15056,276.94312,-2.42708,-1.38527,0.32383
2018.03.18 18:42:30,24.24,2.4,-35.4,-0.57463,-0.42618,9.27542,0.15768,-0.07832,0.12735,276.53329,-2.84999,-1.47224,1012.15576
2018.03.18 18:42:30,24.3,2.4,-35.52,-0.62012,-0.34717,10.62819,-0.08239,-0.0099,-0.07913,276.92139,-1.67779,-1.67619,1012.15015
2018.03.18 18:42:30,24.18,2.58,-35.22,-0.79969,0.61293,8.83009,-0.10011,0.08539,-0.06385,277.37109,-1.28588,-2.94889,-0.10011
2018.03.18 18:42:30,25.08,2.88,-35.64,-0.70392,0.97686,9.95779,-0.04696,0.07073,-0.01315,277.40491,-1.38545,-3.57847,-0.04696
2018.03.18 18:42:30,24.66,3.36,-34.68,-0.60815,0.9601,10.29538,0.11919,0.03897,0.00334,277.92621,-2.98988,-3.78676,1012.15796
2018.03.18 18:42:30,25.56,3.3,-35.52,0.02394,-0.19872,11.29379,0.1082,-0.1785,0.03633,278.44797,-3.9092,-3.11572,0.1082
2018.03.18 18:42:30,23.88,3.48,-35.64,0.07422,0.00958,9.88836,-0.07812,-0.11925,0.04793,279.03433,-2.061,-2.44678,-0.07812
2018.03.18 18:42:31,23.52,3.3,-35.7,-0.26337,-0.35435,10.17567,-0.00542,-0.03922,-0.21107,279.41333,-2.04298,-1.70871,-0.00542
2018.03.18 18:42:31,23.34,3.42,-37.44,-0.21788,0.48843,8.26025,-0.0995,0.1813,-0.17381,280.22742,-1.61462,-1.41732,-0.0995
2018.03.18 18:42:31,24.96,4.32,-36.72,-0.28971,0.61293,9.25387,-0.10194,0.05363,-0.09073,280.92615,-1.0348,-1.91446,-0.10194
2018.03.18 18:42:31,23.88,4.62,-35.4,-0.16999,1.19714,9.54837,-0.00787,0.02064,0.04305,281.10278,-1.79615,-2.18821,1012.15356
2018.03.18 18:42:31,25.5,5.16,-36.6,0.02394,1.12052,10.55396,0.07888,0.04446,0.05343,281.35754,-3.25106,-1.9774,1012.15698
2018.03.18 18:42:31,25.5,3.36,-34.98,-0.43097,0.05267,11.89955,-0.19785,0.12204,0.04488,281.65491,-3.50157,-1.84075,-0.19785
2018.03.18 18:42:31,24.72,4.44,-36.12,-1.08461,-0.86912,10.36482,0.15035,-0.06916,0.07115,281.93933,-1.67157,-1.90287,0.15035
2018.03.18 18:42:31,25.86,3.6,-36.42,-1.10137,-0.55787,8.95459,0.12164,0.08722,0.13407,281.17023,-0.38037,-3.19822,1012.15674
2018.03.18 18:42:31,24.84,3.3,-35.82,-0.61772,0.06465,9.67287,-0.06407,0.04019,0.14689,279.90973,0.59007,-4.18712,-0.06407
2018.03.18 18:42:32,26.04,2.76,-37.02,-0.35196,0.59617,8.90431,-0.00726,0.03225,0.12185,278.94128,0.06731,-4.22211,-0.00726
2018.03.18 18:42:32,24.6,2.76,-36,-0.37351,0.77814,10.19003,-0.02497,0.01698,0.03144,278.42361,-0.59039,-3.93385,-0.02497
2018.03.18 18:42:32,26.16,3.12,-35.88,-0.44534,0.84757,10.66649,0.11186,-0.09848,-0.04003,278.64804,-2.12989,-3.50018,0.11186
2018.03.18 18:42:32,25.5,1.98,-37.44,-0.29928,0.21788,10.85325,0.15951,-0.13513,-0.07118,279.29358,-3.12198,-2.56525,0.15951
2018.03.18 18:42:32,24.72,3.06,-36.42,-0.74462,-0.42858,9.49569,-0.1557,-0.04106,-0.11456,280.03522,-1.64539,-2.37258,-0.1557
2018.03.18 18:42:32,25.08,2.22,-37.86,0.26337,-0.31126,9.37119,0.10148,-0.03678,-0.10784,279.65549,-2.07965,-2.0936,0.10148
2018.03.18 18:42:32,24.3,2.64,-37.74,-0.58899,-0.03591,9.115,0.11675,0.06096,-0.11517,281.06732,-1.49279,-2.81536,1012.14673
2018.03.18 18:42:32,25.92,2.16,-38.16,0.03352,0.419,9.19402,-0.04941,0.04874,-0.00582,280.96606,-1.53711,-3.1745,-0.04941
2018.03.18 18:42:32,26.1,3.42,-37.56,-0.45731,0.99123,9.84286,-0.17219,0.02553,-0.11211,281.14709,-1.30782,-3.05828,1012.14771
2018.03.18 18:42:33,25.2,3.06,-37.32,-0.22267,1.02236,10.67368,0.04772,-0.00074,-0.00765,281.22629,-3.39776,-2.69109,1012.14404
2018.03.18 18:42:33,24.24,2.94,-36.12,-0.42139,0.54111,11.29379,-0.01947,0.02736,0.09314,281.11099,-4.40785,-2.19286,-0.01947
2018.03.18 18:42:33,25.68,3.18,-37.38,-0.99362,-0.58181,10.39355,0.041,0.07928,0.1078,281.13464,-2.63459,-2.86247,0.041
2018.03.18 18:42:33,25.98,3,-37.38,-0.60815,-0.42139,9.06472,0.03795,-0.06793,-0.01621,280.48947,-3.05144,-3.04675,0.03795
2018.03.18 18:42:33,26.64,2.22,-38.16,-0.90025,-0.25619,9.72794,-0.0995,-0.07343,-0.05225,280.47388,-1.07988,-3.42161,-0.0995
2018.03.18 18:42:33,26.16,2.04,-37.8,-0.59857,0.45012,9.02642,-0.0097,-0.11864,0.16583,279.42621,-0.81094,-3.64244,-0.0097
2018.03.18 18:42:33,26.22,2.28,-38.7,-0.59378,0.85954,10.22355,-0.08422,-0.03922,0.01678,278.60559,-1.0283,-3.31685,-0.08422
2018.03.18 18:42:33,26.76,2.34,-38.16,-0.78532,0.99123,10.30735,0.15157,0.03836,-0.02659,278.8616,-2.63351,-3.55546,0.15157
2018.03.18 18:42:33,25.02,1.74,-37.2,0.09098,0.32083,11.63618,0.09415,-0.10886,-0.03881,279.27335,-3.88044,-3.0379,0.09415
2018.03.18 18:42:33,26.4,2.52,-37.5,-0.34238,-0.33041,10.78621,-0.04879,-0.08504,-0.17381,280.1879,-2.94451,-1.97989,-0.04879
2018.03.18 18:42:34,25.26,2.64,-37.32,0.34478,-0.40224,9.1988,0.24442,-0.02884,-0.05469,280.60861,-1.85669,-1.28994,0.24442
2018.03.18 18:42:34,24.84,3.12,-37.2,-0.43097,-0.04789,9.22993,0.07765,0.02308,-0.07607,281.37311,-1.74245,-1.5387,0.07765
2018.03.18 18:42:34,26.34,2.7,-37.5,-0.11971,0.91222,8.89713,-0.00603,0.09822,-0.02109,281.34521,-1.63816,-2.24441,-0.00603
2018.03.18 18:42:34,25.44,3.18,-36.6,-0.34956,1.00799,10.06074,-0.12271,0.13487,-0.11456,281.56818,-2.19004,-2.73594,1012.14697
2018.03.18 18:42:34,26.82,4.14,-36.24,-0.33041,1.52515,10.43904,0.07765,-0.01112,0.03694,281.67188,-3.98445,-2.94609,1012.16309
2018.03.18 18:42:34,27.18,2.28,-36.72,-0.38308,1.14686,10.39834,0.13446,-0.03373,0.0852,281.42682,-6.08637,-2.39592,1012.15942
2018.03.18 18:42:34,26.7,2.88,-36,-0.58899,0.08141,9.9099,0.20533,-0.05389,0.16033,281.30737,-5.12154,-2.05072,0.20533
2018.03.18 18:42:34,26.28,2.1,-35.52,-0.37351,-0.29928,8.94501,-0.01642,-0.12841,-0.08157,280.74384,-6.10445,-1.48513,-0.01642
2018.03.18 18:42:34,26.58,2.7,-35.94,-1.15883,-0.25619,10.44383,-0.23755,0.02369,-0.1732,281.66711,-4.1857,-1.64023,1012.17139
2018.03.18 18:42:35,26.88,2.7,-36.3,-0.37351,0.79969,8.89713,-0.07323,0.01392,0.07115,281.21362,-3.08144,-2.65136,-0.07323
2018.03.18 18:42:35,26.64,3.3,-35.28,-0.60096,1.01517,9.53161,-0.06712,-0.0154,-0.01926,281.00119,-3.04541,-2.93392,-0.06712
2018.03.18 18:42:35,26.4,4.14,-34.68,-0.7518,1.19235,10.4151,-0.06346,0.05302,-0.0217,281.36496,-3.85797,-3.54426,-0.06346
2018.03.18 18:42:35,27.42,2.94,-35.4,-0.2083,1.10137,10.94902,0.04039,-0.27563,0.19515,281.05133,-4.88493,-3.09091,0.04039
2018.03.18 18:42:35,26.76,3.96,-36.06,-0.30407,-0.13887,10.60664,-0.19907,-0.03617,-0.03392,280.95261,-4.38136,-1.94049,-0.19907
2018.03.18 18:42:35,26.7,3.9,-35.04,0.23224,-0.56984,10.64255,-0.18868,-0.00563,-0.04247,281.54956,-2.73302,-1.93822,-0.18868
2018.03.18 18:42:35,27.24,4.86,-34.74,-0.16042,-0.07183,9.70639,-0.01153,0.12082,-0.27216,282.62717,-0.85717,-1.31994,1012.15991
2018.03.18 18:42:35,26.64,5.16,-33.84,-0.65843,0.44055,9.22993,0.02207,0.08417,-0.17198,283.91779,-0.86079,-2.12548,1012.15771
2018.03.18 18:42:35,26.16,5.34,-33.3,-0.57223,0.84278,9.31852,-0.0042,0.05363,-0.07424,284.48022,-1.00672,-2.49997,-0.0042
2018.03.18 18:42:36,27.06,5.52,-32.94,-0.28971,1.18277,9.75428,-0.01947,0.02858,-0.00582,284.62192,-2.18026,-2.89322,1012.15747
2018.03.18 18:42:36,26.64,5.4,-32.46,-0.54111,1.04869,10.98493,0.06666,-0.04594,0.07298,284.4328,-3.92719,-2.53295,1012.15259
2018.03.18 18:42:36,26.1,4.92,-32.28,-0.7518,0.15084,11.61223,-0.02253,0.01575,0.15667,283.93549,-3.90039,-2.56026,1012.15112
2018.03.18 18:42:36,25.32,4.5,-31.08,-0.16999,0.03113,8.43742,0.12469,0.00903,0.20615,282.56561,-3.30885,-2.58649,0.12469
2018.03.18 18:42:36,26.04,3.78,-31.68,-0.85954,-0.43336,9.85723,-0.13737,-0.04594,-0.02109,282.5556,-2.42995,-2.54503,1012.15503
2018.03.18 18:42:36,26.52,4.8,-31.86,-0.45012,0.35435,8.80854,0.11919,0.04996,0.07298,282.43961,-1.28433,-3.14335,0.11919
2018.03.18 18:42:36,26.4,3.42,-31.68,-0.55068,0.84278,9.48851,-0.06956,-0.00502,-0.07485,282.24921,-1.5587,-3.01235,-0.06956
2018.03.18 18:42:36,26.4,4.5,-30.9,-0.91461,1.12531,9.7878,-0.01153,0.05241,-0.10234,282.86798,-2.3504,-3.54111,-0.01153
2018.03.18 18:42:36,26.04,3.9,-30.72,-0.77096,0.91461,10.90113,0.06727,-0.07282,-0.0608,283.44006,-3.76186,-3.69658,0.06727
2018.03.18 18:42:36,25.32,3.9,-31.08,-0.39745,0.14366,11.63618,-0.03536,-0.06732,-0.0663,283.82236,-4.12478,-3.31667,-0.03536
2018.03.18 18:42:37,25.38,4.8,-31.38,-0.22746,-0.77096,10.04877,-0.02925,-0.06122,-0.18664,285.02188,-2.07896,-2.85858,-0.02925
2018.03.18 18:42:37,24.54,6.18,-31.02,-0.40703,-0.32562,9.42865,-0.04391,0.01453,-0.25689,286.02127,0.21409,-2.13228,1012.15601
2018.03.18 18:42:37,24.24,5.88,-31.08,-0.35196,0.56744,9.04796,-0.01886,-0.04655,-0.09684,286.42908,0.32498,-1.74625,-0.01886
2018.03.18 18:42:37,24.06,5.52,-31.02,-0.56505,0.57702,9.58189,-0.00909,0.04141,-0.0663,286.83789,-0.13674,-1.67908,1012.14941
2018.03.18 18:42:37,25.14,6.42,-31.08,-0.31126,1.36474,9.76385,-0.04513,0.03408,-0.00093,286.8179,-1.59151,-2.24062,1012.15356
2018.03.18 18:42:37,24.9,5.76,-31.74,-0.27534,1.15165,10.73353,0.10698,0.02308,0.08153,286.53442,-4.62747,-2.35841,0.10698
2018.03.18 18:42:37,25.32,5.64,-30.6,-0.21788,0.28971,11.78701,-0.02008,0.10861,0.18843,286.05048,-5.65713,-2.63567,-0.02008
2018.03.18 18:42:37,24.24,6.36,-30.96,-1.03672,-0.68716,10.34566,-0.06895,0.02125,0.07054,285.9006,-5.15554,-2.74853,1012.1438
2018.03.18 18:42:37,25.38,4.44,-31.5,-0.87391,-0.48125,9.2012,0.08498,0.00354,0.16217,284.91132,-4.52275,-2.89754,0.08498
2018.03.18 18:42:38,25.14,5.16,-31.08,-0.70392,0.13408,9.12219,-0.02864,0.01881,0.17866,284.49094,-3.3189,-3.47627,-0.02864
2018.03.18 18:42:38,25.38,4.02,-31.86,-0.51477,0.48604,9.65372,-0.07995,0.00109,0.11085,283.59021,-1.94821,-3.74739,-0.07995
2018.03.18 18:42:38,25.92,4.74,-32.16,-0.7111,1.01038,9.78301,-0.07934,0.09272,-0.0217,283.38202,-1.97979,-3.86522,-0.07934
2018.03.18 18:42:38,25.32,5.22,-31.14,-0.59139,1.30967,10.40312,-0.01214,0.09272,-0.0101,283.63535,-3.13808,-4.20396,-0.01214
2018.03.18 18:42:38,25.56,5.46,-31.02,-0.668,1.09179,10.91789,0.14302,-0.01662,-0.04858,284.36023,-4.97383,-4.22242,0.14302
2018.03.18 18:42:38,26.4,5.52,-32.16,-0.67997,-0.28971,11.36802,-0.2009,-0.173,-0.14082,285.52274,-4.50231,-3.08818,-0.2009
2018.03.18 18:42:38,25.86,5.82,-32.52,-0.13887,0.00958,9.28021,-0.06407,0.02369,-0.16831,286.1463,-3.44503,-2.85551,-0.06407
2018.03.18 18:42:38,25.86,6.9,-32.82,-0.64406,-0.02155,9.88117,-0.11171,-0.0435,-0.1225,287.81561,-1.94766,-2.96689,1012.14722
2018.03.18 18:42:38,25.8,7.08,-32.94,-0.5028,0.42618,9.25866,-0.03963,0.02431,-0.00704,288.08295,-1.52041,-3.11376,-0.03963
2018.03.18 18:42:39,25.08,8.16,-32.16,-0.11493,0.74701,9.26105,-0.00115,0.01514,-0.05347,288.40649,-1.51635,-2.77023,1012.1416
2018.03.18 18:42:39,25.14,8.04,-31.56,-0.38308,1.27375,9.84047,0.10331,0.06157,-0.01865,289.10059,-2.88883,-2.6217,1012.13818
2018.03.18 18:42:39,26.22,8.28,-31.74,-0.71349,0.76377,11.33929,0.13324,0.02431,0.13223,289.45483,-4.32772,-2.73354,0.13324
2018.03.18 18:42:39,26.16,7.14,-32.82,-0.73265,-0.19633,11.54519,-0.02375,0.06279,0.1133,289.10898,-4.20462,-2.97168,1012.14404
2018.03.18 18:42:39,26.04,7.02,-32.76,-0.60336,-0.43576,9.03839,0.22304,-0.00196,0.18049,288.76276,-2.76476,-3.3814,1012.14526
2018.03.18 18:42:39,26.16,6.42,-31.98,-0.86912,-0.11014,9.42147,-0.09217,-0.04411,0.09925,288.05945,-0.26957,-3.94222,-0.09217
2018.03.18 18:42:39,26.46,6.54,-31.98,-0.5866,0.59378,9.09824,-0.05857,-0.06366,0.16644,286.74805,0.06355,-3.87959,-0.05857
2018.03.18 18:42:39,26.04,6.18,-32.28,-0.77335,0.85954,9.81174,-0.10561,-0.00135,0.0907,285.96634,-0.83823,-3.68613,1012.14893
2018.03.18 18:42:39,26.82,6.48,-32.22,-1.14207,1.39347,10.14454,-0.06895,0.11777,-0.0663,286.32764,-2.62951,-4.37954,-0.06895
2018.03.18 18:42:39,27.36,6.54,-31.92,-0.74701,1.2139,11.11183,0.07949,0.00598,0.07603,286.48856,-4.63336,-5.00371,0.07949
2018.03.18 18:42:40,27.3,6.78,-33,0,0.01676,11.74392,-0.0152,-0.03434,-0.09256,286.76636,-5.62306,-4.274,-0.0152
2018.03.18 18:42:40,27,6.42,-31.74,-0.23464,-0.39984,10.0368,0.02207,-0.038,-0.11028,287.80069,-3.8436,-3.20584,0.02207
2018.03.18 18:42:40,27.9,6.66,-31.8,-0.45731,-0.11014,9.61301,-0.07323,-0.03128,-0.19275,288.58081,-1.34279,-2.36856,-0.07323
2018.03.18 18:42:40,28.44,7.02,-33.3,-0.56744,0.35435,9.09585,0.02634,-0.0325,-0.1341,288.95432,-0.93196,-2.18542,0.02634
2018.03.18 18:42:40,28.68,7.14,-32.88,-0.26576,0.52195,9.69921,-0.01275,0.00231,-0.09501,289.21323,-1.2425,-2.20218,-0.01275
2018.03.18 18:42:40,28.44,7.86,-31.14,-0.29689,0.94813,9.7447,0.02329,0.05179,-0.05103,288.4715,-1.77873,-2.29446,1012.15796
2018.03.18 18:42:40,29.88,7.32,-32.7,-0.5842,1.3384,9.97215,0.01168,0.05179,-0.05225,289.03259,-3.32149,-2.7818,1012.15869
2018.03.18 18:42:40,29.58,8.22,-32.1,-0.28013,0.71828,10.97057,-0.0323,0.08356,0.12674,288.66653,-4.25326,-3.22533,1012.15967
2018.03.18 18:42:40,29.58,7.74,-31.38,-0.86912,-0.40703,10.98493,-0.01764,-0.04289,0.09864,288.28479,-2.94733,-2.91759,1012.15967
2018.03.18 18:42:41,30.6,7.74,-32.16,-0.63209,-0.18675,8.75826,0.11125,-0.00196,0.12002,287.37512,-3.03246,-2.8021,0.11125
2018.03.18 18:42:41,30.48,6.9,-32.64,-0.72307,-0.10774,9.89793,-0.03413,0.03103,0.02472,287.07672,-1.66724,-3.18281,-0.03413
2018.03.18 18:42:41,31.14,6.96,-32.28,-0.84997,0.57223,9.42865,-0.03963,0.02186,-0.02598,286.85062,-1.04952,-3.72109,1012.15552
2018.03.18 18:42:41,31.38,6.66,-32.58,-0.78532,0.82602,9.59625,-0.08422,-0.02212,0.02472,285.26807,-1.25241,-4.31038,-0.08422
2018.03.18 18:42:41,31.68,6.54,-32.94,-0.62012,1.24742,9.89075,-0.04146,0.02919,-0.01498,285.10657,-2.5173,-4.51329,-0.04146
2018.03.18 18:42:41,31.74,6.24,-32.46,-0.87391,1.31206,10.73593,0.02512,-0.09726,-0.07485,285.53928,-4.29529,-4.45735,0.02512
2018.03.18 18:42:41,31.68,7.8,-32.04,-0.42618,0.37111,11.72955,0.01657,-0.15651,-0.0156,286.05328,-4.86007,-3.61378,0.01657
2018.03.18 18:42:41,30.18,7.56,-31.8,-0.00958,-0.21788,10.48692,-0.09033,-0.1052,0.02289,286.2822,-3.66854,-3.01313,-0.09033
2018.03.18 18:42:41,31.14,6.36,-34.26,-0.17478,-0.59617,9.9961,0.05933,0.02308,-0.25261,287.09604,-1.82098,-1.94341,0.05933
2018.03.18 18:42:41,32.22,6.78,-34.14,-0.51956,0.10056,9.25866,0.03917,0.0072,-0.13349,287.89001,-1.00049,-1.94956,0.03917
2018.03.18 18:42:42,32.28,7.26,-34.32,-0.21548,0.62491,9.19402,-0.00787,-0.04778,-0.01071,287.74072,-1.33494,-1.94754,-0.00787
2018.03.18 18:42:42,31.92,6.96,-35.1,-0.24661,1.07982,9.14374,0.00435,0.03347,-0.00888,287.5033,-2.00051,-1.86423,1012.15381
2018.03.18 18:42:42,31.8,7.44,-34.8,-0.40224,1.34558,10.21877,-0.00542,0.07745,-0.03026,287.47964,-3.90628,-1.8288,1012.14819
2018.03.18 18:42:42,32.76,7.68,-35.1,-0.44294,1.05109,11.18366,0.00863,0.07806,0.03877,287.71222,-5.06504,-2.04087,0.00863
2018.03.18 18:42:42,33.42,6.72,-34.62,-0.75659,-0.3783,12.04081,-0.08484,-0.01479,0.09131,287.37985,-4.00008,-2.39182,-0.08484
2018.03.18 18:42:42,32.64,6.66,-35.04,-0.60815,-0.33759,8.54756,0.21693,0.02919,0.13712,286.35107,-3.18459,-2.693,0.21693
2018.03.18 18:42:42,33.06,6.18,-35.16,-0.70631,-0.17239,9.39274,0.02207,-0.00257,0.04366,285.78271,-1.94248,-3.14781,0.02207
2018.03.18 18:42:42,33.78,5.88,-36.42,-0.95292,0.34478,9.71357,-0.05918,-0.00318,-0.01071,285.45825,-0.90705,-3.3446,-0.05918
2018.03.18 18:42:42,34.86,6,-36.12,-0.70871,0.98405,9.09346,0.00496,0.00659,0.01739,284.63446,-1.40775,-3.45804,0.00496
2018.03.18 18:42:43,34.5,6.48,-36,-0.53392,1.40065,9.56992,0.04528,-0.00746,0.04305,284.4549,-2.81692,-3.74989,0.04528
2018.03.18 18:42:43,34.2,6.24,-35.82,-0.54589,1.28094,10.96099,0.06788,-0.00563,0.02289,284.42484,-4.44144,-3.66508,0.06788
2018.03.18 18:42:43,33.72,6.66,-36.78,-0.35914,0.15802,11.54759,-0.06773,-0.17545,-0.09623,284.97174,-4.86982,-2.7549,-0.06773
2018.03.18 18:42:43,33.12,6.84,-37.02,-0.23943,-0.70871,11.18126,-0.12088,0.02736,-0.24223,286.21579,-3.44374,-2.17759,-0.12088
2018.03.18 18:42:43,33.96,7.62,-38.46,-0.36632,-0.31604,8.94501,0.05994,0.12204,-0.20435,287.58215,-3.17954,-2.64391,1012.15186
2018.03.18 18:42:43,34.08,8.88,-37.26,-0.33041,0.48125,8.79896,-0.07445,0.03958,-0.09073,288.18024,-2.59055,-2.93147,1012.15405
2018.03.18 18:42:43,34.2,9.9,-36.9,-0.42618,0.82124,9.3257,-0.12943,0.02308,-0.05347,288.44943,-1.95903,-3.05696,1012.15601
2018.03.18 18:42:43,34.74,10.08,-36.9,-0.51237,1.06066,10.00328,-0.11416,0.02431,0.03938,288.33234,-2.11731,-3.13138,1012.15698
2018.03.18 18:42:43,35.76,9.18,-36.78,-0.31844,1.14446,11.17647,0.10392,-0.06183,0.09253,287.98492,-3.83972,-2.78078,1012.1521
2018.03.18 18:42:44,36.48,7.62,-38.1,-0.29689,0.64406,11.22915,-0.06651,0.04752,0.03816,287.5282,-5.14825,-2.53355,-0.06651
2018.03.18 18:42:44,34.38,8.4,-37.98,-1.09179,-0.46449,10.94423,-0.13859,0.07562,-0.00521,287.54425,-3.85613,-3.01886,1012.14502
2018.03.18 18:42:44,36,6.9,-38.52,-1.35037,-0.66321,8.84685,0.17784,-0.03495,0.15056,286.5943,-1.98094,-4.04803,1012.14697
2018.03.18 18:42:44,35.58,7.44,-39.12,-0.72547,-0.08859,9.88836,-0.17402,0.03652,0.11574,285.20322,-0.48738,-4.08941,-0.17402
2018.03.18 18:42:44,36.12,6.54,-38.7,-0.52674,0.59857,9.13416,-0.12637,-0.01296,0.15056,283.96094,-0.0932,-4.17735,-0.12637
2018.03.18 18:42:44,35.76,5.94,-39,-0.48843,0.88109,9.9937,-0.0549,-0.08198,0.07726,283.10333,-0.49546,-3.78991,-0.0549
2018.03.18 18:42:44,36.42,6.18,-38.58,-0.39027,1.25221,9.8261,0.13691,-0.04045,0.02778,282.69907,-2.68032,-3.56379,0.13691
2018.03.18 18:42:44,34.62,5.22,-38.4,-0.24422,0.61772,11.14056,0.12591,-0.15162,-0.02537,282.88998,-4.11313,-2.93698,0.12591
2018.03.18 18:42:44,34.2,7.14,-38.58,-0.31365,-0.62251,11.46618,-0.16791,0.00293,-0.25261,284.15619,-2.92029,-2.42032,1012.16504
2018.03.18 18:42:45,34.44,6.18,-39.66,0.59617,-0.09577,7.79097,0.33666,-0.02273,0.08336,284.2402,-3.13834,-2.02161,1012.16431
2018.03.18 18:42:45,34.68,6.18,-41.04,-0.55068,-0.41421,9.83808,-0.13493,0.03713,-0.23551,285.16159,-2.29159,-1.57051,1012.16724
2018.03.18 18:42:45,34.14,7.14,-40.38,-0.249,0.77575,8.67685,0.00679,0.05668,0.01556,285.19611,-1.94217,-2.00322,1012.15942
2018.03.18 18:42:45,34.2,6.3,-40.98,0.00479,0.7925,9.96737,-0.09156,-0.02212,-0.05041,285.11649,-1.99789,-1.80952,1012.15308
2018.03.18 18:42:45,36,6.24,-40.44,-0.27534,1.57543,10.13257,0.11247,0.09578,-0.00949,285.21677,-3.93727,-1.83604,1012.14941
2018.03.18 18:42:45,34.74,5.88,-41.04,-0.21548,0.97208,10.96817,0.16928,-0.03312,-0.01804,285.14172,-6.2375,-1.30294,0.16928
2018.03.18 18:42:45,33.84,6.6,-40.62,-0.78293,-0.57702,12.297,-0.19968,0.10005,-0.13838,285.86386,-5.01168,-1.68156,-0.19968
2018.03.18 18:42:45,34.92,5.58,-40.2,-0.80448,-0.59139,9.09824,0.23343,-0.15162,0.12857,285.64117,-4.63466,-2.04339,1012.15356
2018.03.18 18:42:45,35.04,4.74,-41.28,-1.03433,-0.1245,8.80135,0.11308,0.01575,0.06931,284.99359,-4.11739,-2.80177,0.11308
2018.03.18 18:42:45,34.92,4.5,-41.52,-0.89306,0.09338,9.953,-0.04818,0.01698,0.10841,283.98248,-2.16706,-3.75546,-0.04818
2018.03.18 18:42:46,34.8,3.54,-41.64,-0.90982,0.74941,9.34246,-0.01703,-0.04655,0.10719,282.23593,-1.9741,-4.01638,-0.01703
2018.03.18 18:42:46,34.86,3.24,-41.52,-0.73983,1.17319,9.9937,-0.03413,-0.03495,0.03205,280.08264,-2.46833,-3.98608,-0.03413
2018.03.18 18:42:46,34.2,3.12,-41.52,-0.47167,1.13967,10.34327,0.10392,-0.07282,0.05099,279.88748,-4.03572,-3.57798,0.10392
2018.03.18 18:42:46,34.38,3,-42.54,-0.09577,-0.0407,11.52364,-0.09522,-0.21638,-0.09989,280.27051,-4.43681,-2.12957,-0.09522
2018.03.18 18:42:46,32.88,4.68,-42.54,-0.01915,-0.21788,9.2826,0.05261,0.0463,0.04183,280.9086,-3.16199,-1.89298,1012.15601
2018.03.18 18:42:46,32.46,4.26,-43.62,-0.11971,-0.38069,10.03441,-0.10438,0.04752,-0.15365,281.05566,-1.29854,-0.88045,1012.15479
2018.03.18 18:42:46,33.18,4.86,-42.24,-0.21548,0.59617,8.43264,0.0856,0.09639,0.06809,281.18594,-0.33404,-1.3306,0.0856
2018.03.18 18:42:46,33,4.62,-41.76,-0.02155,0.62251,9.59865,-0.02375,-0.02517,0.00212,280.85516,-0.91091,-1.22017,1012.15063
2018.03.18 18:42:46,32.94,5.22,-41.52,0.19394,1.59698,9.50048,0.00435,0.02736,0.05099,280.73279,-2.10332,-1.18001,1012.14844
2018.03.18 18:42:47,32.58,4.44,-40.92,0.13647,1.40544,10.73593,0.17906,-0.14429,0.1304,280.35873,-5.02376,-0.55681,0.17906
2018.03.18 18:42:47,34.26,4.38,-41.94,-0.36154,-0.14366,11.97616,-0.13126,0.13426,-0.11089,280.68848,-5.54574,-0.64043,-0.13126
2018.03.18 18:42:47,33.84,3.96,-41.4,-0.58899,-0.53153,9.09106,0.24076,0.00415,0.08459,281.03473,-2.83956,-1.17839,0.24076
2018.03.18 18:42:47,34.02,3.3,-41.46,-0.93137,-0.81405,9.68724,-0.17708,-0.03984,0.01373,280.60715,0.17087,-1.8449,-0.17708
2018.03.18 18:42:47,33.78,3.24,-41.46,-0.11014,0.09817,9.7423,-0.14348,-0.04228,0.164,279.20996,2.01857,-2.54798,-0.14348
2018.03.18 18:42:47,34.44,3.96,-40.74,-0.40703,0.70392,9.47415,-0.14959,0.01148,0.03877,278.33771,1.11036,-2.56341,-0.14959
2018.03.18 18:42:47,34.38,4.8,-39.9,-0.59617,0.92898,10.04398,-0.05124,0.04691,-0.05041,278.33667,-0.47584,-2.84283,1012.14453
2018.03.18 18:42:47,34.74,3.9,-40.56,-0.61054,1.02236,10.64973,-0.01398,-0.05633,-0.00521,278.60718,-2.70522,-3.18238,-0.01398
2018.03.18 18:42:47,34.62,4.44,-40.5,-0.21788,0.2514,11.65533,-0.11416,-0.15285,-0.03514,278.80881,-3.38868,-2.48659,-0.11416
2018.03.18 18:42:48,33.48,5.28,-40.56,0.18436,-1.08221,10.85325,-0.06407,-0.08443,-0.08707,279.50183,-1.91733,-1.5824,1012.15918
2018.03.18 18:42:48,33.06,5.4,-38.28,-0.15323,-0.88109,8.98332,0.03367,0.03286,-0.1732,280.21756,0.41809,-0.76362,0.03367
2018.03.18 18:42:48,33.78,5.34,-39.24,-0.67279,-0.44294,10.36721,-0.05124,0.03836,-0.06202,280.65375,2.07207,-0.96413,-0.05124
2018.03.18 18:42:48,33.72,5.4,-38.88,-0.10535,0.22506,9.78061,0.00252,0.06462,-0.07241,280.29214,1.51391,-1.53785,0.00252
2018.03.18 18:42:48,33.84,6.12,-39,-0.28252,0.81166,9.285,-0.00481,0.08784,-0.06202,280.4986,0.20401,-1.78017,-0.00481
2018.03.18 18:42:48,33.66,5.4,-38.16,-0.41421,0.84757,10.57791,0.03062,-0.01907,0.02533,280.45157,-1.68559,-1.90202,0.03062
2018.03.18 18:42:48,34.14,5.34,-37.44,-0.33759,0.8763,10.43425,0.04039,0.01942,0.18355,279.74594,-2.95409,-1.80426,0.04039
2018.03.18 18:42:48,34.32,5.1,-37.32,-0.29689,-0.94095,11.09986,0.01657,-0.10092,0.11818,279.23987,-2.6136,-1.42364,0.01657
2018.03.18 18:42:48,34.56,4.32,-37.92,-0.85476,-0.36632,8.70319,-0.01459,0.03164,0.02106,278.58459,-2.49383,-1.49024,-0.01459
2018.03.18 18:42:48,34.14,5.16,-37.02,-0.50519,-0.33759,9.82131,-0.07628,0.00293,0.00456,278.55536,-0.32231,-2.52184,-0.07628
2018.03.18 18:42:49,33.66,5.04,-36.78,-0.56744,0.14126,9.06712,-0.01825,0.03408,0.04977,278.41376,0.13047,-2.84159,-0.01825
2018.03.18 18:42:49,33.42,5.4,-35.94,-0.46928,0.54829,9.96018,-0.12027,-0.01235,0.04305,278.13293,0.20164,-2.8335,1012.1604
2018.03.18 18:42:49,33.42,5.22,-36.06,-0.28013,1.00081,10.09426,0.04406,-0.02212,0.02533,278.13165,-1.04959,-2.75703,1012.16016
2018.03.18 18:42:49,33.42,5.22,-37.14,-0.15084,0.81884,10.75029,0.05139,-0.13146,-0.12066,278.58694,-3.03447,-1.93085,0.05139
2018.03.18 18:42:49,31.92,5.88,-36.9,-0.28492,-0.45012,11.68406,-0.11904,-0.03373,-0.16037,279.73999,-2.74993,-1.37425,1012.16724
2018.03.18 18:42:49,31.86,6.66,-35.88,0.19872,-0.45012,10.17088,0.21693,-0.02517,0.04977,280.37354,-1.74594,-1.00818,1012.16821
2018.03.18 18:42:49,31.92,6.54,-35.52,-0.39745,-0.44294,10.25707,-0.15814,0.1532,-0.29659,281.89618,-0.15521,-0.71533,-0.15814
2018.03.18 18:42:49,31.08,8.52,-35.34,-0.18915,0.60575,8.70558,0.02695,0.10311,-0.0498,283.02399,0.00151,-1.5601,0.02695
2018.03.18 18:42:49,31.74,8.88,-34.02,-0.48125,0.39266,10.15412,-0.07873,0.04263,-0.10295,283.80029,-0.0052,-1.99739,1012.16187
2018.03.18 18:42:50,30.78,9.42,-33.96,-0.53153,1.11094,9.33049,0.03856,0.07623,0.02778,284.25714,-1.29163,-2.61167,0.03856
2018.03.18 18:42:50,31.86,9.18,-33.6,-0.2945,0.81405,10.88677,0.10453,0.00109,0.15178,284.19556,-2.96863,-2.57436,0.10453
2018.03.18 18:42:50,30.6,8.76,-33.18,-0.60336,-0.28971,11.71758,-0.39027,-0.03739,0.06198,284.02484,-2.97592,-2.34223,-0.39027
2018.03.18 18:42:50,29.4,9.72,-31.86,-0.07183,-0.82124,10.31454,-0.04391,-0.16506,0.17011,283.89819,-1.61685,-1.34931,-0.04391
2018.03.18 18:42:50,29.76,9.12,-33,-0.54829,-0.6273,9.60822,-0.04452,-0.08993,-0.03698,284.22311,-1.19107,-0.821,-0.04452
2018.03.18 18:42:50,28.86,8.4,-33.3,-0.44055,-0.23464,9.7447,0.05872,-0.06183,0.06076,284.54602,0.47437,-1.32163,0.05872
2018.03.18 18:42:50,29.04,9.06,-32.82,-0.5028,0.29689,9.56992,-0.02131,0.01392,0.00273,284.57224,0.39947,-1.68013,-0.02131
2018.03.18 18:42:50,28.2,8.7,-32.82,-0.57702,0.68237,9.41668,0.06483,0.0463,-0.01498,285.42007,-0.3611,-2.1035,0.06483
2018.03.18 18:42:50,29.4,8.94,-33.06,-0.33759,1.00081,9.56273,0.03428,0.07379,-0.0608,286.33835,-1.74469,-2.77861,1012.14355
2018.03.18 18:42:51,29.46,9.6,-33.36,-0.22267,0.54589,10.92986,-0.08545,-0.06793,-0.1903,287.63947,-2.38503,-2.26057,1012.14648
2018.03.18 18:42:51,28.26,10.8,-32.7,-0.37351,-0.53392,11.06155,-0.08178,-0.0545,-0.07607,289.12158,-1.17651,-1.81155,1012.14648
2018.03.18 18:42:51,28.32,10.5,-31.86,0.10535,-0.3783,9.10543,-0.01642,0.07012,-0.10234,289.67526,-0.99499,-1.77176,-0.01642
2018.03.18 18:42:51,28.38,11.1,-32.22,-0.23464,-0.40224,10.04398,-0.07445,0.08112,-0.13655,290.69638,0.70775,-1.66576,1012.14673
2018.03.18 18:42:51,27.72,10.92,-30.06,0.12929,0.15084,9.86681,0.11064,0.0127,0.04671,290.79919,0.48553,-1.72198,1012.14697
2018.03.18 18:42:51,27.66,11.4,-29.52,-0.43815,0.5435,9.17007,0.08254,0.07317,-0.08829,291.41779,-0.28857,-1.45824,0.08254
2018.03.18 18:42:51,28.68,10.8,-31.32,-0.16281,1.087,9.54119,0.1082,-0.03373,0.09925,291.40747,-1.85892,-1.68165,0.1082
2018.03.18 18:42:51,28.38,10.86,-30.6,-0.23943,0.668,11.14774,-0.02131,0.13426,0.09436,291.08188,-3.16469,-1.32176,-0.02131
2018.03.18 18:42:51,29.16,10.44,-30.18,-0.21548,-0.33759,11.70561,-0.06101,0.06401,0.09497,290.66229,-2.77557,-1.65686,-0.06101
2018.03.18 18:42:51,29.7,10.02,-31.38,-0.14366,-0.32802,8.94501,0.16928,-0.06183,0.11879,290.2066,-1.6717,-1.24582,0.16928
2018.03.18 18:42:52,28.74,8.88,-31.5,-0.82124,-0.5842,9.88117,-0.12637,-0.03984,0.03572,289.92279,0.38649,-1.6261,-0.12637
2018.03.18 18:42:52,28.8,9.42,-30.66,-0.46688,0.2083,9.1605,0.00191,0.01942,0.18477,288.6077,1.12297,-2.32615,1012.14819
2018.03.18 18:42:52,29.28,8.52,-30.96,-0.57463,0.59139,9.6585,-0.07262,0.06951,0.06504,287.73615,0.87238,-2.60094,-0.07262
2018.03.18 18:42:52,30.24,8.16,-30.18,-0.77335,0.97926,10.06553,-0.05551,0.09761,0.03877,287.31186,-0.63853,-3.28402,1012.14844
2018.03.18 18:42:52,29.7,8.1,-30.18,-0.3352,0.57941,10.78621,-0.00726,-0.06305,0.01373,287.21692,-2.5162,-3.26306,1012.14355
2018.03.18 18:42:52,30.42,8.46,-29.34,-0.22027,-0.17957,12.02884,-0.24977,0.00293,-0.05286,287.57736,-2.09166,-2.86379,-0.24977
2018.03.18 18:42:52,29.22,9.06,-29.94,0.31126,-0.79729,10.94662,0.00435,-0.12902,-0.01193,287.58484,-0.63237,-1.63449,0.00435
2018.03.18 18:42:52,29.58,9.48,-29.7,-0.11014,-0.6273,9.50048,0.11003,0.0463,-0.13594,288.28436,0.41956,-0.69871,1012.15723
2018.03.18 18:42:52,29.4,9.12,-28.5,-0.40224,-0.36872,9.22035,0.08437,-0.04045,-0.12983,288.99905,0.86517,-0.72257,0.08437
2018.03.18 18:42:53,30.12,9.18,-29.16,-0.20591,0.16999,9.22754,-0.07079,0.04752,-0.05652,288.95776,0.96789,-1.09741,-0.07079
2018.03.18 18:42:53,29.88,9.24,-29.04,-0.18675,0.47167,9.56273,-0.09705,0.05363,-0.00827,288.78134,0.66853,-1.40216,-0.09705
2018.03.18 18:42:53,30.72,9.06,-29.46,-0.12929,0.74462,10.44143,0.01351,-0.01907,0.09864,288.2897,-0.25338,-1.64477,0.01351
2018.03.18 18:42:53,29.94,8.4,-29.16,-0.19872,0.84278,10.36003,0.13263,-0.08015,0.11269,287.62006,-1.68165,-1.49132,0.13263
2018.03.18 18:42:53,30.66,9.18,-29.64,-0.3783,-0.76377,12.0432,-0.1557,0.01209,-0.0498,287.5437,-1.20233,-1.58131,-0.1557
2018.03.18 18:42:53,31.74,8.82,-28.8,-0.62491,-0.59857,9.31612,0.1363,-0.00196,-0.00521,287.41949,-0.68874,-1.85911,0.1363
2018.03.18 18:42:53,31.8,8.1,-30,-0.63688,-0.53392,10.0368,-0.00054,-0.049,0.00823,287.12875,0.92068,-2.52274,-0.00054
2018.03.18 18:42:53,31.02,8.46,-29.22,-0.54111,0.43815,8.58587,0.02756,0.00842,0.029,286.65738,0.68071,-2.92011,1012.16016
2018.03.18 18:42:53,31.32,7.26,-28.68,-0.38308,0.6273,9.81413,-0.04513,-0.01723,-0.00338,286.37033,0.11036,-3.04385,1012.15723
2018.03.18 18:42:54,31.8,8.28,-29.16,-0.50998,1.03433,9.69681,0.0636,0.04813,-0.09501,286.76309,-1.35604,-3.18818,1012.14795
2018.03.18 18:42:54,31.62,7.44,-28.86,-0.28252,0.61772,10.74551,0.04406,-0.08443,-0.07057,287.20496,-3.09702,-2.97429,1012.15723
2018.03.18 18:42:54,31.44,8.34,-29.88,-0.51237,-0.39984,10.4558,-0.21495,0.01087,-0.23978,288.16699,-2.01507,-2.1915,-0.21495
2018.03.18 18:42:54,30.54,9.96,-30.36,0.15323,-1.01278,11.13098,-0.03291,-0.01357,-0.08523,288.75082,-0.78791,-1.77549,-0.03291
2018.03.18 18:42:54,30.9,9.78,-29.52,-0.57463,-0.38069,9.26584,0.05261,0.09578,-0.17137,289.44156,-0.0518,-1.86926,1012.14233
2018.03.18 18:42:54,31.32,9.42,-31.02,-0.19633,0.22746,9.14613,0.07827,0.00415,0.08398,288.95825,0.20962,-2.18279,0.07827
2018.03.18 18:42:54,32.22,8.88,-30.54,0.0431,0.43815,9.08148,0.03673,0.10189,-0.0217,288.65805,-0.32528,-2.31576,0.03673
2018.03.18 18:42:54,32.7,9.36,-30.66,-0.16281,1.07742,9.73752,0.07704,0.05179,0.0626,288.55716,-1.39382,-2.04092,0.07704
2018.03.18 18:42:54,32.58,8.22,-30.3,-0.30407,0.59139,11.0424,0.10209,-0.01051,0.02655,288.21475,-3.14677,-1.56071,0.10209
2018.03.18 18:42:54,33.12,8.58,-30.9,-0.57702,-0.29689,11.70082,-0.12576,0.02431,-0.01132,288.15558,-2.86055,-1.64619,-0.12576
2018.03.18 18:42:55,32.7,8.16,-31.56,-0.52195,-0.42379,8.92346,0.22365,-0.00929,0.11208,287.66272,-1.57125,-1.90707,0.22365
2018.03.18 18:42:55,33.96,8.22,-32.58,-0.97686,-0.55068,9.42865,-0.11538,-0.01357,-0.02354,287.51794,0.49143,-2.74248,1012.14868
2018.03.18 18:42:55,34.02,7.86,-31.92,-0.4597,0.19633,8.84924,0.01596,-0.04045,0.22081,286.13593,1.57469,-3.41487,1012.14941
2018.03.18 18:42:55,34.62,7.68,-31.56,-0.32323,0.53871,9.79258,-0.07812,-0.11497,0.15789,284.86469,1.24838,-3.02331,1012.15088
2018.03.18 18:42:55,34.56,6.48,-32.22,-0.61772,0.8787,9.95539,-0.06468,0.06401,0.00578,284.33917,-0.52762,-3.05485,1012.15649
2018.03.18 18:42:55,35.4,6.66,-32.1,-0.32802,0.76138,10.6641,0.11675,0.02186,0.03816,284.08527,-2.32407,-3.25766,1012.15503
2018.03.18 18:42:55,35.7,7.08,-32.46,-0.56026,-0.33759,12.52206,-0.23816,0.12266,-0.19336,284.51361,-2.51946,-2.61163,-0.23816
2018.03.18 18:42:55,36.54,6.78,-33.6,-0.36154,-0.4621,9.30655,0.15096,0.05729,-0.10906,285.31567,-2.1773,-2.56922,0.15096
2018.03.18 18:42:55,35.82,6.54,-33.6,-0.55787,-0.59617,10.26665,-0.10255,0.0017,-0.21046,285.89716,-0.49259,-2.17245,-0.10255
2018.03.18 18:42:56,36.42,7.86,-32.88,-0.22746,0.52674,8.73671,0.06299,0.04996,-0.00216,285.82562,0.16084,-2.19542,0.06299
2018.03.18 18:42:56,37.38,6.42,-34.5,-0.25619,0.43815,9.16528,-0.01886,-0.03861,-0.10906,285.75095,-0.3242,-1.99375,-0.01886
2018.03.18 18:42:56,35.58,8.34,-33.72,-0.58181,0.73504,9.78061,-0.01825,-0.0264,-0.00949,285.98413,-0.36504,-1.88737,-0.01825
2018.03.18 18:42:56,36.72,8.1,-33.6,-0.24661,0.838,10.23553,0.05566,0.06584,0.05221,285.5332,-1.65412,-2.29085,0.05566
2018.03.18 18:42:56,37.44,6.96,-33.84,-0.17957,0.50998,10.56594,0.22243,-0.06855,0.10719,284.74747,-2.98968,-2.17411,0.22243
2018.03.18 18:42:56,38.4,7.32,-33.84,-0.86433,-0.78532,11.29619,-0.36217,-0.04594,-0.05958,284.53522,-1.13777,-2.22869,1012.14771
2018.03.18 18:42:56,37.02,6.06,-33.18,-0.85236,-0.36632,9.69202,0.16501,0.00903,0.15606,283.55701,-1.73737,-2.36045,1012.14355
2018.03.18 18:42:56,37.44,4.56,-34.38,-0.53392,-0.20591,10.00567,0.01901,-0.08321,0.18904,282.36859,-1.04891,-2.36231,1012.1416
2018.03.18 18:42:56,38.64,3.96,-34.14,-0.19633,0.54111,8.97374,0.08132,-0.01418,0.12735,281.10934,-1.21237,-2.16415,1012.14014
2018.03.18 18:42:57,38.16,3.72,-35.58,-0.30168,0.58899,10.02962,-0.05979,-0.06793,-0.03209,280.74829,-1.37323,-1.81488,1012.14648
2018.03.18 18:42:57,38.16,4.38,-35.1,-0.67519,0.98405,9.68245,0.04161,0.00598,-0.06813,280.81381,-2.45384,-1.96783,1012.14844
2018.03.18 18:42:57,37.32,3.66,-35.16,-0.65603,0.91701,10.58748,0.03245,-0.06793,-0.02903,280.76547,-3.43045,-1.99371,0.03245
2018.03.18 18:42:57,38.7,3.18,-36.06,0.11253,-0.14126,10.33608,-0.12699,0.01209,0.07909,280.29349,-3.00177,-2.08806,-0.12699
2018.03.18 18:42:57,38.1,3.72,-35.88,-0.19394,-0.6273,9.79977,0.0972,-0.02029,0.0125,280.16489,-1.32789,-1.2814,0.0972
2018.03.18 18:42:57,38.94,2.88,-36.24,0.05986,-0.21788,9.77104,0.03306,0.01453,-0.21229,280.52692,-0.20461,-0.65233,0.03306
2018.03.18 18:42:57,38.1,3.96,-35.16,-0.16281,0.41421,8.73431,0.13752,0.00354,-0.08829,280.79694,-0.33596,-0.89595,0.13752
2018.03.18 18:42:57,39.48,2.46,-35.34,-0.20351,0.37111,9.61541,-0.01459,0.02431,-0.03575,280.25116,-0.80303,-0.96109,-0.01459
2018.03.18 18:42:57,39.06,2.16,-35.58,-0.22027,1.22347,9.38556,0.03001,0.09517,0.02411,279.65643,-1.64002,-1.37096,1012.16089
2018.03.18 18:42:58,39.78,1.8,-35.4,-0.12211,1.20911,10.33369,0.13324,0.03286,0.0797,278.0473,-3.78556,-1.40414,1012.1604
2018.03.18 18:42:58,38.94,1.14,-34.68,0.13169,0.57702,11.68406,-0.03047,0.03652,0.08092,277.27606,-4.42868,-1.37995,1012.15894
2018.03.18 18:42:58,39.6,0.78,-35.1,-0.63927,-0.62012,9.97694,-0.08911,0.03286,-0.05713,277.05093,-2.77759,-1.14897,1012.15918
2018.03.18 18:42:58,39.3,-0.3,-34.56,-1.0032,-0.89785,9.06472,-0.02192,0.0127,0.02106,276.29938,-0.21729,-2.13678,1012.15796
2018.03.18 18:42:58,39.6,-0.84,-35.7,-0.27534,-0.02394,9.48133,-0.00359,-0.0435,0.17316,274.6832,1.70425,-3.12553,-0.00359
2018.03.18 18:42:58,39.42,-1.08,-35.52,-0.33041,0.61533,9.52203,-0.04513,-0.00074,0.04122,273.44058,1.40063,-3.12083,-0.04513
2018.03.18 18:42:58,39.72,-1.56,-35.04,-0.52913,0.97208,9.80455,-0.05918,0.00598,-0.05897,272.92651,-0.17642,-2.82502,1012.1438
2018.03.18 18:42:58,40.14,-2.82,-35.04,-0.70392,1.04869,9.8285,0.12897,0.04446,-0.04736,272.83789,-2.87272,-3.26609,0.12897
2018.03.18 18:42:58,38.88,-3.54,-34.74,-0.55547,0.92419,10.57312,0.10148,-0.1107,0.03388,272.42865,-4.20829,-3.04029,0.10148
2018.03.18 18:42:58,38.64,-3.78,-35.64,-0.05986,-0.61772,11.43027,-0.18013,-0.05938,-0.07668,272.26508,-3.00471,-2.14413,-0.18013
2018.03.18 18:42:59,37.98,-2.64,-34.74,0.40703,-0.61293,10.08708,0.01962,0.01636,0.00823,271.8656,-1.00293,-1.44012,0.01962
2018.03.18 18:42:59,36.96,-3.24,-34.56,0.05267,0,9.64414,0.01962,0.04446,-0.11028,271.62582,0.1415,-0.51485,0.01962
2018.03.18 18:42:59,36.84,-3.42,-34.14,0.10774,0.54111,9.04796,0.12836,-0.01723,0.04122,270.90155,-0.34021,-0.35492,0.12836
2018.03.18 18:42:59,36.9,-4.08,-34.92,0.22985,0.76617,9.1581,0.05383,0.0072,-0.04003,269.79248,-1.35743,-0.18522,0.05383
2018.03.18 18:42:59,37.68,-4.2,-35.04,0.00718,1.52276,9.66329,-0.00481,0.08784,-0.09501,269.5961,-2.57681,-0.14653,1012.15698
2018.03.18 18:42:59,37.08,-3.96,-33.24,-0.18915,1.55867,10.17088,0.0184,0.09028,-0.10112,269.44678,-5.08362,-0.56697,1012.15942
2018.03.18 18:42:59,36.54,-4.38,-33.36,-0.13887,0.82363,11.5859,-0.07873,0.0127,0.00395,269.42163,-5.78221,-0.83966,1012.15454
2018.03.18 18:42:59,35.88,-4.8,-32.64,-0.76617,-0.84997,10.06314,0.12591,-0.00929,-0.06324,269.65552,-3.17415,-1.08721,1012.15552
2018.03.18 18:42:59,35.46,-4.74,-33.24,-1.06306,-0.65364,9.08388,0.00679,-0.03678,0.02717,269.22415,-2.50044,-1.82775,0.00679
2018.03.18 18:43:00,34.38,-5.22,-32.94,-0.39266,-0.13169,9.93624,-0.05613,-0.02273,0.16889,267.68234,-0.25016,-3.01576,1012.15039
2018.03.18 18:43:00,33.72,-6.06,-33.12,-0.59857,0.53153,9.3688,0.0013,0.02247,0.10169,265.88565,-0.42022,-2.9056,1012.15381
2018.03.18 18:43:00,34.08,-6.66,-32.82,-0.68476,0.88109,9.92427,-0.14714,0.09822,0.05526,264.81818,-0.88409,-3.30771,-0.14714
2018.03.18 18:43:00,33.06,-6.66,-31.68,-0.53153,1.51558,9.75188,0.12897,0.02369,0.04916,264.01483,-3.04845,-3.50448,0.12897
2018.03.18 18:43:00,32.4,-6.78,-32.34,-0.6273,1.05827,10.8293,0.01657,-0.1388,0.01922,263.77069,-4.84432,-3.17916,0.01657
2018.03.18 18:43:00,32.28,-6.42,-32.58,-0.51477,-0.45252,11.4183,-0.28276,-0.01845,-0.07363,263.77643,-3.44173,-2.59978,-0.28276
2018.03.18 18:43:00,31.02,-6.3,-32.34,0.77335,-0.09098,9.21078,0.15829,-0.04228,0.22203,262.64386,-2.51554,-2.24745,0.15829
2018.03.18 18:43:00,31.5,-6.3,-31.08,-0.34956,-0.08859,9.94103,-0.0549,0.05729,-0.15304,263.01715,-1.24285,-1.55456,-0.0549
2018.03.18 18:43:00,30.3,-5.82,-31.44,-0.0407,0.48364,9.4933,0.09842,-0.00929,0.00273,262.92514,-1.31627,-1.67529,0.09842
2018.03.18 18:43:01,30.78,-5.76,-31.32,-0.41182,0.82124,9.40471,0.01046,0.0579,-0.16526,263.14075,-1.9475,-1.77831,1012.14502
2018.03.18 18:43:01,28.74,-4.74,-29.64,-0.74941,1.16362,9.85005,0.00924,0.02186,-0.03087,263.38879,-2.77753,-2.18853,0.00924
2018.03.18 18:43:01,29.04,-4.92,-30.9,-0.13408,1.34798,10.61382,0.18578,-0.00379,0.20432,262.4389,-5.36657,-2.36062,1012.15015
2018.03.18 18:43:01,28.86,-6.42,-30.66,-0.39745,-0.43097,13.03922,-0.30536,-0.01907,0.00701,261.72083,-5.03235,-2.07205,1012.15234
2018.03.18 18:43:01,27.6,-6.6,-30.84,-0.15563,0.02394,8.21476,0.25725,-0.03434,0.12002,261.1554,-5.00318,-1.77697,0.25725
2018.03.18 18:43:01,26.22,-7.62,-30.72,-0.86673,-0.51477,9.7423,-0.09156,-0.02151,-0.10723,261.34018,-3.13513,-2.21862,1012.14795
2018.03.18 18:43:01,25.8,-7.2,-30.06,-0.61293,0.32802,8.94022,0.03856,-0.01051,0.09314,260.59604,-1.20863,-2.92326,1012.1438
2018.03.18 18:43:01,25.08,-7.38,-30.12,-0.52435,0.7111,9.27781,-0.12088,0.04263,0.04732,259.47043,-0.95665,-3.11329,-0.12088
2018.03.18 18:43:01,25.2,-7.44,-30.06,-0.5028,1.32164,9.10303,-0.02619,0.04874,-0.03514,258.87952,-1.82897,-3.18294,-0.02619
2018.03.18 18:43:01,24.24,-7.5,-30.66,-0.668,1.81007,9.87878,0.00679,0.01636,-0.02476,258.79944,-4.38433,-3.26386,1012.15332
2018.03.18 18:43:02,22.26,-7.62,-30.12,-0.06943,1.39586,12.03363,-0.10683,-0.14613,0.03083,258.49295,-5.71357,-2.43474,-0.10683
2018.03.18 18:43:02,22.14,-7.8,-29.46,-1.06066,-0.06465,10.34566,-0.05796,0.05485,0.04549,258.40851,-5.79945,-2.27231,-0.05796
2018.03.18 18:43:02,21.06,-6.24,-30.06,0.20112,-0.78532,10.6234,0.052,0.26987,-0.18297,257.94543,-2.98592,-2.54566,0.052
2018.03.18 18:43:02,21.6,-7.08,-28.92,0.41182,-0.21548,8.95459,0.14851,0.09089,-0.13532,258.60901,-2.12844,-2.60677,0.14851
2018.03.18 18:43:02,21.66,-7.38,-27.18,-0.49561,0.19633,8.59784,0.0746,0.05851,-0.24834,259.25189,-2.23441,-2.51829,0.0746
2018.03.18 18:43:02,20.1,-6.66,-27.72,-0.27534,0.33041,9.86681,-0.1221,-0.18339,-0.1506,259.55829,-1.41789,-1.46514,-0.1221
2018.03.18 18:43:02,19.98,-5.88,-28.68,-0.77335,0.98644,9.62977,0.02634,0.01453,-0.06691,259.54877,-1.39685,-1.33796,0.02634
2018.03.18 18:43:02,19.38,-6.54,-27.6,-0.42858,1.08221,11.03042,0.19677,-0.14735,0.28862,258.42157,-3.60862,-2.21638,1012.16357
2018.03.18 18:43:02,19.14,-6.42,-26.94,0.13647,0.22267,11.57871,0.08193,-0.0044,0.21165,256.90323,-4.70388,-2.044,1012.15649
2018.03.18 18:43:03,19.5,-7.26,-26.76,-0.32323,-0.42379,11.09268,-0.04146,-0.04717,0.05099,256.47708,-3.21351,-2.38546,1012.15137
2018.03.18 18:43:03,18.42,-7.74,-26.22,-0.47646,-0.44534,8.9474,-0.08056,-0.09909,0.01067,255.412,-3.6219,-1.67263,1012.15894
2018.03.18 18:43:03,18,-7.5,-25.02,0.08619,-0.18196,10.09426,0.0129,-0.07954,0.09619,254.68945,-2.51383,-0.92242,0.0129
2018.03.18 18:43:03,17.82,-7.62,-26.52,-0.39266,0.73983,8.9091,0.12225,0.05241,0.01006,254.01675,-1.99707,-1.2029,1012.14893
2018.03.18 18:43:03,17.94,-6.78,-26.1,-0.89306,0.98165,9.81413,-0.04269,0.0915,-0.15182,254.34204,-2.5587,-2.08062,1012.14526
2018.03.18 18:43:03,18.54,-6.9,-25.26,-0.54589,1.16122,9.83329,0.12103,0.03286,0.03572,254.37128,-4.05797,-3.06302,0.12103
2018.03.18 18:43:03,17.22,-6.96,-25.5,-0.16999,0.88109,10.98493,0.17845,0.07928,0.13468,253.79622,-5.26073,-2.92483,0.17845
2018.03.18 18:43:03,17.94,-7.2,-25.98,-0.24182,-0.34238,10.93944,-0.3023,-0.07832,-0.06019,253.85262,-3.40774,-2.15463,-0.3023
2018.03.18 18:43:03,16.32,-6.12,-25.2,0.2514,0.25858,10.22116,-0.04879,-0.1107,0.04855,253.71283,-2.41983,-1.58078,-0.04879
2018.03.18 18:43:03,16.74,-4.86,-24.96,-0.5842,0.04549,9.95779,-0.0659,0.04508,-0.25811,255.01289,-1.97552,-1.57089,-0.0659
2018.03.18 18:43:04,16.56,-5.04,-24.72,-0.34717,0.31126,9.33767,0.0074,0.01514,-0.12433,255.72293,-2.10612,-2.00054,0.0074
2018.03.18 18:43:04,16.26,-4.38,-24.72,-0.5842,0.83321,9.51006,-0.10133,0.05851,-0.02048,256.34821,-1.61081,-2.45507,1012.14575
2018.03.18 18:43:04,15.96,-3.66,-25.44,-0.31365,1.40305,10.08229,-0.0097,0.01209,0.11513,256.06812,-2.64062,-2.46413,1012.14868
2018.03.18 18:43:04,15.36,-3.42,-24.78,0.07901,1.49882,10.2451,0.19372,0.05913,0.24097,255.81702,-4.22488,-1.84011,0.19372
2018.03.18 18:43:04,14.34,-4.02,-24.84,-0.28971,-0.35675,12.28502,-0.07873,-0.05816,0.07848,255.72516,-4.8264,-1.08657,1012.15186
2018.03.18 18:43:04,15.42,-3.72,-25.26,-0.51237,-0.33759,9.12219,0.23465,-0.14002,0.06626,256.15451,-3.06245,-0.63837,1012.1521
2018.03.18 18:43:04,14.76,-3.24,-25.08,-0.9194,-0.26337,9.06472,0.03123,-0.05511,0.0742,256.53085,-1.33214,-2.05304,0.03123
2018.03.18 18:43:04,14.46,-2.94,-25.68,-0.71589,0.44294,9.09585,0.00802,-0.01968,0.09558,256.17041,-0.5168,-2.56581,0.00802
2018.03.18 18:43:04,14.1,-1.98,-25.56,-0.4166,0.96489,9.37359,-0.15142,0.09456,0.07298,256.01733,-0.95881,-2.66223,1012.13721
2018.03.18 18:43:05,13.2,-1.62,-25.5,-0.57702,1.26897,10.10145,-0.10316,0.04141,-0.04247,257.0722,-2.53942,-2.68242,-0.10316
2018.03.18 18:43:05,13.74,-0.84,-26.4,-0.25619,1.44854,9.77822,0.10881,-0.03984,-0.00277,258.65207,-4.794,-2.6748,0.10881
2018.03.18 18:43:05,13.38,-0.18,-26.4,-0.13408,-0.3352,11.45182,-0.41592,0.07806,-0.252,261.4588,-5.13191,-2.22861,-0.41592
2018.03.18 18:43:05,13.32,1.38,-26.7,0.03591,-0.67997,11.31295,-0.21678,-0.09176,-0.10112,264.33038,-2.54605,-2.21542,-0.21678
2018.03.18 18:43:05,13.26,1.86,-27.54,0.17239,-0.05507,8.4877,0.22548,-0.00257,-0.05775,266.6048,-2.60327,-1.70312,0.22548
2018.03.18 18:43:05,13.14,2.76,-26.7,-0.57702,0.16042,9.22035,0.05811,0.03103,-0.10478,269.51102,-1.54546,-1.40258,0.05811
2018.03.18 18:43:05,13.14,3.66,-26.88,-0.06225,0.35196,9.66808,0.02695,-0.00929,0.00212,271.0202,-1.75704,-1.38357,0.02695
2018.03.18 18:43:05,13.38,3.72,-27.3,0.06704,1.07503,9.57949,0.10759,0.04874,0.04305,272.70419,-2.33543,-1.08543,1012.14429
2018.03.18 18:43:05,13.08,4.32,-26.82,-0.18915,1.35037,10.72396,0.06422,-0.05144,-0.06202,277.08167,-4.71961,-0.40125,1012.1377
2018.03.18 18:43:06,13.92,5.04,-28.32,-0.39506,0.33041,12.06475,-0.13554,0.07379,-0.04553,279.58301,-4.95499,-0.64121,1012.14331
2018.03.18 18:43:06,13.26,5.88,-27.9,-0.41182,-0.64406,10.26426,0.08132,-0.13757,0.0235,281.54935,-3.53019,-0.56815,1012.14844
2018.03.18 18:43:06,12.54,6.78,-26.16,-0.72068,-0.56265,9.18923,-0.01459,-0.00379,0.05832,283.10657,-1.4923,-1.44801,-0.01459
2018.03.18 18:43:06,13.38,6.42,-27.9,-0.31604,-0.10295,9.79258,-0.02436,-0.07465,0.09803,284.08234,0.03929,-2.05792,1012.14966
2018.03.18 18:43:06,14.16,6.9,-28.8,-0.35196,0.76856,8.84924,-0.01459,0.05485,0.10841,285.04248,-0.05793,-2.52061,1012.14771
2018.03.18 18:43:06,14.76,7.14,-28.14,-0.18675,1.45093,9.72076,-0.07995,0.07928,-0.00338,286.30322,-1.8243,-2.88888,-0.07995
2018.03.18 18:43:06,13.68,7.62,-28.2,-0.62251,1.53712,10.15172,0.11064,0.0463,-0.09928,288.73297,-4.3805,-2.85919,0.11064
2018.03.18 18:43:06,14.64,7.92,-28.32,-0.31604,1.01757,10.50847,0.14546,-0.13024,-0.06263,291.34979,-6.15348,-2.33778,1012.1499
2018.03.18 18:43:06,14.58,8.46,-28.98,-0.66082,-0.50759,11.03042,-0.15692,0.00354,-0.07607,293.50961,-4.82349,-2.01373,-0.15692
2018.03.18 18:43:06,15.3,8.52,-29.64,0.50998,-0.41182,9.92666,0.0636,0.01148,0.00212,294.42926,-3.87896,-1.47724,0.0636
2018.03.18 18:43:07,16.08,8.34,-29.94,-0.33041,-0.08859,9.5771,-0.08606,0.02797,-0.15365,296.34229,-0.81444,-0.67935,-0.08606
2018.03.18 18:43:07,15.84,9.9,-28.86,0.33999,0.53632,9.0743,0.07643,-0.01907,0.03633,297.03348,-0.8245,-0.47239,0.07643
2018.03.18 18:43:07,15.48,10.38,-29.88,0.02155,0.97926,9.14134,0.052,0.00354,-0.0608,298.07678,-1.69625,-0.08619,0.052
2018.03.18 18:43:07,16.5,9.78,-29.94,-0.249,1.40783,10.17806,0.03795,0.06218,-0.01682,299.0824,-3.24881,-0.37387,0.03795
2018.03.18 18:43:07,16.2,9.66,-30.12,-0.22506,0.69673,10.76705,0.07888,0.11471,0.06993,299.5748,-4.81462,-0.77353,1012.14722
2018.03.18 18:43:07,17.46,9.6,-30.84,-0.65843,-0.70392,12.35446,-0.22656,0.0298,0.00456,299.9939,-3.66832,-1.05873,-0.22656
2018.03.18 18:43:07,18.12,10.32,-30.24,-0.59378,-0.78293,9.45739,0.1363,-0.02151,0.19576,299.65802,-1.47109,-2.05427,1012.15991
2018.03.18 18:43:07,18.78,10.02,-30.06,-0.57223,-0.28013,9.3664,0.00496,0.06768,0.13284,299.2547,0.50477,-2.83797,1012.15112
2018.03.18 18:43:07,18.6,8.76,-30.9,-0.46449,0.56505,8.90191,0.02023,0.01636,0.1359,297.76718,0.64017,-3.11859,0.02023
2018.03.18 18:43:08,19.56,9.06,-30.24,-0.40703,1.07503,9.21796,-0.06101,0.04996,0.03511,296.8165,-0.44089,-3.27789,-0.06101
2018.03.18 18:43:08,20.94,9.66,-30.42,-0.56744,1.43178,9.63456,-0.03108,0.02614,0.0064,296.89432,-2.71363,-3.12935,1012.15601
2018.03.18 18:43:08,20.7,8.64,-30.96,-0.50519,1.40305,10.61861,0.06727,-0.02762,0.03816,297.12332,-5.03257,-2.99181,0.06727
2018.03.18 18:43:08,19.74,9.36,-29.52,-0.22027,-0.03831,11.5428,-0.10622,-0.15834,-0.0327,297.58411,-5.68919,-2.23083,-0.10622
2018.03.18 18:43:08,20.4,9.42,-30.3,-0.45491,-0.668,10.94902,-0.0714,-0.06855,-0.11456,298.65112,-3.42611,-1.83716,-0.0714
2018.03.18 18:43:08,21.48,9.42,-31.8,-0.34956,-0.48364,9.06951,0.09232,0.01575,-0.08157,299.13956,-1.79194,-1.79948,0.09232
2018.03.18 18:43:08,21.9,9.24,-30.66,-0.47646,0.00479,9.47415,-0.00909,-0.03189,-0.03148,299.11487,-0.27858,-1.97781,-0.00909
2018.03.18 18:43:08,22.08,9.36,-31.32,0.25619,0.57702,9.23711,0.03367,0.02064,0.02778,298.51511,-0.53957,-1.99889,0.03367
2018.03.18 18:43:08,21.6,9.06,-31.14,-0.19633,1.01517,9.6609,0.01168,-0.00135,-0.0944,298.47684,-1.47596,-1.36634,0.01168
2018.03.18 18:43:09,22.26,9.36,-30.72,-0.11971,1.35516,10.03919,0.0917,0.01331,-0.0663,298.64096,-3.3336,-1.17657,0.0917
2018.03.18 18:43:09,22.08,9,-31.02,-0.7925,1.22108,10.13975,0.08621,0.02858,-0.02842,298.55923,-4.92277,-1.44162,0.08621
2018.03.18 18:43:09,22.26,8.46,-30.06,-0.39027,-0.00239,12.05517,-0.18868,-0.01235,0.04549,297.88171,-4.48901,-1.49675,-0.18868
2018.03.18 18:43:09,23.4,8.76,-30.66,-0.90504,-0.93137,9.35922,0.01901,0.01331,-0.06752,297.60873,-1.81763,-1.9591,1012.14893
2018.03.18 18:43:09,23.82,8.28,-30.48,-0.38308,-0.14366,9.64174,0.04345,-0.0942,0.25196,296.55286,0.79411,-3.04894,0.04345
2018.03.18 18:43:09,22.8,7.62,-29.94,-0.2083,0.53871,8.97614,0.07032,-0.02579,0.17255,294.75317,0.45669,-2.88989,1012.14551
2018.03.18 18:43:09,23.4,7.08,-30.24,-0.39266,1.03672,9.34246,-0.03047,0.09639,-0.01682,294.2034,-0.97492,-3.00113,1012.15503
2018.03.18 18:43:09,24.18,7.44,-29.76,-0.56744,1.24981,9.96497,-0.05185,0.07989,-0.12433,294.44708,-2.81994,-3.23414,-0.05185
2018.03.18 18:43:09,23.04,8.1,-29.16,-0.84518,1.30249,10.05117,0.00618,-0.00685,-0.06385,294.94727,-4.46996,-3.33174,0.00618
2018.03.18 18:43:09,23.7,7.14,-29.88,-0.23703,0.9194,11.09986,-0.21006,-0.05877,-0.07241,295.03931,-4.92453,-2.72608,-0.21006
2018.03.18 18:43:10,22.32,7.98,-28.44,0.00958,-0.6273,12.2539,-0.16303,-0.20233,0.06076,294.94421,-3.67156,-2.20517,-0.16303
2018.03.18 18:43:10,22.68,8.22,-29.76,-0.02155,-0.57702,9.19641,0.15279,0.18557,-0.20985,295.6235,-2.74323,-2.07302,0.15279
2018.03.18 18:43:10,23.22,8.04,-29.16,-0.45731,0.08619,8.96895,0.05933,-0.05144,-0.10906,296.06793,-1.98814,-1.74133,0.05933
2018.03.18 18:43:10,22.5,8.1,-29.76,-0.13887,0.64885,9.26105,-0.02864,0.07867,-0.15671,296.2121,-1.83446,-1.77043,-0.02864
2018.03.18 18:43:10,23.4,9.12,-28.92,-0.64406,0.85476,9.27303,-0.06773,0.20146,-0.25322,297.25885,-1.65932,-2.85922,-0.06773
2018.03.18 18:43:10,22.68,9.42,-28.56,-0.65124,1.35755,10.63537,0.1198,0.00659,0.04305,297.41434,-2.40925,-3.27479,0.1198
2018.03.18 18:43:10,22.86,7.92,-28.08,-0.74223,1.0032,10.39115,0.17356,-0.05022,0.04305,296.99753,-4.62364,-2.92459,0.17356
2018.03.18 18:43:10,22.92,8.7,-28.86,-1.00081,-0.29689,11.55716,-0.12637,0.01148,0.0687,296.43515,-4.07219,-3.15306,-0.12637
2018.03.18 18:43:10,22.98,8.94,-27.72,-0.99602,-0.55547,9.41668,-0.05674,-0.00929,0.13223,295.38104,-2.04317,-3.48299,-0.05674
2018.03.18 18:43:11,23.04,8.52,-27.9,-0.63209,-0.23943,9.18444,-0.03963,-0.04839,0.18049,294.16623,-0.05404,-3.97393,1012.14697
2018.03.18 18:43:11,23.58,9.12,-28.32,-0.39266,0.26816,9.04557,-0.02619,-0.03312,0.17377,292.7691,0.51587,-3.77267,1012.14697
2018.03.18 18:43:11,24.12,8.82,-27.6,-0.67519,0.69434,9.20599,-0.15875,0.07134,0.12063,291.77899,0.70335,-4.13933,-0.15875
2018.03.18 18:43:11,24.78,8.28,-27.48,-0.41421,1.51079,10.42946,-0.06529,-0.00074,0.11513,291.01172,-1.26643,-4.0564,-0.06529
2018.03.18 18:43:11,24,7.86,-27.6,-0.40463,1.13249,10.66649,0.04345,-0.12475,-0.04919,290.81183,-4.51148,-2.89272,0.04345
2018.03.18 18:43:11,23.64,7.74,-29.28,-0.14126,0.32083,12.45502,-0.08911,-0.21821,-0.11944,291.78369,-4.45107,-1.76442,-0.08911
2018.03.18 18:43:11,23.58,9.12,-29.34,-0.01915,-0.82602,10.35045,0.21571,0.02064,-0.21901,293.46591,-4.40127,-1.73244,0.21571
2018.03.18 18:43:11,24.18,9.06,-29.64,-0.36632,-0.50998,8.91628,0.10637,0.12388,-0.241,295.24643,-3.9086,-2.1593,0.10637
2018.03.18 18:43:11,24.12,9.78,-29.7,-0.59378,0.2921,9.39513,0.01596,0.0017,-0.07424,295.9537,-3.1397,-2.23432,0.01596
2018.03.18 18:43:12,23.4,9.48,-29.04,-0.39506,0.72547,9.76146,0.0074,0.02003,-0.02781,296.17349,-2.78511,-2.2953,0.0074
2018.03.18 18:43:12,23.46,9.78,-30.3,-0.56026,1.18517,9.2419,0.03062,0.02919,0.02045,296.51172,-3.33693,-2.53051,0.03062
2018.03.18 18:43:12,23.94,8.94,-29.04,-0.2921,1.31446,10.23792,0.02512,0.01575,0.06626,296.017,-4.83272,-2.47111,0.02512
2018.03.18 18:43:12,24.72,9.96,-28.92,-0.6273,0.82602,11.25788,-0.19235,0.14037,0.05465,295.98886,-4.97426,-2.81431,-0.19235
2018.03.18 18:43:12,25.5,10.44,-28.56,-0.23703,-0.4597,11.60026,-0.1111,0.01453,0.03144,295.88467,-3.92955,-2.84731,-0.1111
2018.03.18 18:43:12,25.26,9.9,-28.02,-1.15404,-0.94334,9.70639,0.02695,-0.03128,-0.02476,295.95239,-1.82792,-2.78587,1012.1416
2018.03.18 18:43:12,25.44,10.08,-29.04,-0.6704,-0.09817,9.65132,-0.00664,-0.05694,0.13468,295.18613,0.54843,-3.45335,1012.14917
2018.03.18 18:43:12,25.08,10.2,-28.74,-0.27774,0.43336,9.38795,-0.05246,0.01209,0.02655,294.44284,0.31014,-3.45812,-0.05246
2018.03.18 18:43:12,26.04,11.16,-27.96,-0.84518,1.16841,9.33288,-0.04574,0.04141,-0.07302,294.60809,-0.87841,-3.34662,-0.04574
2018.03.18 18:43:12,25.74,11.04,-28.38,-0.6704,1.21869,10.34087,0.05322,-0.03067,-0.0327,295.31793,-3.12574,-3.6787,0.05322
2018.03.18 18:43:13,25.98,11.7,-28.62,-0.8787,0.79011,10.90832,0.08865,-0.05755,-0.0046,295.78949,-4.52094,-3.43804,1012.14136
2018.03.18 18:43:13,25.2,11.58,-27.84,0.11014,-0.39506,10.46537,-0.09889,0.05974,-0.01743,295.89966,-3.81163,-2.86938,-0.09889
2018.03.18 18:43:13,25.5,11.88,-28.26,-0.05986,-0.51237,9.4933,0.10881,0.02736,-0.06263,296.51187,-1.11308,-1.85044,0.10881
2018.03.18 18:43:13,25.98,12.66,-27.9,-0.63688,0.03352,9.47654,0.00802,0.03225,-0.12372,297.3421,0.11996,-1.87998,0.00802
2018.03.18 18:43:13,25.68,13.32,-26.46,-0.37111,0.63927,9.17486,0.00496,0.05302,0.04793,297.36133,-0.05842,-2.66623,0.00496
2018.03.18 18:43:13,26.34,12.18,-26.7,-0.35196,1.01757,9.38795,0.00069,0.06462,0.01861,297.41565,-1.2657,-2.96505,0.00069
2018.03.18 18:43:13,26.34,12.72,-27.3,-0.55547,1.33601,10.04159,0.04894,0.01514,0.02228,297.87314,-3.41241,-3.03909,1012.15356
2018.03.18 18:43:13,27.18,11.04,-27.18,-0.28013,1.02236,10.58748,0.19738,-0.02395,0.10597,297.45883,-5.17724,-2.65917,1012.15283
2018.03.18 18:43:13,27.42,11.16,-26.82,-0.18915,-0.11732,11.76786,-0.14226,0.03469,0.06137,297.06281,-4.93054,-2.6974,-0.14226
2018.03.18 18:43:14,27.36,11.34,-26.88,-0.1676,-0.44534,8.96177,0.13141,-0.06488,0.0125,296.86084,-2.85226,-2.00798,0.13141
2018.03.18 18:43:14,26.64,11.52,-26.16,-1.7167,-0.59139,8.9905,-0.14165,-0.01907,-0.15182,297.16129,0.21812,-2.85403,1012.13721
2018.03.18 18:43:14,27.12,11.46,-25.68,-0.70392,0.47646,9.55555,-0.15509,-0.03434,0.13651,296.15424,1.78619,-4.44495,-0.15509
2018.03.18 18:43:14,26.94,11.76,-25.56,-0.52674,0.91701,9.7854,-0.07995,0.03286,0.04427,295.34058,0.5313,-4.48127,-0.07995
2018.03.18 18:43:14,26.52,11.7,-25.5,-0.67279,1.09418,9.64653,0.03367,0.06707,-0.03575,295.43271,-1.81776,-4.34456,0.03367
2018.03.18 18:43:14,26.46,11.16,-23.94,-0.68476,0.93377,10.33369,0.1198,0.0017,-0.00949,295.76709,-3.80375,-4.3167,0.1198
2018.03.18 18:43:14,27.18,11.16,-25.32,-0.67279,0.2945,11.26506,0.09109,-0.10092,0.00334,296.02747,-4.41755,-3.8149,0.09109
2018.03.18 18:43:14,27.06,11.16,-25.44,-0.33999,-0.71589,10.36482,-0.0433,0.02369,-0.08035,296.33273,-2.78318,-3.3797,-0.0433
2018.03.18 18:43:14,26.94,10.44,-25.26,-0.13647,-0.61293,9.75667,0.08926,-0.0154,-0.17992,297.06894,-0.05587,-2.3974,0.08926
2018.03.18 18:43:15,26.94,11.04,-25.08,-0.83081,-0.03831,8.9067,0.06788,-0.02395,-0.0217,297.29114,0.60192,-2.30427,0.06788
2018.03.18 18:43:15,26.88,10.92,-24.3,-0.48364,0.42858,9.91469,-0.07812,0.13365,0.0461,296.60757,0.33624,-2.72716,1012.14136
2018.03.18 18:43:15,27.42,9.96,-24.24,-0.39984,0.90743,9.73512,0.01474,-0.00929,0.04427,295.83731,-0.69189,-3.0406,1012.1377
2018.03.18 18:43:15,27,9.66,-24.18,-0.13169,1.5036,9.80216,0.11614,-0.00563,0.07848,294.96695,-3.52077,-2.41325,1012.13257
2018.03.18 18:43:15,26.52,9.54,-23.76,-0.3783,1.6305,10.22355,0.12164,0.01759,0.07542,294.70941,-5.49633,-2.08463,1012.13721
2018.03.18 18:43:15,27.66,9.36,-24.18,-0.3783,-0.25619,13.01528,-0.10866,0.04691,-0.01315,294.11554,-5.44787,-1.92355,-0.10866
2018.03.18 18:43:15,27.6,8.04,-22.8,-0.63209,-0.17957,8.26743,0.0801,0.11655,0.00273,293.74475,-4.08233,-2.51125,0.0801
2018.03.18 18:43:15,28.5,8.34,-22.86,-1.01278,-0.2514,9.42147,-0.09705,0.01148,-0.04919,293.57678,-1.46081,-3.60142,1012.15039
2018.03.18 18:43:15,28.44,8.58,-23.16,-0.85954,0.08619,9.56752,-0.11049,0.06768,0.03999,292.8024,0.19004,-4.39292,-0.11049
2018.03.18 18:43:15,28.62,8.28,-22.56,-0.76138,0.82124,9.28021,-0.07506,0.03041,0.07787,291.78531,-0.06062,-4.6777,-0.07506
2018.03.18 18:43:16,28.62,7.86,-21.96,-0.68955,1.087,10.32411,-0.02864,-0.02212,0.00151,289.0401,-1.5035,-4.52796,-0.02864
2018.03.18 18:43:16,29.1,8.34,-22.56,-0.63927,1.24502,10.08708,0.09537,0.01026,-0.0046,288.97986,-3.5523,-4.26076,0.09537
2018.03.18 18:43:16,29.34,7.2,-22.68,-0.45252,0.99123,10.73353,0.07399,-0.09787,-0.02659,289.11404,-4.80545,-3.6036,0.07399
2018.03.18 18:43:16,28.5,8.16,-21.72,-0.49801,-0.38548,11.21718,0.01168,-0.16751,-0.21779,290.4071,-3.80987,-3.02609,0.01168
2018.03.18 18:43:16,28.68,8.4,-22.2,-0.37351,-0.61054,8.95938,0.11247,-0.03556,-0.17503,291.3038,-3.99291,-2.77251,1012.15039
2018.03.18 18:43:16,28.5,8.22,-23.58,-0.62012,0.22746,9.13176,-0.0097,-0.08626,-0.00888,291.66415,-2.72313,-2.60878,1012.15039
2018.03.18 18:43:16,28.26,7.8,-23.22,-0.36154,0.5028,9.7423,-0.1166,-0.02456,0.00456,291.2998,-1.81028,-2.78783,1012.14355
2018.03.18 18:43:16,28.98,8.58,-22.2,-0.34717,0.92658,9.48372,-0.04452,0.01148,0.0742,290.6709,-1.81553,-2.95879,1012.15186
2018.03.18 18:43:16,28.5,7.62,-22.98,-0.28492,1.26418,9.93385,0.07582,-0.03556,0.09131,289.80933,-3.64292,-2.85816,1012.14648
2018.03.18 18:43:17,28.98,7.5,-22.8,-0.22746,1.3815,9.98173,0.02756,0.10494,0.1133,289.20782,-4.96405,-2.77267,0.02756
2018.03.18 18:43:17,28.56,6.72,-22.74,-0.33759,-0.09817,12.46938,-0.24977,0.00842,0.02045,288.80511,-4.13597,-2.40044,1012.14624
2018.03.18 18:43:17,28.92,7.2,-21.48,-0.8356,-0.59378,8.71756,0.22793,-0.049,0.00212,288.8829,-3.19805,-2.46621,0.22793
2018.03.18 18:43:17,29.34,7.98,-21.78,-1.09418,-0.52435,9.11261,-0.05002,0.07562,0.03144,288.79294,0.04104,-3.97389,-0.05002
2018.03.18 18:43:17,29.16,6.96,-22.2,-0.83081,0.05267,9.63696,-0.12515,0.07867,-0.0046,287.97696,1.23458,-4.64826,-0.12515
2018.03.18 18:43:17,28.92,7.62,-22.32,-1.0056,0.49801,9.46217,-0.1673,0.03347,0.02472,287.55994,1.30334,-5.1561,-0.10194
2018.03.18 18:43:17,29.16,7.74,-21,-1.00799,1.03433,10.05595,-0.0885,0.04385,0.0907,286.86517,-0.34988,-5.42061,-0.0885
2018.03.18 18:43:17,29.16,8.22,-21.84,-0.41182,1.28812,10.12299,0.11553,-0.02395,0.06137,286.54153,-2.84565,-4.68909,0.11553
2018.03.18 18:43:17,29.16,7.98,-22.38,-0.40703,0.68237,11.06634,0.06971,-0.18522,-0.07546,286.94156,-4.37754,-3.53731,0.06971
2018.03.18 18:43:18,28.44,7.68,-22.56,-0.97208,-0.48604,9.73991,0.00252,-0.02884,-0.08035,287.94485,-3.0815,-2.90411,0.00252
2018.03.18 18:43:18,28.44,8.16,-22.74,0.40703,-0.48604,9.34964,0.18272,-0.10337,0.12613,287.73999,-1.42819,-2.63744,0.18272
2018.03.18 18:43:18,27.54,9.84,-22.68,-0.81166,-0.46449,9.94342,-0.01398,0.05424,-0.2691,288.93457,0.35911,-1.73364,1012.14893
2018.03.18 18:43:18,28.38,9,-22.14,-0.63209,0.31604,9.64893,-0.06651,0.03347,-0.0046,289.26526,0.74246,-2.35645,1012.14209
2018.03.18 18:43:18,27.54,9.9,-21.96,-0.24422,0.90504,9.23232,-0.03413,0.03958,0.029,288.91962,-0.16225,-2.50285,-0.03413
2018.03.18 18:43:18,27.9,9.72,-21.42,-0.45252,1.30967,10.65213,0.05933,-0.0661,0.14751,289.46344,-2.61327,-2.42908,0.05933
2018.03.18 18:43:18,28.02,9.12,-21.96,0.0407,1.24502,10.8317,0.23526,-0.07221,0.2764,288.55621,-5.04504,-1.91592,1012.14722
2018.03.18 18:43:18,28.02,7.8,-22.08,-0.00239,0.09098,11.33689,0.01962,0.00048,0.07542,288.03851,-5.28604,-1.62529,0.01962
2018.03.18 18:43:18,28.5,8.04,-21.54,-0.93137,-0.40942,8.47573,0.187,0.00293,0.0345,288.24921,-3.40632,-1.75821,0.187
2018.03.18 18:43:18,27.12,7.44,-21.48,-0.79969,-0.63448,9.68245,-0.07567,-0.01968,0.06382,288.29007,-0.17841,-3.24242,-0.07567
2018.03.18 18:43:19,27.3,8.04,-20.94,-0.42139,0.32562,9.12937,-0.08239,0.03591,0.04916,287.67859,0.99312,-3.62685,-0.08239
2018.03.18 18:43:19,27.54,8.82,-20.64,-0.45731,0.6273,9.6585,-0.16425,-0.02029,-0.01987,287.37949,0.66442,-3.35527,-0.16425
2018.03.18 18:43:19,26.94,8.64,-20.16,-0.53153,1.22826,9.9937,-0.07017,0.05485,-0.07974,287.71979,-0.98605,-3.17858,-0.07017
2018.03.18 18:43:19,26.76,8.76,-20.82,-0.77575,0.90264,10.58509,0.08193,0.01942,-0.12616,288.5307,-3.26014,-3.19396,0.08193
2018.03.18 18:43:19,27.48,8.1,-20.52,0.06225,0.44294,11.22436,-0.01459,-0.22981,-0.04553,289.11929,-4.26669,-2.92407,-0.01459
2018.03.18 18:43:19,26.46,8.04,-20.16,-0.51956,-0.31126,10.23074,-0.12393,-0.01907,-0.09379,289.68848,-3.15802,-2.29157,-0.12393
2018.03.18 18:43:19,26.34,8.7,-21.6,0.249,-0.6273,9.53879,0.03489,0.00293,0.0009,289.76431,-1.12073,-1.92557,0.03489
2018.03.18 18:43:19,26.28,10.08,-19.26,-0.5028,-0.11253,9.41668,-0.02864,0.02125,-0.06508,290.44183,0.77387,-1.50248,1012.13013
2018.03.18 18:43:19,27.12,8.94,-19.86,0.06225,0.62491,9.25866,-0.0433,-0.01662,0.0235,290.0657,0.6965,-1.65839,-0.0433
2018.03.18 18:43:20,26.88,9.3,-19.74,0.09817,0.3759,9.92427,-0.04269,0.05546,-0.0663,290.23428,-0.09198,-1.3975,1012.13745
2018.03.18 18:43:20,26.4,10.02,-19.98,-0.3759,0.99841,9.2443,0.05811,0.14342,-0.03636,290.59921,-1.06744,-1.57271,1012.13525
2018.03.18 18:43:20,27,10.2,-19.32,-0.64167,0.85715,10.29538,0.05322,0.00903,0.12918,290.47412,-2.35793,-1.88034,1012.13257
2018.03.18 18:43:20,27.48,9.54,-19.44,-0.57223,-0.39506,12.72557,-0.10927,-0.05205,0.04977,289.80014,-1.76987,-1.86348,-0.10927
2018.03.18 18:43:20,27,9.3,-19.2,-0.5028,-0.47167,9.34246,0.25664,-0.19072,0.10169,289.32446,-2.11803,-1.50853,1012.13989
2018.03.18 18:43:20,27.9,8.58,-20.22,-0.58899,-0.78772,9.27303,0.00069,-0.00563,0.04732,289.12494,-0.73909,-2.19807,1012.15063
2018.03.18 18:43:20,28.32,9.12,-19.92,-0.86433,-0.13169,9.45978,-0.12149,0.0579,0.0687,288.5661,1.79402,-3.28591,-0.12149
2018.03.18 18:43:20,29.34,8.94,-19.08,-0.54111,0.48364,9.8692,-0.14653,0.10983,0.13895,287.47495,1.87532,-4.03245,-0.14653
2018.03.18 18:43:20,29.16,8.58,-19.62,-0.33999,0.98165,9.9123,0.01351,0.01942,0.13407,286.76175,0.09241,-3.8014,1012.14282
2018.03.18 18:43:20,30.06,8.94,-19.08,-0.40703,0.91222,10.03919,0.21632,-0.00379,-0.0046,286.93039,-2.64025,-3.19605,0.21632
2018.03.18 18:43:21,29.7,8.4,-20.22,0.14366,0.01915,10.94902,0.19372,-0.17545,-0.11944,287.68097,-4.01587,-2.07795,0.19372
2018.03.18 18:43:21,29.52,8.4,-20.22,-0.59139,-0.40463,9.63217,0.03062,0.03469,-0.16648,289.16721,-3.36713,-1.99308,0.03062
2018.03.18 18:43:21,29.82,9.3,-21.42,0.16042,-0.82602,10.00807,-0.03536,-0.1107,-0.05408,289.61774,-1.7711,-1.6244,-0.03536
2018.03.18 18:43:21,29.88,10.5,-20.7,-0.43336,0.05986,9.71118,-0.06223,0.03836,-0.13227,290.31702,0.47461,-1.58964,-0.06223
2018.03.18 18:43:21,30.24,9.84,-20.1,-0.20112,0.56744,9.7878,-0.08178,0.1251,-0.01987,290.27435,0.22941,-2.13285,-0.08178
2018.03.18 18:43:21,30.84,9.96,-19.68,-0.26576,0.85715,9.37119,0.03673,0.06707,0.00823,290.20728,-0.86016,-2.25527,1012.15039
2018.03.18 18:43:21,30.6,9.66,-18.42,-0.2107,1.19953,9.8261,0.09903,-0.00379,0.02594,289.9303,-2.8194,-2.07778,1012.1499
2018.03.18 18:43:21,31.14,9.06,-18.6,-0.3759,0.89306,10.55875,0.22426,0.09394,0.06015,290.19928,-4.38787,-1.88768,0.22426
2018.03.18 18:43:21,31.5,8.28,-19.5,-0.43097,-0.26576,11.87081,-0.09033,-0.07343,0.09131,289.56491,-4.34543,-1.89429,1012.14648
2018.03.18 18:43:22,32.82,8.04,-19.32,-0.97208,-0.2921,9.7016,0.00924,0.11899,0.11574,288.68988,-2.41415,-2.70592,1012.15112
2018.03.18 18:43:22,32.88,7.26,-19.56,-0.8356,-0.27534,9.18683,0.00802,-0.01418,0.12979,287.57077,-0.90916,-3.89752,0.00802
2018.03.18 18:43:22,32.76,6.84,-19.32,-0.90982,0.00479,10.00567,-0.083,-0.01479,-0.02903,286.83984,0.02165,-4.14798,-0.083
2018.03.18 18:43:22,32.64,7.2,-19.02,-1.05588,0.58899,9.35922,-0.02253,0.04691,-0.01865,286.52258,-0.01233,-4.4107,1012.13843
2018.03.18 18:43:22,32.28,7.2,-18.66,-1.01278,0.90504,10.31693,-0.12637,0.07012,-0.00093,286.08853,-0.74136,-5.05178,-0.12637
2018.03.18 18:43:22,32.64,5.82,-18.42,-0.73504,1.27375,9.88357,0.14485,0.03713,0.0406,285.66962,-2.7953,-5.07768,0.14485
2018.03.18 18:43:22,33.3,5.28,-18.84,-0.73025,1.09897,10.71438,0.06238,0.13243,0.1078,285.00446,-4.69483,-4.96615,0.06238
2018.03.18 18:43:22,33,5.4,-18.66,-0.88349,-0.28013,10.54678,-0.23633,-0.0887,-0.12922,284.86447,-3.968,-4.95109,-0.23633
2018.03.18 18:43:22,32.04,5.64,-17.16,0.38308,-0.55547,10.18046,-0.17524,-0.18766,-0.0156,284.76428,-2.54799,-4.14329,-0.17524
2018.03.18 18:43:23,32.88,4.8,-19.8,-0.42618,-0.31126,9.33528,-0.02497,-0.05755,-0.32164,285.74689,-1.8356,-3.20712,1012.13208
2018.03.18 18:43:23,32.82,6.18,-18.66,-0.4166,0.2083,9.58668,-0.00298,-0.06855,-0.09501,286.21509,-1.37773,-2.57753,1012.12964
2018.03.18 18:43:23,31.38,6.12,-19.32,-0.64406,0.47407,9.86681,-0.03047,0.03103,-0.16831,286.28009,-1.38613,-2.28677,-0.03047
2018.03.18 18:43:23,31.8,6.06,-19.2,-0.45252,1.37192,9.55555,0.09965,0.04263,0.09375,286.07059,-2.0702,-2.56248,0.09965
2018.03.18 18:43:23,32.4,4.5,-18.54,-0.20112,1.34558,10.51326,0.08254,0.02003,0.13651,284.91794,-4.60337,-2.66592,1012.13428
2018.03.18 18:43:23,31.92,3.48,-19.26,-0.32802,0.63688,11.6697,-0.12332,0.02492,0.13223,283.66977,-5.48593,-2.74876,-0.12332
2018.03.18 18:43:23,31.68,4.08,-18.9,-0.69195,-0.15802,9.17247,0.27374,-0.10092,0.03205,283.42236,-4.91541,-2.78949,0.27374
2018.03.18 18:43:23,31.86,3.12,-18.18,-1.28573,-0.9601,9.54358,-0.06162,0.03774,0.03511,282.76404,-2.84218,-3.69661,-0.06162
2018.03.18 18:43:23,31.14,2.94,-18.72,-0.75899,-0.18436,9.51964,-0.07689,-0.05266,0.12429,281.49762,0.35012,-4.70981,-0.07689
2018.03.18 18:43:23,32.04,2.16,-18.96,-0.59378,0.51716,9.34725,-0.10316,0.02797,0.11635,279.91095,0.63011,-4.92919,-0.10316
2018.03.18 18:43:24,31.26,1.92,-18.12,-0.90982,1.05109,9.89554,-0.10622,0.10922,0.01861,279.08722,-0.49854,-4.98041,-0.10622
2018.03.18 18:43:24,32.52,1.86,-17.88,-0.56265,1.36474,10.42946,0.14851,-0.01723,0.00395,278.63239,-3.15048,-4.72617,0.14851
2018.03.18 18:43:24,31.44,2.04,-18.3,-0.09338,1.0032,10.73353,0.0355,-0.20477,-0.23245,278.79694,-5.2435,-3.39573,0.18028
2018.03.18 18:43:24,30.48,3.3,-19.2,-0.99362,-0.55068,11.07592,-0.20518,-0.05205,-0.30698,280.27832,-4.17806,-2.63999,-0.20518
2018.03.18 18:43:24,31.02,2.76,-18.72,0.27774,-0.53871,9.55316,0.13263,-0.01174,-0.03331,280.13266,-3.55,-2.41541,0.13263
2018.03.18 18:43:24,30.96,3.36,-19.68,-0.56026,-0.54111,10.02243,-0.10072,0.01392,-0.17076,280.73038,-0.8786,-1.9379,-0.10072
2018.03.18 18:43:24,30,2.88,-19.62,-0.11493,0.3759,9.27542,0.02512,-0.00257,0.0571,280.23764,-0.23828,-2.22932,0.02512
2018.03.18 18:43:24,30.24,2.82,-18.78,-0.1245,0.65843,9.32331,-0.03902,0.06523,-0.02231,279.82849,-0.65121,-1.81976,1012.14893
2018.03.18 18:43:24,30.18,2.58,-18.6,-0.54111,1.1301,10.14933,-0.06223,0.02186,-0.0101,279.57153,-1.9071,-1.86029,1012.14795
2018.03.18 18:43:25,28.86,3.18,-18.96,-0.78772,1.04151,10.94423,0.0294,0.03469,0.10475,279.03128,-3.41288,-2.47669,0.0294
2018.03.18 18:43:25,30.12,2.28,-18.48,-0.55308,0.27055,11.93307,-0.21862,0.07562,0.16889,277.78088,-3.42432,-3.20157,-0.21862
2018.03.18 18:43:25,29.76,1.74,-18.36,-0.03113,-0.21309,9.71597,0.03123,-0.00746,0.17438,276.69485,-3.20048,-3.03225,1012.14624
2018.03.18 18:43:25,29.94,1.02,-19.08,-1.0439,-0.40942,8.6577,0.05688,0.03469,-0.05408,276.41098,-3.14495,-2.96121,0.05688
2018.03.18 18:43:25,29.1,1.44,-18.96,-1.06066,-0.22985,10.12539,-0.09644,0.00415,0.02778,276.22128,-0.39411,-3.83545,-0.09644
2018.03.18 18:43:25,29.88,1.74,-18.9,-0.78772,0.64406,9.10543,0.00863,0.01759,0.09314,275.48459,-0.34848,-4.35595,0.00863
2018.03.18 18:43:25,29.82,1.2,-19.62,-0.64167,1.14446,9.534,-0.08545,0.09272,-0.02476,274.95013,-1.52423,-4.7797,-0.08545
2018.03.18 18:43:25,29.4,1.38,-19.92,-0.7925,1.2977,10.11102,0.08987,-0.02884,-0.01804,275.00739,-3.12066,-4.93912,0.08987
2018.03.18 18:43:25,29.1,0.9,-19.32,-0.81884,0.92658,10.791,0.06727,-0.09787,0.02778,275.06433,-4.6791,-4.43166,0.06727
2018.03.18 18:43:26,30,1.32,-20.16,-0.72068,-0.83321,11.4159,-0.07506,-0.05938,-0.10295,275.35397,-3.50514,-3.86493,-0.07506
2018.03.18 18:43:26,28.08,1.8,-19.38,0.38308,-0.17957,9.13176,0.19861,0.05546,-0.05713,275.46167,-0.49287,-2.46561,0.19861
2018.03.18 18:43:26,29.22,2.04,-20.28,-0.63688,-0.14845,9.54119,0.0636,0.02553,-0.24284,276.45184,-0.156,-1.61129,0.0636
2018.03.18 18:43:26,28.44,3.12,-21.18,-0.78293,0.45731,8.71037,0.08865,0.04935,-0.02231,276.97772,-0.54162,-2.22566,0.08865
2018.03.18 18:43:26,29.4,2.22,-20.82,-0.14845,0.72786,9.22035,-0.02741,0.01026,0.05771,276.46616,-1.16453,-2.61675,1012.14233
2018.03.18 18:43:26,29.4,2.46,-21.3,-0.51477,1.44375,9.96258,0.01474,0.05057,0.03511,276.25732,-2.05987,-2.65888,1012.13672
2018.03.18 18:43:26,28.62,2.16,-21.42,-0.33041,1.0894,10.98733,0.07155,0.02553,0.07115,276.03989,-4.32359,-2.43469,1012.14526
2018.03.18 18:43:26,28.56,1.8,-21.18,-0.1652,0.0407,12.36403,-0.17769,0.05851,0.0852,275.71533,-4.58996,-2.25638,1012.14209
2018.03.18 18:43:26,28.32,1.92,-21.66,-0.74462,-0.1652,9.55316,0.19433,0.04874,-0.04553,276.10547,-3.50949,-2.37577,1012.14624
2018.03.18 18:43:26,28.86,1.98,-21.36,-1.24742,-0.24422,8.87558,-0.05307,-0.06793,-0.07851,276.66211,-1.99904,-3.1306,-0.05307
2018.03.18 18:43:27,28.62,1.8,-21.18,-0.86194,0.40942,9.39753,0.00985,-0.10947,0.25319,275.99991,-0.25235,-3.94709,0.00985
2018.03.18 18:43:27,27.72,1.44,-23.1,-0.39984,0.90743,9.86681,0.01046,-0.14185,0.17805,274.55243,-0.46332,-3.72096,1012.14868
2018.03.18 18:43:27,27.36,0.42,-22.5,-0.57463,1.33122,9.80695,0.08376,0.09639,-0.0498,274.53714,-2.31556,-3.99025,0.08376
2018.03.18 18:43:27,28.08,0.48,-22.08,-0.53153,1.14207,10.35524,0.18028,0.00964,-0.08646,275.00305,-4.91826,-3.92076,0.18028
2018.03.18 18:43:27,26.7,1.08,-22.5,-0.26576,0.22267,11.15971,-0.05368,-0.10092,-0.20191,275.96664,-5.61712,-3.38394,-0.05368
2018.03.18 18:43:27,26.52,1.62,-22.8,-0.27534,-0.2921,9.75428,-0.094,0.02492,-0.15243,277.64563,-4.20017,-3.57251,-0.094
2018.03.18 18:43:27,26.64,2.88,-22.8,-0.57941,-0.6273,10.0799,-0.23083,0.13243,-0.18725,278.56235,-2.71314,-3.47063,-0.23083
2018.03.18 18:43:27,25.8,2.28,-23.34,-0.77575,0.15563,9.23472,-0.03291,-0.0606,0.03755,278.34982,-1.43922,-3.36014,1012.14819
2018.03.18 18:43:27,25.02,1.8,-22.74,-0.0431,0.52195,9.65611,-0.04696,0.03225,0.15178,277.27875,-1.11825,-3.44937,1012.14404
2018.03.18 18:43:28,25.02,1.86,-21.12,-0.32083,1.0894,9.7016,-0.0323,0.03591,0.11391,276.57803,-1.66192,-3.36924,1012.14868
2018.03.18 18:43:28,24.48,1.62,-21.54,-0.1245,1.72388,10.01765,0.05811,-0.00807,0.02167,275.94431,-4.27793,-2.82098,0.05811
2018.03.18 18:43:28,23.4,1.56,-21.06,-0.72547,1.1301,11.06634,0.15523,0.08539,0.00701,276.24884,-6.31466,-2.31759,1012.13623
2018.03.18 18:43:28,23.22,1.56,-22.62,0.0838,0.40463,11.66251,0.04161,0.01392,0.18599,275.73993,-7.07841,-1.51012,1012.1355
2018.03.18 18:43:28,23.46,1.14,-22.98,-1.18756,0.21548,8.5715,0.32567,-0.01357,0.00823,276.32584,-7.29217,-1.53991,0.32567
2018.03.18 18:43:28,22.86,0.42,-22.92,-1.11573,-0.01197,9.59865,-0.14653,-0.05511,0.164,276.21246,-3.85542,-4.28276,-0.14653
2018.03.18 18:43:28,22.8,1.02,-23.04,-0.50998,0.74223,9.26584,0.02207,0.09517,0.15728,274.95966,-2.91584,-4.53896,0.02207
2018.03.18 18:43:28,22.74,1.02,-23.22,-0.49083,1.0056,9.25627,0.03673,-0.02762,0.12674,274.3963,-3.28842,-4.45505,0.03673
2018.03.18 18:43:28,22.74,1.5,-23.34,-0.48843,1.24742,9.69681,-0.0433,-0.01662,-0.01987,274.66492,-3.68332,-4.28146,-0.0433
2018.03.18 18:43:29,22.68,1.2,-24.3,-0.47167,1.30488,10.00807,0.04406,-0.08443,-0.05041,275.32794,-4.79668,-3.93766,0.04406
2018.03.18 18:43:29,22.14,2.88,-24.72,-0.3759,0.14845,11.56914,-0.16119,-0.08932,-0.23856,276.89545,-5.23714,-2.51903,1012.15186
2018.03.18 18:43:29,21.3,3.72,-24.3,-0.15563,-0.41182,10.19482,-0.12699,-0.09848,-0.20252,278.44315,-4.34615,-1.96497,-0.12699
2018.03.18 18:43:29,21.96,4.02,-25.26,-0.03591,-0.35675,9.70878,0.02084,-0.08626,-0.14632,279.94519,-3.17454,-1.36732,1012.14746
2018.03.18 18:43:29,22.26,4.2,-25.92,-0.49561,0.41182,9.25627,-0.05368,0.01453,-0.08401,280.88712,-1.449,-1.48378,1012.14966
2018.03.18 18:43:29,22.74,5.34,-25.74,0.30168,0.73265,9.42626,0.00985,-0.00807,0.08092,280.91434,-1.57968,-1.6169,1012.14868
2018.03.18 18:43:29,22.92,5.88,-25.2,-0.1652,1.26418,9.54358,0.03001,0.08234,-0.04186,281.63049,-2.18361,-1.31452,0.03001
2018.03.18 18:43:29,22.08,6.36,-24.96,-0.19394,1.51558,10.22834,0.00069,0.03041,-0.06935,282.81396,-4.53367,-1.30955,1012.14258
2018.03.18 18:43:29,23.7,6.6,-25.14,-0.64645,1.51797,10.48453,0.12836,0.04813,0.0125,283.84412,-6.28044,-1.66345,1012.14526
2018.03.18 18:43:29,23.7,6.6,-25.68,-0.56744,0.01437,11.6266,-0.18074,0.08722,0.13162,283.94397,-5.7086,-1.92356,-0.18074
2018.03.18 18:43:30,23.94,7.68,-24.72,-0.39266,-0.47407,9.55555,0.16501,-0.00746,0.27701,283.69547,-3.83765,-2.23916,0.16501
2018.03.18 18:43:30,25.08,6.54,-25.02,-0.72068,-0.17239,8.72234,0.08315,0.01575,0.15239,283.42868,-3.70144,-2.32908,1012.14087
2018.03.18 18:43:30,25.26,6.3,-25.32,-0.65364,0.32802,9.70639,-0.10683,0.02553,-0.02415,283.97354,-1.70717,-3.03144,-0.10683
2018.03.18 18:43:30,26.28,7.62,-24.66,-0.73265,0.82124,9.45499,-0.04269,0.05546,0.02167,284.60175,-1.16915,-3.84223,-0.04269
2018.03.18 18:43:30,26.4,7.92,-23.7,-0.69434,1.22587,9.57231,0.052,0.07623,0.05893,284.97626,-2.0642,-4.37778,0.052
2018.03.18 18:43:30,26.7,8.04,-24.42,-0.51237,1.43178,9.75428,0.16379,-0.00807,0.02228,285.38885,-4.37152,-4.29587,0.16379
2018.03.18 18:43:30,26.82,7.02,-25.26,-0.39745,0.59857,10.64973,0.0801,-0.16079,-0.11333,286.42566,-5.53139,-3.35331,0.0801
2018.03.18 18:43:30,25.8,8.28,-24.84,-0.76617,-0.4621,11.459,-0.33468,-0.05266,-0.29415,288.36185,-3.7984,-2.75531,-0.33468
2018.03.18 18:43:30,26.34,9.12,-25.2,0.5842,-0.04549,9.47893,0.09965,-0.04106,0.02778,288.9003,-3.21308,-2.14892,1012.14722
2018.03.18 18:43:31,26.1,8.76,-24.96,-0.45491,0.13887,9.52921,0.03734,0.01331,-0.11456,290.04224,-1.75042,-1.61741,1012.14941
2018.03.18 18:43:31,27.36,9.36,-25.26,-0.15084,0.70871,9.23232,0.04589,0.03774,0.01861,290.21088,-1.95179,-2.13498,0.04589
2018.03.18 18:43:31,28.14,9.18,-24.48,-0.2514,0.84997,9.51964,0.03612,0.07012,-0.0437,290.56967,-2.58194,-2.43614,1012.14624
2018.03.18 18:43:31,28.44,8.88,-24,-0.48125,1.36474,9.95779,0.0575,0.10616,-0.03453,291.1474,-3.84517,-2.78848,1012.14258
2018.03.18 18:43:31,28.5,8.64,-23.58,-0.40942,0.92419,11.07592,0.05933,-0.00624,0.10169,291.25031,-5.24158,-2.884,0.05933
2018.03.18 18:43:31,29.46,8.64,-24.3,-0.42139,-0.10535,11.56435,-0.14042,0.0463,-0.00949,290.69421,-4.28079,-2.3891,-0.14042
2018.03.18 18:43:31,29.28,8.16,-24.42,-0.84757,-0.15563,9.40232,0.08376,-0.14918,0.07176,290.32199,-3.07762,-2.41312,1012.14087
2018.03.18 18:43:31,30.42,7.56,-24,-0.65124,-0.28252,9.66569,-0.01092,-0.07465,0.07909,289.64804,-1.32307,-3.05606,-0.01092
2018.03.18 18:43:31,29.82,7.44,-24.42,-0.46928,0.36154,9.56752,-0.04085,-0.03189,0.07298,288.69272,-0.18665,-2.84012,-0.04085
2018.03.18 18:43:32,30.06,7.5,-24.6,-0.51716,0.81645,9.38556,-0.01764,0.02125,0.00212,288.05899,-0.75661,-2.90255,-0.01764
2018.03.18 18:43:32,29.88,7.2,-24.6,-0.75899,1.28812,9.96018,0.08621,0.09394,-0.06691,288.04108,-2.32614,-3.30509,0.08621
2018.03.18 18:43:32,30.18,7.08,-24.12,-0.62012,1.2977,10.00567,0.1082,0.06707,-0.08523,288.41754,-4.6667,-3.55221,0.1082
2018.03.18 18:43:32,30.42,7.56,-24.66,-0.78772,0.35435,11.55477,-0.06895,-0.12352,-0.1622,289.13116,-5.00175,-2.97146,-0.06895
2018.03.18 18:43:32,30.18,7.68,-25.68,-0.74701,-0.18915,10.32411,-0.19907,-0.049,0.06321,289.34418,-3.57178,-3.30718,-0.19907
2018.03.18 18:43:32,30.12,7.26,-25.38,-0.03352,-0.40224,10.18046,-0.04574,0.03225,-0.09073,288.68256,-1.09871,-2.21769,1012.15869
2018.03.18 18:43:32,30.06,8.4,-24.66,-0.17239,0.05028,9.00487,0.03673,0.03225,-0.05286,288.77982,-0.32805,-1.69024,1012.1543
2018.03.18 18:43:32,31.32,8.52,-25.02,-0.22506,0.52195,9.38795,-0.00542,0.00537,-0.02537,288.49512,-0.32586,-1.71802,1012.16016
2018.03.18 18:43:32,30.78,8.4,-24.9,-0.16281,0.88109,9.29218,0.00069,-0.01479,0.07481,287.84229,-0.83927,-1.71803,1012.15186
2018.03.18 18:43:32,30.78,8.4,-24.66,-0.29689,1.35516,9.96976,0.13508,0.07256,0.14018,287.38577,-2.28635,-1.78933,0.13508
2018.03.18 18:43:33,31.44,8.7,-24.24,-0.13408,1.39107,10.37679,0.14241,0.02553,0.13162,286.77066,-4.59017,-1.73562,1012.15332
2018.03.18 18:43:33,31.86,7.8,-24,-0.38787,-0.40224,12.92908,-0.23938,-0.00929,0.04977,286.49753,-4.30335,-1.90347,1012.15186
2018.03.18 18:43:33,31.86,8.04,-23.88,-0.34238,-0.40463,9.01205,0.2713,-0.03861,0.10902,286.11795,-3.29892,-1.91235,0.2713
2018.03.18 18:43:33,32.64,8.16,-24.48,-0.78532,-0.39027,9.64653,-0.04146,0.03103,-0.04919,286.15558,-0.87991,-2.33322,-0.04146
2018.03.18 18:43:33,33.42,8.1,-23.7,-0.89067,0.2514,8.92107,0.02451,0.03652,0.09253,285.80188,-0.07385,-3.24934,0.02451
2018.03.18 18:43:33,33.72,7.86,-23.46,-0.92658,0.52195,9.45978,-0.00909,-0.02701,0.1023,285.10498,-0.32649,-3.68769,-0.00909
2018.03.18 18:43:33,33.54,7.68,-24.54,-0.86433,0.90025,10.26904,-0.12088,0.02064,0.0626,284.59784,-0.83446,-4.3033,-0.12088
2018.03.18 18:43:33,34.38,7.98,-23.58,-0.4166,1.51797,10.38636,0.08437,-0.00868,0.00884,284.41318,-3.21433,-4.33841,0.08437
2018.03.18 18:43:33,34.68,7.5,-24.66,-0.35196,1.26897,10.45819,0.19799,-0.09603,-0.10112,285.01782,-5.73939,-3.39916,0.19799
2018.03.18 18:43:34,34.8,8.52,-23.7,-0.90264,-0.11493,10.0775,-0.05002,0.02431,-0.06263,286.38928,-5.10032,-2.95531,-0.05002
2018.03.18 18:43:34,34.92,9,-24.48,0.26098,-0.28492,9.52682,0.05261,-0.11925,0.04916,286.39209,-3.36768,-2.19687,1012.14307
2018.03.18 18:43:34,35.94,8.94,-24.66,-0.40463,-0.05028,9.90033,-0.03658,0.06951,-0.1622,287.17615,-1.59585,-2.00173,1012.13867
2018.03.18 18:43:34,36.06,10.32,-24.12,-0.34717,0.53632,9.1988,-0.01153,0.07256,-0.04247,287.57965,-1.27467,-2.5513,-0.01153
2018.03.18 18:43:34,37.2,10.2,-23.94,-0.60096,0.9625,9.31612,-0.0549,0.09639,-0.03881,287.81232,-1.53807,-2.87943,-0.0549
2018.03.18 18:43:34,37.08,10.68,-22.38,-0.8356,1.57783,9.75667,-0.10316,0.06401,0.00762,287.99408,-3.07745,-3.5338,1012.13037
2018.03.18 18:43:34,38.52,10.02,-23.04,-0.54829,1.30727,10.34087,0.0917,-0.01357,0.21837,287.11075,-5.57959,-3.71303,0.0917
2018.03.18 18:43:34,39.54,9,-23.22,-0.55308,0.1269,11.94264,-0.229,0.0072,0.11818,286.02924,-5.33177,-3.503,-0.229
2018.03.18 18:43:34,40.5,8.46,-22.8,-0.74223,-0.47407,9.75667,0.17661,0.03225,0.21287,285.22241,-4.61847,-3.26074,0.17661
2018.03.18 18:43:34,40.8,8.46,-23.7,-0.9194,-0.52674,9.57471,-0.10133,-0.08748,0.01983,284.52191,-3.93399,-3.31833,-0.10133
2018.03.18 18:43:35,41.28,8.34,-23.64,-0.73983,0.19154,9.18923,-0.07262,-0.00379,0.0626,284.09387,-0.83654,-3.96916,-0.07262
2018.03.18 18:43:35,42.06,8.76,-24.36,-0.64645,0.82363,8.97853,-0.13615,-0.0154,0.08153,283.41254,-0.57468,-4.05973,-0.13615
2018.03.18 18:43:35,42.54,9,-24,-1.15883,1.0439,10.5396,-0.14775,0.11044,-0.04614,283.42786,-1.02035,-4.3475,-0.14775
2018.03.18 18:43:35,42.84,9.6,-23.82,-0.95532,1.2953,10.52763,0.18639,-0.0209,0.07054,283.47791,-3.10716,-4.87507,0.18639
2018.03.18 18:43:35,43.2,8.22,-24.12,-0.22985,0.06465,11.0831,-0.05368,-0.19011,-0.07179,283.29715,-5.10177,-4.10822,1012.13208
2018.03.18 18:43:35,42.9,9.66,-25.32,-0.2921,-0.62012,11.13098,-0.04391,-0.09726,-0.06141,283.987,-4.21638,-3.28026,1012.13232
2018.03.18 18:43:35,43.08,9,-26.58,0.55068,-0.03831,8.44221,0.31895,0.07073,0.01373,284.12128,-2.89983,-2.88365,1012.1355
2018.03.18 18:43:35,43.02,9.78,-26.16,-0.5866,-0.27295,9.69921,-0.06773,0.14281,-0.37112,285.78979,-1.62278,-2.37862,1012.13794
2018.03.18 18:43:35,42.78,11.28,-25.32,-0.37111,0.44055,8.91149,-0.01459,0.05668,-0.17686,286.79462,-1.28531,-2.83892,1012.14331
2018.03.18 18:43:36,42.54,11.94,-26.04,-0.60815,1.05109,9.41189,-0.06834,-0.04961,-0.13349,287.39944,-1.06168,-2.72177,1012.14453
2018.03.18 18:43:36,42.9,12,-25.26,-0.60575,1.71909,9.69681,0.09537,0.03713,0.10719,287.27228,-3.60398,-3.3305,1012.13232
2018.03.18 18:43:36,43.8,10.44,-27,-0.23703,1.13249,11.13817,0.17478,0.03347,0.15423,286.50583,-5.80532,-2.80024,0.17478
2018.03.18 18:43:36,43.56,9.84,-26.94,-0.80926,-0.69434,11.84687,-0.09217,0.13976,-0.10845,286.41833,-5.19556,-2.99516,-0.09217
2018.03.18 18:43:36,44.1,10.02,-26.46,-0.76138,-0.5028,8.63854,0.04345,0.09639,0.00945,286.62326,-2.41782,-3.94775,1012.14429
2018.03.18 18:43:36,44.28,9.48,-25.8,-1.23545,-0.60336,9.84286,-0.10927,-0.05511,-0.05041,286.75208,0.92127,-5.26722,-0.10927
2018.03.18 18:43:36,43.8,9.24,-27.36,-0.99841,0.05028,8.62178,-0.00115,0.02614,0.07726,285.80417,1.67878,-5.71849,-0.00115
2018.03.18 18:43:36,44.7,9.54,-26.58,-0.81645,0.51237,9.27781,-0.15753,0.00109,0.16217,284.73517,2.08702,-6.15516,-0.15753
2018.03.18 18:43:36,45.18,8.28,-26.94,-0.61293,1.21629,10.07271,-0.03169,-0.01112,0.12674,283.42081,1.3726,-6.12317,-0.03169
2018.03.18 18:43:37,45.06,8.04,-27.42,-0.5004,1.0056,10.53241,0.04894,-0.0435,0.06504,282.85513,-1.95895,-4.79818,0.04894
2018.03.18 18:43:37,44.34,8.1,-27.6,-0.06943,-0.06225,11.81335,-0.06101,-0.20904,-0.01193,282.87726,-2.71639,-3.35914,-0.06101
2018.03.18 18:43:37,44.22,8.1,-28.62,-0.4166,-1.03672,10.2044,0.05811,0.00964,-0.16159,283.61502,-1.78273,-2.50853,1012.14014
2018.03.18 18:43:37,45,7.56,-28.8,-0.76138,-0.65603,9.11022,0.12286,0.09517,-0.17686,284.18552,-1.79159,-2.69213,1012.14551
2018.03.18 18:43:37,45.9,7.02,-29.22,-0.92898,-0.19394,9.37359,0.06422,0.04813,-0.09867,284.5213,-1.36538,-3.38346,1012.1416
2018.03.18 18:43:37,45.42,7.26,-28.38,-0.61293,0.48364,9.704,0.0856,0.16786,0.00884,284.15326,-1.15444,-4.54263,1012.13989
2018.03.18 18:43:37,45.96,5.7,-28.08,-0.80208,0.74462,9.69442,-0.0378,0.07073,0.03633,283.50977,-1.8252,-4.95031,1012.1394
2018.03.18 18:43:37,45,5.7,-27.78,-0.54111,1.29051,9.96737,0.02817,-0.01601,0.14445,282.27255,-3.41773,-4.37375,0.02817
2018.03.18 18:43:37,46.2,3.66,-29.1,-0.89067,0.54589,10.89634,-0.01275,0.00231,0.25685,280.29343,-4.67708,-3.79621,-0.01275
2018.03.18 18:43:37,45.66,2.46,-29.1,-1.15165,-0.72547,12.2515,-0.30353,-0.0209,0.12063,278.89178,-3.63642,-3.67477,1012.14453
2018.03.18 18:43:38,45.36,1.26,-29.64,-0.38787,-0.13408,8.51404,0.17112,0.03041,0.15789,277.41223,-3.83693,-3.61203,0.17112
2018.03.18 18:43:38,46.74,0.24,-29.94,-1.13967,-0.34238,9.60583,-0.06284,0.00659,-0.06935,277.5296,-2.34074,-4.34466,-0.06284
2018.03.18 18:43:38,47.1,0.48,-28.5,-0.94334,0.18436,9.66569,0.15218,0.06768,-0.0101,277.25052,-1.03078,-5.64466,0.15218
2018.03.18 18:43:38,45.96,-0.3,-29.16,-0.88109,0.67519,8.88755,0.15829,0.10677,-0.03759,276.9472,-1.75847,-6.07547,0.15829
2018.03.18 18:43:38,46.8,-0.06,-29.16,-1.06785,0.838,9.93145,-0.02741,-0.03739,-0.10295,276.95514,-2.36111,-5.85103,-0.02741
2018.03.18 18:43:38,46.32,-0.18,-29.52,-0.90025,1.35037,9.92188,0.03917,-0.08137,-0.01254,276.60892,-3.95557,-5.55473,0.03917
2018.03.18 18:43:38,45.6,-0.06,-29.94,-0.77814,1.10137,10.76945,-0.14592,-0.18583,-0.01804,276.24207,-5.03947,-4.53806,-0.14592
2018.03.18 18:43:38,45.12,0,-31.86,-0.65124,-0.35435,11.63618,-0.15081,-0.2683,0.0571,275.97482,-3.53944,-3.53861,-0.15081
2018.03.18 18:43:38,44.64,-0.06,-32.76,-0.02873,-0.02634,9.7016,0.05994,-0.08076,0.01189,275.56079,-3.34608,-2.8463,1012.15234
2018.03.18 18:43:39,45.48,0.78,-33.06,-0.36872,0.24422,9.67526,0.01474,0.00048,-0.1506,276.24899,-2.95215,-2.98339,1012.15356
2018.03.18 18:43:39,44.7,1.02,-32.88,-0.55787,0.66082,9.33767,0.09537,0.10372,-0.08707,276.66907,-3.06036,-3.35697,1012.1604
2018.03.18 18:43:39,44.4,0.54,-32.04,-0.63209,1.06066,8.96656,0.041,0.05241,-0.03514,276.74683,-3.75648,-3.86931,0.041
2018.03.18 18:43:39,44.22,0.84,-32.1,-0.63209,1.65684,9.93863,0.0801,0.00231,0.10352,276.245,-5.03967,-3.78195,1012.16113
2018.03.18 18:43:39,43.8,-0.36,-33.78,-0.27055,1.51318,10.73353,0.05933,-0.09237,0.12613,275.44553,-6.82206,-3.04965,1012.16479
2018.03.18 18:43:39,43.92,0.54,-32.82,-0.07183,0.53153,12.02644,-0.23328,0.09822,0.06626,275.07465,-6.64295,-3.2769,-0.23328
2018.03.18 18:43:39,42.78,0.24,-33.06,-0.65603,-0.56265,9.87399,0.22243,-0.11131,-0.04125,275.32404,-3.9074,-2.65287,0.22243
2018.03.18 18:43:39,42.84,0.48,-34.8,-1.3815,-0.40703,9.49809,-0.00909,0.09944,-0.06141,275.41638,-2.09592,-3.69749,1012.15283
2018.03.18 18:43:39,42.48,0.48,-34.08,-0.838,0.20351,8.54038,0.04894,0.07073,0.10352,274.63318,-0.16838,-5.1894,0.04894
2018.03.18 18:43:40,41.76,-0.36,-33.66,-0.47885,0.56744,9.35922,-0.03047,-0.01174,0.21531,272.99847,-0.33265,-5.23988,-0.03047
2018.03.18 18:43:40,40.98,-1.86,-34.68,-0.51237,1.20911,9.05754,0.06055,0.03958,0.00945,272.13632,-1.78564,-4.51615,0.06055
2018.03.18 18:43:40,40.62,-1.5,-33.72,-0.92898,2.05189,9.6609,0.08254,0.01636,-0.06691,272.41653,-4.84646,-4.32958,0.08254
2018.03.18 18:43:40,39,-0.84,-34.86,-0.00239,1.2139,11.94743,0.00069,-0.16018,-0.00643,272.7851,-7.33184,-3.56288,0.00069
2018.03.18 18:43:40,37.62,0.12,-34.98,-0.98644,-0.13169,10.73593,-0.25527,-0.08015,-0.07485,273.38928,-6.44875,-2.59796,-0.25527
2018.03.18 18:43:40,36.72,0.12,-35.28,0.20351,-1.55149,13.07035,-0.38294,-0.13574,-0.12983,273.40707,-3.69798,-2.00459,-0.38294
2018.03.18 18:43:40,36.42,1.74,-35.22,0.26816,-0.38787,9.68724,0.0239,0.02736,-0.25689,274.57355,-2.03519,-2.36577,0.0239
2018.03.18 18:43:40,35.52,2.94,-33.66,-0.20591,0.19872,8.61699,0.17234,0.10433,-0.29415,276.58246,-2.05512,-2.52319,1012.15112
2018.03.18 18:43:40,35.82,2.64,-34.02,-0.66561,0.46688,9.11979,-0.00115,-0.03312,-0.20191,278.00137,-2.03148,-2.54792,1012.14722
2018.03.18 18:43:40,34.62,3.24,-33.54,-0.35196,1.07024,9.32091,0.07093,0.00964,-0.01132,278.0914,-2.36875,-2.31751,0.07093
2018.03.18 18:43:41,34.02,3.42,-33.48,-0.03352,0.9625,10.2882,0.17417,0.01148,0.05343,277.99921,-4.29706,-2.05013,0.17417
2018.03.18 18:43:41,33.66,1.8,-32.94,-0.34956,0.56505,10.33369,0.12164,0.12143,0.12674,277.37759,-5.02371,-2.144,1012.14111
2018.03.18 18:43:41,33.66,1.8,-32.58,-0.60815,-0.55308,11.39435,-0.21556,0.06707,0.08336,276.55258,-3.31499,-2.40301,-0.21556
2018.03.18 18:43:41,33.96,0.96,-32.28,-0.98405,-0.48125,8.47813,0.322,-0.05022,0.11452,275.98666,-3.76347,-2.70839,0.322
2018.03.18 18:43:41,33.9,-0.18,-32.82,-0.74462,-0.25619,8.67685,-0.00298,-0.05572,0.16033,275.00684,-3.63781,-2.73338,-0.00298
2018.03.18 18:43:41,33.3,0.18,-32.22,-0.97926,0.19633,9.15571,-0.01214,0.02186,0.13834,274.1752,-2.05826,-3.14177,-0.01214
2018.03.18 18:43:41,33.6,-0.3,-32.22,-0.52435,0.7949,10.03201,-0.19968,0.05913,0.1695,272.80093,-1.35339,-4.00598,-0.19968
2018.03.18 18:43:41,33.54,-0.36,-31.74,-0.57941,1.23545,10.17327,-0.08545,0.07317,0.06076,272.10834,-1.55902,-4.26838,-0.08545
2018.03.18 18:43:41,33.24,-0.72,-32.22,-0.38548,1.32882,10.32172,0.1534,0.02736,0.07848,271.85834,-4.36069,-3.9019,1012.14648
2018.03.18 18:43:42,33.36,-0.84,-32.52,-0.01676,0.36872,11.46139,-0.00481,-0.11253,-0.15365,272.44257,-5.71323,-2.79398,1012.14355
2018.03.18 18:43:42,33.96,1.32,-33,-0.36154,-0.28971,10.57312,-0.10377,-0.08504,-0.16892,274.55814,-4.28415,-2.77401,1012.14185
2018.03.18 18:43:42,33.3,2.4,-33,-0.55068,-0.05507,9.41668,0.05383,0.04385,-0.21352,275.73517,-4.08985,-2.95866,0.05383
2018.03.18 18:43:42,32.52,2.82,-33.18,-0.64885,0.11732,10.00567,-0.07567,-0.00563,-0.13899,276.78763,-2.62961,-2.90735,1012.1438
2018.03.18 18:43:42,33.24,3.12,-32.34,0.1676,0.79011,9.1174,0.03062,-0.1052,0.10047,276.58475,-2.63937,-2.52365,1012.14551
2018.03.18 18:43:42,33.24,4.5,-33.06,-0.26098,0.97447,9.72794,-0.0323,-0.03006,-0.04614,277.0936,-2.66475,-2.12779,-0.0323
2018.03.18 18:43:42,33.12,4.38,-32.64,-0.53871,1.49882,9.66569,0.11736,0.02553,0.09925,277.18594,-4.44315,-2.16851,0.11736
2018.03.18 18:43:42,33.42,3.72,-32.94,-0.64885,0.92658,10.43664,0.05322,0.00598,0.14018,276.9808,-5.42252,-2.43286,1012.13477
2018.03.18 18:43:42,33.48,4.26,-32.58,-0.27055,-0.36393,12.18207,-0.16791,0.06279,0.00578,277.11282,-3.89887,-2.61829,-0.16791
2018.03.18 18:43:43,34.32,5.16,-32.64,-0.92898,-0.73265,8.86361,0.28229,-0.01479,-0.04186,277.8598,-2.58517,-2.89576,0.28229
2018.03.18 18:43:43,33.9,4.56,-32.46,-0.54589,-0.43097,9.39992,-0.01275,-0.12719,0.13712,277.61795,-2.45089,-2.81239,-0.01275
2018.03.18 18:43:43,34.2,4.8,-33.78,-0.69195,0.15563,9.00726,-0.04391,0.0298,0.09375,277.41672,-0.97064,-3.00881,0.00191
2018.03.18 18:43:43,35.34,5.64,-32.64,-0.3759,0.97208,9.74709,-0.09889,0.1813,0.07359,277.13135,-1.04847,-4.0946,-0.09889
2018.03.18 18:43:43,34.62,5.76,-32.58,-0.59139,1.24502,9.76864,-0.00481,0.12388,-0.01498,277.53131,-2.49629,-4.41545,-0.00481
2018.03.18 18:43:43,35.22,5.82,-32.58,-0.28252,1.40544,10.55636,0.05811,-0.18217,0.05954,278.11008,-4.52822,-3.49325,1012.1333
2018.03.18 18:43:43,34.92,7.14,-32.04,-0.62491,0.03352,11.0424,-0.25527,0.01331,-0.24345,279.2023,-4.55564,-2.64369,1012.13062
2018.03.18 18:43:43,34.68,8.64,-32.64,-0.42139,-0.34717,10.10145,-0.10744,-0.0099,-0.12922,280.87158,-3.19923,-2.74797,1012.12817
2018.03.18 18:43:43,34.92,8.88,-32.76,-0.17239,-0.26098,10.01046,0.03978,0.06584,-0.1115,282.0047,-2.49004,-3.07695,1012.13281
2018.03.18 18:43:43,35.58,9.48,-31.5,-0.44534,0.2514,9.3688,0.03795,0.05424,-0.15121,283.68317,-1.28757,-3.06877,1012.13525
2018.03.18 18:43:44,35.04,10.2,-31.98,-0.08141,0.81166,8.88515,0.04833,-0.03312,-0.06019,284.40637,-1.76859,-2.94579,0.04833
2018.03.18 18:43:44,34.2,11.76,-30.48,-0.45252,1.22347,9.18923,0.12103,0.0634,-0.02659,285.51035,-2.53888,-2.71603,0.12103
2018.03.18 18:43:44,34.86,10.26,-32.28,-0.26816,1.03193,10.57072,0.08682,-0.01357,0.01617,286.14685,-4.47783,-2.77586,0.08682
2018.03.18 18:43:44,34.86,10.14,-31.5,-0.44055,0.78053,10.97775,-0.0378,0.13487,0.02045,287.09406,-4.85535,-3.05106,-0.0378
2018.03.18 18:43:44,35.4,10.92,-30.66,-1.02236,-0.16999,10.2475,0.05139,-0.03434,0.0406,287.3284,-3.44545,-2.69503,0.05139
2018.03.18 18:43:44,35.58,11.04,-30.72,-1.42459,-0.5004,9.8285,-0.14104,-0.0887,-0.00888,287.47485,-1.76351,-3.98926,-0.14104
2018.03.18 18:43:44,35.46,10.38,-32.4,-0.4621,0.26098,9.34007,0.10026,0.05974,0.15178,286.86328,-0.56743,-4.71224,0.10026
2018.03.18 18:43:44,36.06,10.56,-30.18,-0.61293,0.80687,9.06472,0.00863,0.01514,0.07298,286.41138,-1.00736,-4.76979,0.00863
2018.03.18 18:43:44,36.78,9.48,-30.06,-0.84039,0.98884,9.69442,-0.04208,0.06707,-0.04308,286.53775,-1.79688,-4.77771,-0.04208
2018.03.18 18:43:45,36.9,10.14,-29.76,-0.87391,1.26418,10.00089,0.10026,0.02858,-0.01193,287.09406,-3.81054,-5.17683,1012.13428
2018.03.18 18:43:45,36.96,10.38,-29.7,-0.36632,0.23224,11.41111,0.01535,-0.10886,-0.07485,287.54333,-4.94356,-4.4785,0.01535
2018.03.18 18:43:45,37.26,10.56,-29.04,-0.838,-0.80448,10.66171,-0.10438,-0.0887,-0.01193,288.50433,-2.70347,-3.96935,-0.10438
2018.03.18 18:43:45,37.98,11.64,-29.04,0.18196,-0.13408,9.52443,0.04406,-0.06183,0.03572,288.31891,-0.48665,-2.89903,1012.14844
2018.03.18 18:43:45,37.74,11.1,-30.36,-0.68237,-0.06943,9.67048,-0.04024,-0.00746,-0.17686,289.06323,-0.01835,-2.67328,1012.14844
2018.03.18 18:43:45,38.46,12.36,-28.8,-0.39745,0.5866,9.49091,0.03917,0.06218,-0.06874,289.52863,-0.2855,-2.96479,0.03917
2018.03.18 18:43:45,39.18,13.26,-28.38,-0.64406,0.99602,9.22514,0.00618,0.02186,0.01067,289.76361,-1.31486,-3.2989,0.00618
2018.03.18 18:43:45,39.3,12.9,-28.26,-0.48364,1.36474,9.85244,0.04589,0.01392,0.09131,289.39697,-3.23091,-3.41622,0.04589
2018.03.18 18:43:45,40.26,12.6,-28.14,-0.66321,1.05827,10.57551,0.08376,0.01331,0.08092,288.91635,-5.00344,-3.04557,0.08376
2018.03.18 18:43:45,42,13.74,-27.24,-0.7925,-0.34238,11.94743,-0.1899,-0.03495,0.04366,288.85895,-3.73149,-3.14892,-0.1899
2018.03.18 18:43:46,43.32,13.62,-27.66,-0.59139,0.05507,8.42785,0.06727,0.01148,0.12185,288.18118,-3.39784,-2.99306,0.06727
2018.03.18 18:43:46,43.32,13.8,-28.5,-0.85236,-0.30886,9.95061,-0.10072,-0.10459,0.05221,287.99597,-1.8008,-3.22322,-0.10072
2018.03.18 18:43:46,44.94,13.74,-26.64,-0.52674,0.41421,8.98571,-0.0885,0.04935,0.10658,287.57968,-0.57752,-3.94728,-0.0885
2018.03.18 18:43:46,45.84,13.86,-25.38,-0.44294,0.90025,9.04318,-0.16364,0.097,0.03816,287.35071,-0.32649,-4.37859,-0.16364
2018.03.18 18:43:46,46.98,15.36,-25.26,-0.98644,0.56744,10.04159,-0.21312,0.15992,-0.16526,287.84644,-0.78413,-4.28662,-0.21312
2018.03.18 18:43:46,47.4,15.42,-23.94,-0.82124,0.26098,10.93705,0.15646,-0.07404,0.1249,287.95731,-0.95563,-4.31001,1012.1272
2018.03.18 18:43:46,47.76,15.6,-24.42,-0.8787,-0.63688,12.45502,-0.22839,-0.08504,-0.27827,288.99652,-0.62439,-4.08712,1012.12866
2018.03.18 18:43:46,48.12,15.9,-23.22,0.34956,-0.36154,8.62418,0.32261,0.13121,-0.16526,290.4292,-1.54755,-4.80129,1012.13281
2018.03.18 18:43:46,47.1,16.32,-22.86,-0.68237,-0.35914,9.98413,-0.10805,0.0689,-0.263,291.99884,-0.96723,-5.12663,1012.13306
2018.03.18 18:43:47,47.4,16.8,-23.34,-0.39027,0.35914,8.87079,0.17478,-0.07527,0.03083,292.32797,-1.17698,-5.13987,0.17478
2018.03.18 18:43:47,46.2,15.78,-22.68,-0.80687,0.51956,10.62819,-0.05246,-0.1449,-0.08951,292.29321,-1.81179,-4.1678,-0.05246
2018.03.18 18:43:47,44.82,16.56,-22.26,-0.39027,1.56825,9.27303,0.28657,0.05607,0.09192,291.97287,-3.46992,-3.90999,1012.12964
2018.03.18 18:43:47,45.72,14.04,-23.4,-0.62969,1.15643,10.372,0.22121,0.03347,0.0797,291.45477,-4.88054,-3.8275,0.22121
2018.03.18 18:43:47,46.14,13.26,-23.4,-0.96968,-0.249,12.11024,-0.29497,-0.01112,-0.03087,291.12698,-4.22498,-4.30913,-0.29497
2018.03.18 18:43:47,46.2,12.42,-21.96,-1.28573,-0.16999,9.33767,0.00252,-0.10825,-0.01743,290.31793,-3.96445,-4.05425,0.00252
2018.03.18 18:43:47,45.36,11.94,-22.5,-1.48684,-0.26098,9.10064,-0.01214,0.01698,0.03816,289.86578,-1.71136,-5.49959,-0.01214
2018.03.18 18:43:47,45.84,9.78,-22.56,-1.10137,0.13408,9.09346,0.02879,-0.02212,0.20126,288.49384,-0.81743,-6.37696,0.02879
2018.03.18 18:43:47,45.18,9.66,-22.08,-0.69434,0.94574,9.27303,-0.1166,0.00048,0.15117,286.8132,-0.66196,-6.21243,-0.1166
2018.03.18 18:43:48,44.7,9.24,-21.78,-0.70631,1.1708,10.27623,-0.04085,-0.01296,0.06382,285.87869,-1.83229,-5.68539,-0.04085
2018.03.18 18:43:48,44.04,8.46,-21.96,-0.77814,1.18517,10.63776,0.02695,-0.00196,-0.00643,285.54956,-3.78234,-5.02285,0.02695
2018.03.18 18:43:48,42.96,8.16,-22.62,-0.11014,0.3783,10.76227,0.15279,-0.05511,0.02778,285.38055,-5.18444,-4.4504,1012.14478
2018.03.18 18:43:48,41.04,9.24,-23.22,-0.70152,-0.17718,10.15651,-0.01825,-0.1669,-0.07607,286.10547,-3.9704,-3.20253,1012.14063
2018.03.18 18:43:48,40.98,8.76,-24.6,-0.29928,-0.54589,10.32651,-0.08056,-0.04106,-0.14999,286.26123,-3.74058,-2.77855,-0.08056
2018.03.18 18:43:48,41.22,8.46,-25.14,-0.52195,0.3759,9.06712,0.02817,0.14648,-0.02109,286.59729,-1.86664,-2.94686,0.02817
2018.03.18 18:43:48,40.44,8.88,-25.02,-0.30168,0.69913,9.29218,-0.01764,0.04385,0.06321,286.03751,-1.95355,-3.35058,1012.13452
2018.03.18 18:43:48,39.96,9.12,-24.96,-0.26098,1.18995,9.95061,-0.0378,0.00231,0.05588,285.5571,-2.56421,-3.04126,1012.13623
2018.03.18 18:43:48,39.24,9.18,-25.98,-0.22985,1.40305,9.89075,0.11675,0.05424,0.06993,285.18774,-4.63975,-2.80514,0.11675
2018.03.18 18:43:48,38.28,9.06,-24.9,-0.20112,0.36154,10.58509,-0.11782,-0.12597,0.03877,284.96143,-5.57993,-2.38849,-0.11782
2018.03.18 18:43:49,38.76,8.82,-26.1,-0.45731,-0.43336,11.09507,-0.35667,0.09456,-0.02781,285.04208,-3.59336,-2.20001,1012.13623
2018.03.18 18:43:49,37.68,9.36,-26.94,-1.41262,-0.78772,9.00247,0.02573,0.02186,-0.10112,285.45093,-3.06861,-1.64037,0.02573
2018.03.18 18:43:49,38.82,10.08,-27.12,-0.77096,-0.56026,10.47016,-0.09766,-0.06793,0.13162,285.02756,0.55374,-3.27253,-0.09766
2018.03.18 18:43:49,39.06,9.96,-28.38,-0.74462,0.46688,8.866,-0.04696,0.09578,0.0742,284.38834,0.89357,-3.99391,-0.04696
2018.03.18 18:43:49,39.36,10.08,-28.08,-0.70392,0.49561,10.15891,-0.16303,0.10738,-0.0101,284.10074,0.74913,-5.04756,-0.16303
2018.03.18 18:43:49,39.54,10.56,-27.42,-0.81884,1.30967,9.92666,0.01657,0.04324,0.03999,284.15176,-0.50583,-5.28692,0.01657
2018.03.18 18:43:49,39.12,10.5,-28.8,-0.47885,1.18756,10.63297,0.10392,-0.17239,0.01922,284.38834,-3.77666,-4.51593,0.10392
2018.03.18 18:43:49,39.36,10.92,-29.7,-0.78772,-0.44534,11.05197,-0.07201,0.1703,-0.24772,285.50739,-4.08714,-4.22807,1012.1311
2018.03.18 18:43:49,38.34,11.76,-29.88,0.2945,-0.55068,9.71597,0.28474,-0.03739,-0.11333,286.84238,-3.00799,-3.38654,1012.1311
2018.03.18 18:43:50,38.58,11.28,-30.3,-0.57702,-0.2921,9.25627,0.11125,-0.00074,-0.26849,288.45911,-2.94475,-2.90602,1012.13574
2018.03.18 18:43:50,39.54,12.3,-30.84,-0.66321,0.40942,8.64812,0.01718,-0.0099,-0.08157,289.34073,-2.61438,-2.80635,1012.14233
2018.03.18 18:43:50,39.12,13.26,-31.62,-0.53153,0.87152,9.56992,-0.06956,0.11166,0.0235,289.4501,-2.11126,-3.20866,1012.14819
2018.03.18 18:43:50,39.72,12.78,-30.78,-0.39745,1.52755,9.98652,0.09842,0.05974,0.10475,289.12985,-3.18995,-3.34868,0.09842
2018.03.18 18:43:50,40.2,12.24,-31.26,-0.33041,0.8356,11.04958,0.1699,0.02919,0.13284,288.74582,-5.26906,-3.15084,1012.13794
2018.03.18 18:43:50,41.22,11.88,-30.24,-0.26337,-0.35196,11.93546,-0.06101,0.02797,-0.00827,288.73911,-4.77099,-2.82044,-0.06101
2018.03.18 18:43:50,41.76,12.84,-31.08,-0.73744,-0.09577,8.18363,0.20716,0.01026,-0.0101,289.14502,-2.74574,-2.36843,0.20716
2018.03.18 18:43:50,41.22,13.08,-30.54,-1.61614,-0.63688,9.48133,-0.15692,0.00231,-0.14876,289.66019,-0.39383,-3.53083,1012.14136
2018.03.18 18:43:50,41.7,13.8,-31.26,-1.06545,-0.14605,9.40232,-0.14287,0.05607,0.09864,288.94019,1.7894,-5.74708,-0.14287
2018.03.18 18:43:50,42.3,12.6,-31.02,-0.48125,0.47646,9.99849,-0.15509,0.04385,0.19699,287.4415,2.25262,-6.12651,-0.15509
2018.03.18 18:43:51,42.42,11.88,-30.42,-0.52674,0.90264,10.13975,-0.11294,0.11349,0.02961,286.6535,1.98882,-6.2966,-0.11294
2018.03.18 18:43:51,43.08,12.12,-30.3,-0.81166,0.7925,10.14933,0.17417,-0.01418,-0.01621,286.65826,-1.55561,-5.14545,0.17417
2018.03.18 18:43:51,43.86,11.88,-30.66,0.05267,-0.30168,11.09746,-0.11416,-0.21149,-0.11517,286.94016,-2.76573,-4.08676,-0.11416
2018.03.18 18:43:51,42.54,13.02,-30.78,-1.24023,-0.81884,10.8724,-0.19235,-0.22737,-0.28071,288.39252,-1.27043,-3.19733,1012.13232
2018.03.18 18:43:51,42.24,13.56,-31.08,-0.70631,-0.27295,9.59625,0.08071,-0.00624,-0.0944,289.06125,-1.4229,-3.08544,1012.13477
2018.03.18 18:43:51,42.72,14.16,-30.78,-0.36632,0.14366,9.20359,-0.02986,-0.02212,-0.12372,290.1774,-0.98981,-3.22427,1012.12915
2018.03.18 18:43:51,42.78,14.28,-31.32,-0.32083,0.32562,9.36401,-0.02741,0.09639,-0.05775,290.74585,-0.64953,-3.37137,-0.02741
2018.03.18 18:43:51,42.6,14.46,-30.6,-0.39745,0.99123,9.54837,0.07643,0.01575,0.04183,290.75128,-1.17174,-3.251,0.07643
2018.03.18 18:43:51,42.06,14.34,-30.36,-0.24661,1.12531,10.95141,0.07765,-0.03434,0.05588,290.41559,-3.40761,-2.90703,1012.13379
2018.03.18 18:43:52,43.32,12.48,-30.54,-0.1676,0.26098,11.67448,0.17478,0.13854,0.03694,290.22275,-4.99842,-2.89058,0.17478
2018.03.18 18:43:52,43.14,13.68,-28.98,-1.02236,-0.46688,9.43584,0.11675,0.04141,-0.01498,290.45056,-3.41437,-2.72425,0.11675
2018.03.18 18:43:52,43.98,13.38,-30.72,-1.22347,-0.74701,9.46457,-0.09217,-0.0435,-0.05958,290.16104,-1.19208,-3.01908,-0.09217
2018.03.18 18:43:52,43.5,13.74,-29.46,-1.23784,-0.47167,10.29059,-0.10988,-0.0209,0.09741,289.50525,0.96516,-4.43947,-0.10988
2018.03.18 18:43:52,43.2,13.02,-27.78,-0.38787,0.43097,9.08388,0.02268,0.03041,0.20676,287.98215,0.94803,-4.9068,0.02268
2018.03.18 18:43:52,43.26,13.5,-28.08,-0.5842,0.82124,9.47893,-0.05979,0.01942,0.03083,287.49167,-0.12998,-4.49553,-0.05979
2018.03.18 18:43:52,43.86,12.96,-27.54,-0.86673,1.11334,10.23553,0.0636,0.03958,-0.0437,287.63043,-2.30485,-4.36949,0.0636
2018.03.18 18:43:52,44.28,13.2,-28.26,-0.81405,0.94574,11.15014,0.06544,-0.13757,0.03694,287.72427,-3.86102,-4.06409,0.06544
2018.03.18 18:43:52,43.8,12.42,-28.44,-0.68476,-0.19154,10.04638,-0.10133,-0.07465,0.01556,287.79852,-3.49528,-3.54759,-0.10133
2018.03.18 18:43:53,43.32,13.62,-27.3,-0.2945,-0.96729,11.40393,-0.20945,-0.16812,0.05038,287.86212,-1.14119,-3.2851,-0.20945
2018.03.18 18:43:53,44.16,14.64,-27.9,0.0407,0.40224,8.66727,0.17661,0.16969,-0.05408,288.06784,0.04444,-2.8646,1012.13647
2018.03.18 18:43:53,43.98,15.24,-27.3,-0.60815,0.37351,9.13416,0.08254,0.05241,-0.08462,288.93481,-0.51669,-2.64603,0.08254
2018.03.18 18:43:53,44.58,15.24,-27.3,-0.81884,0.55547,9.01923,0.02879,0.02492,-0.06141,289.3678,-1.10939,-2.9429,1012.125
2018.03.18 18:43:53,44.64,15.12,-26.58,-0.91701,0.9194,10.2451,-0.03413,-0.02212,0.04732,289.09598,-2.08677,-3.30138,1012.1272
2018.03.18 18:43:53,44.16,13.98,-26.82,-0.19394,0.84278,10.92747,0.08621,-0.01051,0.13162,288.37732,-3.77887,-3.15513,0.08621
2018.03.18 18:43:53,44.76,13.92,-25.74,-0.39745,-0.25858,12.3353,-0.14531,0.01331,-0.0437,288.18369,-3.28916,-3.0274,-0.14531
2018.03.18 18:43:53,45.78,15.18,-25.86,-0.77096,-0.34956,9.28979,0.08621,0.00659,0.04488,288.27042,-2.08892,-2.93983,1012.12793
2018.03.18 18:43:53,46.32,14.28,-25.86,-1.34798,-0.419,10.23074,-0.13554,-0.01845,-0.01987,288.30026,-0.15619,-3.61783,-0.13554
2018.03.18 18:43:53,47.1,15.18,-25.8,-0.73504,0.45252,8.77981,-0.00787,0.00231,0.19088,287.55969,0.65748,-4.37282,-0.00787
2018.03.18 18:43:54,47.04,15.06,-25.68,-0.76856,0.64885,9.82371,-0.18807,0.03958,0.05954,286.73932,0.15575,-4.36501,-0.18807
2018.03.18 18:43:54,46.92,13.68,-25.68,-0.62491,0.91701,10.01525,0.00496,0.07501,0.06504,286.53809,-1.11989,-4.51681,0.00496
2018.03.18 18:43:54,48.24,13.98,-25.26,-0.38069,0.90982,11.07831,0.19861,-0.01601,-0.04186,286.94528,-3.6545,-4.21757,0.19861
2018.03.18 18:43:54,49.08,14.4,-25.2,-0.7518,-0.69913,11.43027,-0.08178,0.06279,-0.33141,288.37744,-4.05544,-4.08516,-0.08178
2018.03.18 18:43:54,49.86,15.3,-25.5,-0.18675,-0.6704,9.89075,-0.02314,-0.04655,-0.08401,289.46692,-2.94641,-3.58925,-0.02314
2018.03.18 18:43:54,49.68,15.66,-25.86,-0.78772,0,8.92586,0.00679,0.10372,-0.10661,290.28143,-1.68184,-3.64642,0.00679
2018.03.18 18:43:54,49.98,15.96,-24.66,-0.48125,0.41182,9.14374,0.06116,0.05241,-0.01132,290.3208,-1.26756,-3.76447,0.06116
2018.03.18 18:43:54,51.12,15.42,-25.02,-0.36872,0.31604,9.8285,-0.04574,0.06523,0.00151,290.27457,-0.83288,-3.88382,-0.04574
2018.03.18 18:43:54,51,15.06,-24.6,-0.27774,1.16841,9.2443,-0.0097,0.03958,0.07665,289.48987,-1.54436,-3.67549,1012.13574
2018.03.18 18:43:55,52.44,13.86,-24.6,-0.05267,1.57783,10.03919,0.07704,0.03225,0.06565,287.98279,-3.90057,-2.92708,0.07704
2018.03.18 18:43:55,52.14,12.78,-24.6,-0.32323,1.60177,10.73114,0.15279,-0.04167,0.06382,287.52328,-6.17463,-2.23202,1012.14087
2018.03.18 18:43:55,52.32,10.56,-24.3,-0.82602,-0.50519,12.76149,-0.30597,-0.00502,-0.06752,287.18588,-5.8389,-1.79881,1012.14282
2018.03.18 18:43:55,53.46,10.62,-23.52,-0.84997,-0.30647,9.19402,0.22671,-0.10581,0.1133,286.70456,-5.49418,-1.95973,0.22671
2018.03.18 18:43:55,52.44,7.62,-23.64,-1.14207,-0.42379,9.0767,-0.06834,0.02614,0.13468,285.80066,-2.48749,-3.94247,-0.06834
2018.03.18 18:43:55,52.92,6.96,-24.3,-0.87391,0.37111,9.46217,-0.1166,0.00109,0.17072,284.12006,-0.39076,-4.80698,-0.1166
2018.03.18 18:43:55,52.5,5.4,-24,-0.48125,0.93856,9.72315,-0.17463,0.03347,0.16278,282.36319,-0.0302,-4.92573,-0.17463
2018.03.18 18:43:55,52.56,4.56,-23.82,-0.51477,1.30488,9.92427,-0.05551,-0.00563,0.00334,280.23578,-1.09837,-4.56451,-0.05551
2018.03.18 18:43:55,52.26,4.98,-22.56,-0.51716,1.13489,10.61861,0.10026,-0.08504,-0.09928,280.26868,-4.40807,-3.41003,0.10026
2018.03.18 18:43:56,50.04,3.84,-23.82,-0.05746,0.39027,11.49731,-0.00848,-0.1388,-0.252,280.92218,-5.31024,-2.6109,-0.00848
2018.03.18 18:43:56,50.16,5.52,-23.94,-1.18756,-0.91461,10.38636,0.04955,-0.0771,-0.15487,282.69617,-4.29139,-2.62876,0.04955
2018.03.18 18:43:56,49.74,6.42,-25.14,0.14366,-0.26098,8.54038,0.21754,-0.02945,0.01067,282.65152,-4.04334,-2.32554,0.21754
2018.03.18 18:43:56,47.76,6.36,-25.86,-0.67279,-0.11253,10.14215,-0.083,-0.10031,-0.10234,283.05206,-2.51918,-1.98647,-0.083
2018.03.18 18:43:56,48.06,5.82,-26.04,0.00239,0.90504,9.44781,0.00252,0.00537,0.06993,282.23929,-2.23554,-2.22649,1012.1355
2018.03.18 18:43:56,47.94,5.58,-25.5,-0.22746,1.26178,9.70639,-0.03352,0.06157,0.01434,281.73959,-3.1136,-2.34324,-0.03352
2018.03.18 18:43:56,48.48,5.88,-25.5,-0.23943,1.55149,10.14454,0.0801,0.04935,0.05893,281.15204,-5.26515,-2.38686,0.0801
2018.03.18 18:43:56,46.74,5.04,-24.96,-0.43576,1.38629,9.70878,0.1198,0.06157,0.09986,280.50488,-6.65682,-2.36119,1012.13184
2018.03.18 18:43:56,45.12,5.64,-24.06,-0.56026,-0.46688,11.59787,-0.2681,0.01331,0.01922,280.02527,-5.08773,-2.3311,-0.2681
2018.03.18 18:43:56,46.26,4.56,-25.26,-0.75659,-0.60336,8.88037,0.19066,-0.10459,0.04855,279.40121,-5.3346,-2.2735,0.19066
2018.03.18 18:43:57,45.78,4.26,-26.28,-1.14207,-0.44773,9.48851,-0.04024,-0.02701,0.11146,279.1355,-1.19177,-4.019,-0.04024
2018.03.18 18:43:57,45.42,3.78,-26.04,-0.67519,0.28013,9.14134,-0.04635,0.03286,0.164,277.86649,0.06983,-4.79742,-0.04635
2018.03.18 18:43:57,45.72,3.48,-26.22,-0.66561,0.94813,9.47654,-0.08667,0.04996,0.13834,276.72562,-0.06591,-4.82343,-0.08667
2018.03.18 18:43:57,45.36,4.08,-26.58,-0.68476,1.35277,9.92427,-0.01947,0.03958,0.02717,276.05548,-2.0995,-4.53699,-0.01947
2018.03.18 18:43:57,46.44,3.6,-26.46,-0.40463,1.47008,10.2451,0.13569,-0.09115,-0.06385,276.29056,-4.54242,-4.04309,0.13569
2018.03.18 18:43:57,45.18,5.34,-28.2,-0.22746,0.41421,11.37759,-0.22961,-0.00379,-0.27827,277.65094,-5.49608,-2.94412,-0.22961
2018.03.18 18:43:57,44.64,5.82,-28.2,-0.73983,-0.28492,10.3696,-0.03474,-0.21576,-0.19947,278.88416,-4.65433,-2.32484,-0.03474
2018.03.18 18:43:57,44.04,6.36,-29.46,0.07422,-0.18915,9.18683,0.11308,-0.02762,-0.02842,279.12033,-4.40796,-1.91746,0.11308
2018.03.18 18:43:57,44.46,5.94,-29.1,-0.26576,0.35196,9.56513,0.07277,0.07989,-0.0382,279.72235,-2.44416,-1.79065,0.07277
2018.03.18 18:43:58,45.18,5.94,-28.26,-0.0838,0.77335,9.11022,-0.01031,0.03103,-0.05469,279.97131,-2.92583,-2.04884,-0.01031
2018.03.18 18:43:58,45.42,6.84,-30,-0.2514,0.95532,9.38077,-0.04024,0.04813,-0.07424,280.46484,-3.2657,-1.9566,1012.13477
2018.03.18 18:43:58,45.06,7.14,-29.46,-0.3759,1.69036,9.90512,-0.02131,0.03774,-0.03698,281.20169,-4.20003,-2.03145,1012.13086
2018.03.18 18:43:58,44.52,7.32,-27.9,-0.51237,1.78613,11.06634,0.06238,0.01698,0.03633,281.4743,-6.3542,-2.14974,0.06238
2018.03.18 18:43:58,45.24,7.86,-27.3,-1.01757,-0.65124,12.30178,-0.03841,-0.0044,-0.07241,281.76947,-5.99788,-2.70203,-0.03841
2018.03.18 18:43:58,46.74,6.24,-27.18,-0.89067,-0.51477,8.81093,0.43196,-0.11558,0.17866,281.30267,-5.50736,-2.84961,1012.12549
2018.03.18 18:43:58,45.84,6,-27.42,-1.087,-0.66561,9.02402,-0.00359,0.04874,0.01678,280.86209,-4.03089,-3.62636,-0.00359
2018.03.18 18:43:58,47.34,4.62,-27.96,-0.84518,0.44773,9.115,-0.1557,0.03164,0.08398,279.94165,-0.93488,-4.62778,-0.1557
2018.03.18 18:43:58,46.8,5.64,-26.94,-0.97686,0.90504,9.86681,-0.1728,0.07317,0.03877,279.20328,-0.72506,-5.21743,-0.1728
2018.03.18 18:43:59,47.46,4.62,-25.8,-0.84278,1.12052,10.80536,-0.04208,-0.01662,0.0064,278.83459,-2.09531,-5.41145,-0.04208
2018.03.18 18:43:59,47.16,3.66,-27.66,-0.42379,1.6329,9.70639,0.07338,-0.20904,-0.02476,278.53973,-4.65311,-4.4797,0.07338
2018.03.18 18:43:59,46.38,4.5,-28.62,-0.40224,0.87152,10.96099,0.07338,-0.3416,-0.08462,279.0871,-5.89005,-2.6159,0.07338
2018.03.18 18:43:59,46.62,5.16,-28.68,-1.60177,-0.53632,10.47735,-0.14714,-0.08565,-0.10845,280.03754,-4.49179,-2.48415,-0.14714
2018.03.18 18:43:59,45.9,4.38,-29.28,0.45731,-0.91222,10.58748,-0.00603,-0.03984,-0.13105,279.55444,-4.06482,-2.09205,1012.1333
2018.03.18 18:43:59,45.9,4.68,-30.24,-0.16281,0.1269,9.20599,-0.01214,0.04324,-0.05164,280.19403,-1.30718,-1.99689,1012.14648
2018.03.18 18:43:59,45.66,5.16,-31.02,0.09817,0.61054,8.99529,-0.02558,-0.03617,0.03083,279.85095,-1.04746,-1.51004,1012.1438
2018.03.18 18:43:59,45.36,5.34,-31.5,-0.12211,0.87391,9.87638,-0.083,-0.01112,-0.0663,279.90863,-1.20246,-0.98171,1012.14063
2018.03.18 18:43:59,45.9,5.22,-32.04,-0.31126,1.44854,9.83089,0.01535,0.04691,-0.04064,279.98901,-2.73406,-0.89499,0.01535
2018.03.18 18:43:59,44.58,5.22,-31.14,-0.66561,1.34798,10.35524,0.17173,0.04324,0.15117,279.66141,-5.40022,-1.33976,0.17173
2018.03.18 18:44:00,45.42,3.96,-30.06,-0.39266,-0.43815,13.57075,-0.28153,0.10738,0.06015,278.5408,-5.39733,-1.82088,-0.28153
2018.03.18 18:44:00,45.12,3.54,-32.04,-0.53392,0.02394,8.23631,0.28291,0.12693,0.21104,277.5972,-5.61011,-2.24907,0.28291
2018.03.18 18:44:00,45.42,2.28,-32.04,-1.07742,-0.66321,9.60822,-0.01581,0.01148,-0.11578,277.53665,-5.0537,-2.67372,-0.01581
2018.03.18 18:44:00,45.48,2.34,-31.86,-0.88349,-0.19633,9.94821,-0.0549,-0.01235,0.08092,277.44769,-2.54374,-3.45203,-0.0549
2018.03.18 18:44:00,45.42,1.86,-31.56,-0.21309,0.93377,9.25387,-0.00237,-0.02212,0.18232,276.14038,-1.69503,-3.75605,-0.00237
2018.03.18 18:44:00,46.08,1.56,-32.4,-0.52674,1.20193,9.69921,-0.04513,0.01331,0.00517,275.62863,-2.73479,-3.61192,-0.04513
2018.03.18 18:44:00,45.42,0.9,-32.52,-0.58181,1.47487,10.13496,0.09659,-0.01968,-0.02415,275.80328,-4.75629,-3.67231,0.09659
2018.03.18 18:44:00,44.7,1.02,-32.4,0.17239,0.92419,10.9155,0.11308,-0.26769,-0.04431,275.96863,-6.25943,-2.367,0.11308
2018.03.18 18:44:00,43.62,2.22,-33,-0.56984,-0.17239,11.66491,-0.1673,-0.17056,-0.26666,277.52991,-4.90197,-1.3104,-0.1673
2018.03.18 18:44:01,42.6,3.12,-33.42,0.29928,-0.51477,9.64414,0.1589,-0.09665,-0.14754,278.5675,-4.89706,-0.79288,0.1589
2018.03.18 18:44:01,42.78,3.9,-34.26,-0.63209,-0.07901,9.16528,0.00985,0.0353,-0.31553,280.31012,-4.00467,-0.97972,1012.12183
2018.03.18 18:44:01,42.42,3.54,-35.64,-0.61772,0.7518,8.83009,-0.06895,-0.02945,0.08581,280.10382,-3.3732,-1.34468,1012.1189
2018.03.18 18:44:01,41.82,3.96,-34.32,-0.08859,1.03912,9.81892,-0.13554,-0.00074,0.17988,278.93195,-2.75654,-1.70184,-0.13554
2018.03.18 18:44:01,42.12,3.84,-34.98,0.08141,1.85077,10.21158,0.03978,0.1196,0.12857,277.85797,-3.07053,-2.0838,0.03978
2018.03.18 18:44:01,41.88,2.82,-34.26,0.26337,1.53952,10.72396,0.18883,0.09761,0.17438,276.86023,-4.82866,-2.1837,1012.13696
2018.03.18 18:44:01,43.08,2.1,-34.56,-0.35196,-0.82602,13.08232,-0.19662,0.07134,-0.01621,276.61816,-4.71476,-2.35788,-0.19662
2018.03.18 18:44:01,42.18,2.76,-34.44,-0.86673,-0.42858,8.44461,0.21266,0.08539,0.01128,276.79596,-5.10604,-2.20713,0.21266
2018.03.18 18:44:01,43.02,2.46,-34.92,-0.89306,-0.23464,9.88357,-0.10622,-0.04839,-0.00949,276.90448,-2.09317,-3.2739,-0.10622
2018.03.18 18:44:02,43.26,2.82,-34.38,-0.71349,0.77096,8.74629,0.03184,0.11594,0.10902,276.3606,-0.97064,-4.21435,0.03184
