Time,Mag_x,Mag_y,Mag_z,Acc_x,Acc_y,Acc_z,Gyro_x,Gyro_y,Gyro_z,Orn_x,Orn_y,Orn_z,Pressure
2018.02.20 12:06:47,35.52,-0.36,-35.4,-0.40703,0.9218,9.44541,-0.02842,-6e-05,0.06122,303.94897,-4.86406,-1.96071,-0.02842
2018.02.20 12:06:47,34.98,-0.36,-34.26,-0.42379,1.27136,9.41429,0.01617,-0.0416,0.08626,303.37192,-4.98877,-1.75362,0.01617
2018.02.20 12:06:47,34.56,-0.6,-33.78,-0.42858,1.27615,10.13257,-0.06324,0.09096,0.07771,303.22086,-4.58147,-1.78666,-0.06324
2018.02.20 12:06:47,35.04,-0.84,-34.74,-0.80448,1.63768,9.704,-0.06752,0.04209,0.05266,302.92542,-5.95838,-2.24436,-0.06752
2018.02.20 12:06:48,35.64,-0.12,-34.08,-0.43815,1.68318,9.52921,-0.11089,0.12456,0.03067,302.8454,-6.36608,-3.20302,1015.14893
2018.02.20 12:06:48,34.98,0.24,-33.96,-0.70392,1.85317,9.55076,-0.00704,0.03782,0.01968,302.60739,-7.44951,-3.60558,1015.15771
2018.02.20 12:06:48,35.04,-0.36,-33.06,-0.74223,1.71191,9.94821,0.04671,-0.05076,-0.01514,302.65625,-8.24675,-3.77352,1015.15967
2018.02.20 12:06:48,35.7,-0.06,-33.24,-0.45731,1.69036,10.23074,0.09314,-0.15216,0.10825,302.1474,-9.03245,-3.20341,1015.16772
2018.02.20 12:06:48,36.24,-1.02,-33.12,0.14366,0.31365,10.621,-0.10478,0.10074,-0.04874,302.03284,-7.17524,-2.43896,1015.16479
2018.02.20 12:06:48,34.86,0.72,-33.36,-0.20591,0.16999,8.62897,0.08886,0.01949,-0.29736,303.62033,-5.98943,-1.86908,1015.16284
2018.02.20 12:06:48,35.16,0.48,-32.82,-0.48604,0.05267,9.59625,-0.05469,-0.13628,-0.30286,305.13565,-5.57846,-1.49218,-0.05469
2018.02.20 12:06:48,35.34,1.2,-33.36,0.27534,0.89785,8.66967,0.1866,0.11967,-0.06096,305.72784,-5.82707,-2.05111,0.1866
2018.02.20 12:06:48,35.28,1.56,-31.32,0.13647,1.47727,8.66967,0.14323,0.0311,-0.11471,306.58926,-6.43389,-2.53089,0.14323
2018.02.20 12:06:49,35.76,2.58,-30.84,-0.80448,1.36474,9.88117,0.07237,0.01033,-0.08722,307.8905,-6.31845,-2.28875,0.07237
2018.02.20 12:06:49,35.28,1.86,-30.9,-0.838,0.26816,11.42787,-0.04369,0.01766,0.20355,306.97327,-6.58909,-2.23396,1015.16577
2018.02.20 12:06:49,35.52,1.62,-31.8,-0.25858,-0.15563,10.58748,-0.0217,-0.16071,0.25791,305.73663,-5.33746,-1.46643,-0.0217
2018.02.20 12:06:49,35.82,-0.12,-31.32,-0.89306,0.31604,8.71756,-0.06813,-0.05687,0.22554,303.86932,-5.67717,-1.32527,-0.06813
2018.02.20 12:06:49,35.4,0.3,-31.8,-0.45252,0.55068,9.00726,0.03572,-0.01594,0.38681,302.74664,-4.14919,-1.12729,0.03572
2018.02.20 12:06:49,35.46,-1.38,-32.4,-0.03352,0.75899,9.31133,-0.11517,-0.16438,0.22065,301.11676,-3.57624,-0.61632,-0.11517
2018.02.20 12:06:49,35.52,-1.14,-31.44,-0.39745,0.83081,9.96497,0.07054,0.05614,0.06427,300.69086,-3.29122,-0.64847,0.07054
2018.02.20 12:06:49,35.94,-2.28,-32.34,0.61293,0.37111,10.50129,0.32405,-0.02144,0.06427,300.10666,-4.74633,-0.41015,0.32405
2018.02.20 12:06:49,36.48,-1.32,-31.02,0.32802,-0.04549,10.72635,-0.23612,0.09768,-0.30347,301.5304,-4.39211,-0.90098,-0.23612
2018.02.20 12:06:50,36.6,-2.1,-30.66,-0.06943,0.13647,8.75586,0.06504,0.17648,-0.25216,302.83942,-4.39906,-1.53541,0.06504
2018.02.20 12:06:50,36.78,-0.42,-29.94,-0.47167,0.35196,9.63456,-0.11944,-0.05503,-0.25216,304.27264,-3.71048,-1.81623,1015.16333
2018.02.20 12:06:50,37.08,0.3,-29.52,-0.08141,0.70631,9.23232,-0.04675,0.00055,-0.07684,304.63773,-3.83442,-1.87791,1015.17017
2018.02.20 12:06:50,37.5,0.24,-29.94,0.08619,1.28812,9.06472,-0.05652,0.08363,0.02212,304.75912,-4.04317,-1.94319,1015.17896
2018.02.20 12:06:50,37.26,-0.66,-28.98,0.03352,1.62332,9.94103,-0.04553,-0.02144,0.06916,304.42374,-5.0747,-1.23541,1015.17432
2018.02.20 12:06:50,37.14,-0.66,-29.04,-0.07901,0.97447,10.60185,0.12429,-0.08497,0.09054,303.96826,-5.97588,-0.5155,1015.17676
2018.02.20 12:06:50,37.62,-0.9,-29.4,-0.57223,-0.47407,11.0807,-0.15732,-0.21691,0.08137,303.30136,-4.85633,-0.2173,1015.17822
2018.02.20 12:06:50,36.84,-2.34,-30.12,-0.62251,0.14366,7.9442,0.2538,-0.06053,0.18278,301.90585,-5.18332,0.28374,0.2538
2018.02.20 12:06:50,36.54,-3.36,-30,-0.39745,0.22267,9.87638,-0.11272,-0.06175,0.06916,301.53564,-3.90756,0.08888,-0.11272
2018.02.20 12:06:51,35.94,-3.12,-28.92,-0.23703,0.89546,9.47415,-0.10295,-0.01533,-0.04385,301.23581,-3.52059,-0.50087,-0.10295
2018.02.20 12:06:51,36.24,-3,-29.22,-0.3352,1.02714,9.84765,-0.07363,0.07875,-0.04813,301.5267,-3.60434,-1.08219,-0.07363
2018.02.20 12:06:51,36.42,-3.6,-29.76,-0.9218,0.74941,10.63776,-0.01193,0.04515,-0.16847,302.2753,-4.22006,-1.59523,-0.01193
2018.02.20 12:06:51,35.76,-3.72,-29.1,0.24422,-0.59617,12.19883,-0.34302,-0.24868,-0.12143,302.70801,-3.85175,-1.09509,-0.34302
2018.02.20 12:06:51,35.76,-3.36,-28.98,0.11971,-0.17239,9.89075,0.03816,-0.02693,-0.00048,302.76038,-3.36479,-1.0155,0.03816
2018.02.20 12:06:51,35.28,-4.5,-28.86,0.02155,-0.31365,9.92906,0.07237,0.19176,-0.17824,303.56339,-1.82324,-0.94329,0.07237
2018.02.20 12:06:51,34.62,-4.86,-29.04,0.27534,0.55308,8.75826,0.1695,0.00361,0.09481,303.60605,-1.51954,-0.92607,1015.16357
2018.02.20 12:06:51,33.72,-5.46,-27.96,0.0407,0.95292,9.41189,0.02289,-0.01166,-0.04141,303.80161,-1.85876,-0.54118,1015.16162
2018.02.20 12:06:51,34.2,-6.48,-27.6,0.19394,1.71191,9.80695,0.03083,0.01277,0.09542,303.29343,-3.75934,-0.00114,0.03083
2018.02.20 12:06:51,33.18,-6.3,-27.72,0.14605,1.1708,10.99451,0.20859,0.10257,0.10337,302.97592,-5.42775,0.54836,0.20859
2018.02.20 12:06:52,32.76,-8.22,-28.38,-0.55787,-0.62491,11.7942,-0.11333,-0.07886,-0.07867,303.11465,-5.24124,0.35036,-0.11333
2018.02.20 12:06:52,32.7,-9.6,-27.72,-0.46688,-0.00239,8.81093,0.02594,0.02438,0.08443,301.83725,-5.52762,-0.32875,0.02594
2018.02.20 12:06:52,33.18,-9.72,-27.54,-0.77335,0.09338,9.2419,-0.0834,-0.00433,0.06305,301.67017,-5.02349,-0.61471,-0.0834
2018.02.20 12:06:52,31.56,-10.8,-26.64,-0.18436,1.14446,8.85882,-0.02293,0.0647,0.01723,301.13452,-4.60029,-1.65211,-0.02293
2018.02.20 12:06:52,31.98,-9.72,-26.94,-0.59857,1.16601,10.03441,-0.15915,0.0146,-0.06096,301.30688,-4.72522,-1.99723,-0.15915
2018.02.20 12:06:52,30,-9.66,-25.32,-0.07901,1.07982,10.51326,-0.0663,-0.26273,-0.1532,301.49356,-5.30381,-1.38822,-0.0663
2018.02.20 12:06:52,30.54,-9.36,-28.14,0.51237,-0.13647,11.33929,0.02717,-0.28961,-0.12082,302.47766,-5.01007,-0.45076,0.02717
2018.02.20 12:06:52,29.94,-8.46,-28.44,0.2107,0.00479,9.30415,0.06565,-0.11307,-0.02919,303.41754,-4.08039,-0.30992,1015.17944
2018.02.20 12:06:52,30.78,-8.88,-28.38,0.2083,0.47407,9.79019,-0.05897,0.07019,-0.09272,303.8992,-3.51887,-0.40504,1015.18359
2018.02.20 12:06:53,31.26,-7.86,-27.54,0.35196,0.87152,8.67446,0.18049,0.07813,0.06977,304.08069,-3.78593,-0.72172,1015.17773
2018.02.20 12:06:53,30.6,-7.74,-27.18,0.21309,0.99123,9.30894,0.05282,0.06347,-0.00048,304.38098,-4.11582,-0.72667,0.05282
2018.02.20 12:06:53,30.6,-9.06,-27.6,0.0838,1.33361,9.23711,0.06687,-0.07275,-0.02736,304.37885,-5.55504,-0.31416,0.06687
2018.02.20 12:06:53,30.24,-8.52,-27.3,-0.11253,0.98405,10.75987,0.01128,-0.21203,0.01296,304.20572,-6.16536,0.84246,0.01128
2018.02.20 12:06:53,30.06,-8.64,-27.6,0.31844,0.14605,12.29221,-0.48474,-0.00128,0.01174,303.53015,-4.99209,0.6818,-0.48474
2018.02.20 12:06:53,29.16,-8.16,-27.72,-0.11971,0.14845,9.52682,-0.01315,0.11784,0.29518,302.28241,-4.83057,-0.003,-0.01315
2018.02.20 12:06:53,29.58,-8.76,-27.9,-0.668,0.28731,9.83089,-0.05958,0.02804,0.20966,301.73474,-3.8483,-0.35085,-0.05958
2018.02.20 12:06:53,29.7,-8.52,-26.76,0.19154,1.15165,8.68882,-0.106,0.03843,0.01846,300.53076,-4.1569,-0.69449,0.17744
2018.02.20 12:06:53,29.7,-7.92,-28.08,-0.41182,0.86194,9.52921,-0.13166,0.0708,-0.10616,300.92935,-3.82957,-1.10848,-0.13166
2018.02.20 12:06:54,29.16,-7.74,-26.52,-0.3328,0.89785,10.22116,0.04794,-0.1039,-0.05729,301.37949,-4.5033,-1.47452,0.04794
2018.02.20 12:06:54,28.98,-8.04,-27.54,0.06704,0.38308,10.70959,0.08398,-0.20286,-0.13915,301.84711,-5.22516,-0.57034,1015.1748
2018.02.20 12:06:54,28.86,-6.96,-29.1,-0.20112,0.07183,9.90751,-0.07485,0.0427,-0.07928,302.72351,-4.27408,-0.30285,-0.07485
2018.02.20 12:06:54,28.74,-6.66,-28.5,0.0838,0.26816,8.70798,0.18049,0.07386,-0.06218,303.29358,-3.63687,-0.77496,1015.17603
2018.02.20 12:06:54,30.24,-5.76,-28.56,0.0407,0.89546,8.73431,0.08214,0.04148,-0.02675,303.92169,-2.91438,-1.45057,1015.17676
2018.02.20 12:06:54,28.62,-6,-27.6,-0.15802,0.90264,9.33767,-0.0101,0.09341,-0.12937,304.22675,-3.62551,-1.54513,-0.0101
2018.02.20 12:06:54,29.76,-5.46,-28.26,-0.28971,1.16841,9.58428,0.04183,0.00422,-0.05546,304.82336,-4.30788,-1.6946,0.04183
2018.02.20 12:06:54,28.8,-4.92,-27.9,-0.25858,0.80448,10.88198,0.01006,-0.04587,0.04594,304.66837,-4.9302,-1.41319,1015.17261
2018.02.20 12:06:54,28.98,-5.58,-29.16,-0.1676,0.51477,11.47576,-0.00765,-0.04221,0.19866,303.47156,-4.6553,-1.13516,-0.00765
2018.02.20 12:06:54,29.7,-4.74,-28.86,-0.22027,0.64645,8.73431,0.12918,0.08241,0.21454,302.59244,-4.68042,-1.34486,0.12918
2018.02.20 12:06:55,28.86,-5.88,-29.52,-0.77335,0.19872,9.81413,-0.04797,-0.06786,0.03556,302.57327,-3.56184,-1.75553,-0.04797
2018.02.20 12:06:55,28.86,-5.52,-28.74,-0.64406,1.16122,8.29616,-0.00704,-0.01227,0.06366,301.83722,-3.73701,-2.67672,-0.00704
2018.02.20 12:06:55,28.38,-5.46,-28.98,-0.49083,1.03193,10.15891,-0.17992,-0.06481,0.00868,301.7561,-3.87844,-2.64803,-0.17992
2018.02.20 12:06:55,27.96,-4.62,-29.4,-0.38308,1.18038,9.75188,0.03755,-0.0642,-0.01331,301.88895,-4.9185,-2.684,0.03755
2018.02.20 12:06:55,27.6,-4.92,-30.54,-0.47407,1.07024,10.48692,0.02289,-0.26456,0.06366,301.86813,-5.43067,-1.93688,0.02289
2018.02.20 12:06:55,28.14,-3.84,-30.9,-0.11971,-0.11253,9.8716,-0.13594,0.09218,-0.13426,302.25366,-3.68316,-1.13399,-0.13594
2018.02.20 12:06:55,26.7,-2.46,-31.74,-0.08859,-0.1245,10.47495,-0.08462,-0.02999,-0.21367,303.46402,-2.75395,-1.47227,-0.08462
2018.02.20 12:06:55,27.36,-2.46,-31.32,-0.11014,0.63448,8.66009,0.1976,0.07936,-0.04691,304.03156,-3.10169,-1.61985,1015.16504
2018.02.20 12:06:55,26.82,-2.4,-30.6,-0.10295,0.84997,9.14613,0.11085,0.10318,-0.15992,304.67825,-4.32855,-2.1126,1015.16699
2018.02.20 12:06:56,25.92,-1.5,-29.76,-0.13169,1.40305,9.06233,0.05404,0.08546,-0.08722,304.99399,-4.58369,-2.37377,0.05404
2018.02.20 12:06:56,27.18,-1.56,-30.9,-0.24661,0.90264,10.81494,0.03389,-0.00372,0.08015,304.90417,-5.93709,-1.83744,0.03389
2018.02.20 12:06:56,26.4,-1.62,-30.72,-0.49083,0.35196,11.35365,-0.15793,0.03965,0.08015,304.31976,-5.51722,-2.38962,-0.15793
2018.02.20 12:06:56,27.48,-1.92,-30.6,-0.56744,0.34717,8.73192,0.10413,0.01766,0.14307,303.55905,-4.35464,-2.6408,0.10413
2018.02.20 12:06:56,27.24,-1.86,-31.68,-0.65364,0.6273,9.26824,-0.08035,-0.03182,0.13024,302.86203,-2.72974,-3.23666,-0.08035
2018.02.20 12:06:56,26.76,-1.68,-32.52,-0.68716,1.0056,8.85642,-0.0779,-0.10268,0.038,302.14502,-3.25996,-3.29511,-0.0779
2018.02.20 12:06:56,26.46,-1.68,-32.58,-0.35675,1.01757,10.07032,0.00456,0.02743,0.00441,302.0022,-3.48942,-3.21179,0.00456
2018.02.20 12:06:56,26.4,-0.9,-32.34,-0.62969,0.65364,10.75748,-0.05225,0.04698,-0.03897,302.13715,-4.48328,-3.2041,-0.05225
2018.02.20 12:06:56,25.98,-0.78,-32.82,-0.01197,0.73744,10.91311,0.0345,-0.2218,0.05327,302.05203,-4.57776,-2.54211,0.0345
2018.02.20 12:06:57,25.74,-0.54,-33.06,0.419,-0.23224,9.94342,0.10475,-0.00372,-0.18802,303.10684,-4.08442,-2.10665,1015.17139
2018.02.20 12:06:57,24.9,-0.54,-32.22,-0.3328,0.34717,9.23711,0.05771,0.02927,-0.13304,304.00854,-4.40592,-2.41289,1015.17139
2018.02.20 12:06:57,25.02,-0.9,-34.08,0.19633,0.89306,8.33926,0.18477,0.07997,0.05633,303.87851,-5.15417,-2.47645,0.18477
2018.02.20 12:06:57,26.04,-1.26,-33.42,-0.39506,1.03193,8.96656,-0.18419,0.00911,-0.1141,304.16589,-5.43406,-2.51274,-0.18419
2018.02.20 12:06:57,26.76,-0.54,-33.78,-0.36872,1.86035,9.38316,-0.07424,0.12945,0.00868,304.28094,-5.80991,-2.39902,1015.16772
2018.02.20 12:06:57,25.98,-0.18,-33.24,-0.36632,1.32403,11.35365,-0.06446,-0.06359,0.07099,304.02917,-6.41157,-2.04428,1015.16699
2018.02.20 12:06:57,26.16,0.06,-34.26,-0.8787,-0.43576,11.47097,-0.25872,-0.13567,0.02945,303.30405,-5.60166,-1.53743,-0.25872
2018.02.20 12:06:57,25.92,-0.24,-34.32,-0.63927,-0.07662,8.3632,0.03999,-0.08191,0.10825,302.38589,-5.67791,-1.56072,0.03999
2018.02.20 12:06:57,25.56,-0.54,-34.98,-0.50519,0.52435,9.81174,-0.12372,0.00727,0.11192,301.96674,-4.03449,-1.32826,-0.12372
2018.02.20 12:06:58,26.34,-0.24,-35.28,-0.13408,1.09897,9.47175,-0.08157,0.00972,-0.01209,301.53836,-3.87767,-1.73919,-0.08157
2018.02.20 12:06:58,25.68,1.02,-34.92,-0.53871,1.08221,9.35683,0.00762,0.02988,-0.02431,301.7583,-4.4464,-1.93008,0.00762
2018.02.20 12:06:58,25.44,0.24,-35.58,-0.38787,0.68476,10.99451,0.01861,-0.13445,-0.02675,301.98615,-4.56061,-1.75072,1015.18115
2018.02.20 12:06:58,24.54,0.84,-34.92,0.12211,-0.05267,10.88198,-0.00582,0.09829,-0.14892,302.2774,-4.2082,-1.49862,1015.17847
2018.02.20 12:06:58,24.06,1.26,-35.52,0.31365,-0.09577,10.13975,0.0907,0.06286,-0.13915,303.10562,-3.20257,-1.46419,0.0907
2018.02.20 12:06:58,25.08,2.04,-35.28,-0.2107,0.53153,8.47813,0.12613,0.14961,0.03128,304.0856,-2.5575,-1.95658,0.12613
2018.02.20 12:06:58,24.84,1.32,-34.68,0.00239,0.81405,8.48292,0.0235,0.09524,-0.02369,303.81427,-3.18964,-2.36595,0.0235
2018.02.20 12:06:58,25.08,1.8,-34.98,0.24182,1.52515,9.31852,-0.10478,0.00422,0.01479,303.74908,-3.49615,-1.81398,-0.10478
2018.02.20 12:06:58,25.14,1.44,-34.62,-0.09098,1.28812,11.0831,-0.02293,-0.12773,-0.04935,303.73776,-4.91889,-0.36097,-0.02293
2018.02.20 12:06:59,25.38,1.92,-35.76,-0.31844,0.05986,11.09268,-0.04308,-0.11429,-0.03347,303.71442,-5.73442,0.06358,-0.04308
2018.02.20 12:06:59,25.32,1.08,-35.34,-0.5004,0.48843,7.97772,0.3552,0.07264,0.18583,303.40384,-5.06961,-0.43619,0.3552
2018.02.20 12:06:59,24.54,0.78,-34.74,-0.95532,-0.00239,9.74949,-0.08646,-0.10513,-0.04874,303.60229,-4.78427,-0.93411,-0.08646
2018.02.20 12:06:59,25.14,1.08,-35.16,-0.68716,0.83321,8.50446,0.0797,0.07386,0.0771,303.45245,-3.69216,-2.47184,0.0797
2018.02.20 12:06:59,25.74,0.3,-35.46,-0.88828,1.00799,9.89075,-0.18664,0.10685,-0.0353,303.41336,-3.4145,-3.28329,-0.18664
2018.02.20 12:06:59,25.98,0.84,-35.22,-0.55547,1.03193,10.12299,-0.02109,0.01033,0.07038,303.06519,-4.01309,-3.79193,1015.16138
2018.02.20 12:06:59,26.16,0.48,-36.42,-0.27295,0.88349,10.42707,-0.25444,-0.23952,-0.13487,302.91931,-4.31763,-2.80704,-0.25444
2018.02.20 12:06:59,24.84,1.56,-36.84,-0.78293,-0.14126,10.44143,-0.33874,-0.14544,0.02701,302.88107,-2.87036,-1.89151,1015.16064
2018.02.20 12:06:59,25.02,0.66,-36.06,0.43336,0.02394,9.46457,0.13468,0.08974,-0.07134,302.63486,-3.43969,-1.88737,1015.16064
2018.02.20 12:06:59,25.68,0.18,-35.76,0.18436,0.76856,9.00726,0.13346,0.01094,-0.02003,303.45453,-3.62456,-2.05936,0.13346
2018.02.20 12:07:00,24.78,0.9,-36.12,0.02634,1.03672,8.89473,0.06076,0.08424,-0.1141,303.90524,-4.34308,-1.56978,0.06076
2018.02.20 12:07:00,26.34,-0.48,-36.72,-0.08619,1.58501,9.14852,0.06076,0.00483,-0.07073,304.37329,-5.53955,-1.43059,0.06076
2018.02.20 12:07:00,25.92,0.06,-36.24,-0.419,1.12291,11.27943,0.09008,-0.04343,0.13452,304.45251,-6.23717,-1.0276,0.09008
2018.02.20 12:07:00,25.62,-0.3,-36.78,-0.32562,0.40703,11.55238,-0.07851,-0.01166,0.11558,303.58063,-6.02792,-0.92386,-0.07851
2018.02.20 12:07:00,26.46,-0.78,-36.78,-0.57702,0.54829,8.20039,0.10169,0.04759,0.20966,302.92151,-5.0946,-1.59739,0.10169
2018.02.20 12:07:00,26.04,-1.02,-37.86,-0.73504,0.56265,9.33528,-0.02842,-0.06359,0.14124,302.48822,-3.69975,-2.53761,-0.02842
2018.02.20 12:07:00,25.56,-1.38,-37.62,-0.30168,1.10855,9.0743,0.018,-0.0361,-0.02186,301.73734,-4.18676,-2.71796,0.018
2018.02.20 12:07:00,26.76,-1.2,-37.62,-0.65843,1.23066,9.08148,0.12918,-0.01533,-0.03469,302.3324,-5.14143,-2.96816,0.12918
2018.02.20 12:07:00,25.92,-1.2,-37.26,-0.42379,0.92658,10.65692,0.08581,-0.20225,-0.02553,302.53088,-5.735,-2.44985,1015.17944
2018.02.20 12:07:01,24.54,-1.02,-36.84,-0.3783,-0.52913,11.76786,-0.32591,-0.13445,-0.1929,302.9866,-4.4809,-1.50249,1015.1875
2018.02.20 12:07:01,24.84,-0.12,-37.44,0.4166,0.20591,9.24669,0.09314,0.02071,0.07832,302.63861,-3.86763,-1.61598,0.09314
2018.02.20 12:07:01,26.7,-0.9,-37.8,-0.2945,0.62012,9.58189,0.09314,0.06103,-0.03164,303.72565,-3.26192,-2.12957,0.09314
2018.02.20 12:07:01,26.22,-0.24,-36.24,0.17718,0.90025,8.56672,0.11941,0.10318,-0.10372,303.88068,-4.05326,-2.4145,0.11941
2018.02.20 12:07:01,25.98,0.36,-37.2,-0.05746,1.17559,9.28979,0.01922,0.08058,-0.11838,304.5166,-4.74557,-2.16263,0.01922
2018.02.20 12:07:01,26.1,0.54,-36.48,0.18675,1.6736,9.89075,0.02533,0.003,-0.02247,304.76218,-5.77721,-1.40551,0.02533
2018.02.20 12:07:01,26.58,0.06,-36.84,-0.17718,1.43417,10.80057,0.03999,0.06042,0.14429,304.54733,-6.42425,-1.06428,0.03999
2018.02.20 12:07:01,27.06,0.9,-35.76,-1.52994,-0.51237,10.76945,0.1188,-0.02755,0.16567,304.63022,-5.2284,-1.12613,0.1188
2018.02.20 12:07:01,27.18,-0.3,-35.82,-0.27295,-0.0838,8.59066,0.18721,-0.09108,0.26586,303.19485,-5.5676,-1.03173,0.18721
2018.02.20 12:07:02,26.76,0.66,-35.58,-0.61772,0.50759,9.0312,-0.09317,-0.0416,0.00746,303.07654,-4.36734,-1.22476,-0.09317
2018.02.20 12:07:02,27.12,0.36,-35.7,-0.47407,1.05109,9.0767,-0.03575,0.00361,-0.03164,302.87033,-4.44301,-1.84399,-0.03575
2018.02.20 12:07:02,28.26,1.02,-35.28,-0.52195,0.9625,9.85244,0.02655,0.00361,-0.06096,303.40945,-4.60734,-2.46824,1015.17529
2018.02.20 12:07:02,27.42,1.5,-35.1,-0.23703,0.78532,10.01046,0.11085,-0.29571,-0.18741,303.91455,-4.86538,-1.96549,0.11085
2018.02.20 12:07:02,27.06,1.86,-35.04,-0.40942,0.01197,10.38397,-0.10417,0.14777,-0.15198,304.88248,-4.51365,-1.79211,1015.18164
2018.02.20 12:07:02,26.88,2.22,-34.68,0.76856,0.43336,8.95698,0.175,0.15755,0.12963,304.70609,-4.1545,-2.16133,1015.18066
2018.02.20 12:07:02,27,1.74,-33.84,-0.61293,0.38308,9.95061,-0.08218,0.02132,-0.20512,305.70044,-3.86609,-2.55598,-0.08218
2018.02.20 12:07:02,29.7,2.52,-33.9,0.09098,1.02475,8.59066,0.0742,0.05187,-0.07684,305.77567,-4.59594,-2.74807,0.0742
2018.02.20 12:07:02,28.14,2.82,-33.54,-0.13887,1.28573,9.12937,0.03938,0.06347,-0.11593,306.3277,-5.16815,-2.28825,1015.16992
2018.02.20 12:07:02,28.38,3.66,-34.02,-0.34956,1.10137,10.21158,0.01678,-0.06114,-0.00842,306.3905,-6.0254,-1.62084,1015.16089
2018.02.20 12:07:03,27.66,2.34,-33.18,-0.40942,0.8763,10.32172,0.09864,0.0427,0.38559,305.28781,-5.91529,-1.59149,0.09864
2018.02.20 12:07:03,27.66,2.58,-33,-0.39984,0.06943,11.23394,-0.06263,0.09218,0.25669,304.53821,-4.76546,-1.19037,-0.06263
2018.02.20 12:07:03,27.36,1.26,-32.88,-0.95532,0.14366,8.98332,-0.04919,0.01583,0.03312,303.20969,-5.02639,-1.4089,-0.04919
2018.02.20 12:07:03,27.24,2.16,-32.7,-0.59617,0.73983,8.50925,0.03694,0.09463,0.06061,302.88449,-4.09255,-2.75137,0.03694
2018.02.20 12:07:03,27.66,2.1,-31.32,-0.5866,0.82842,9.48612,-0.09806,-0.01044,0.00013,302.66617,-4.01172,-3.14514,-0.09806
2018.02.20 12:07:03,27.9,2.04,-31.68,-0.78532,0.92419,9.51964,0.01434,0.00483,-0.05302,302.90295,-4.01615,-3.31916,0.01434
2018.02.20 12:07:03,27.72,2.16,-31.38,-0.40224,0.55547,10.89874,0.06809,-0.26945,0.03495,303.0108,-3.85893,-3.00077,0.06809
2018.02.20 12:07:03,27.06,1.92,-31.32,-0.24661,-0.49561,11.31774,-0.26238,0.0763,-0.12815,303.46539,-2.39837,-2.24558,-0.26238
2018.02.20 12:07:03,26.46,2.7,-30.9,0.57941,0.48843,9.17726,0.1976,0.01705,0.20172,303.10333,-2.58844,-2.69191,1015.17065
2018.02.20 12:07:04,27.06,2.22,-30.12,-0.76617,0.05986,9.85005,0.07115,0.08608,-0.19168,304.64847,-2.2644,-2.58291,0.07115
2018.02.20 12:07:04,26.94,2.52,-30.12,-0.39027,0.82363,8.88276,0.10169,0.05431,-0.02308,305.02029,-2.99242,-3.21507,0.10169
2018.02.20 12:07:04,25.98,2.04,-29.64,-0.59617,0.81645,9.84526,0.11085,0.11784,0.02334,305.38037,-3.69398,-3.06476,0.11085
2018.02.20 12:07:04,27.42,2.22,-29.58,-1.09418,0.76856,11.41111,-0.06202,-0.15644,0.06794,304.86328,-4.16163,-2.93685,1015.17871
2018.02.20 12:07:04,27.3,1.2,-30.66,-0.32083,0.668,10.29538,0.02778,-0.01899,0.37826,302.35187,-4.73371,-2.54566,0.02778
2018.02.20 12:07:04,26.22,0.3,-29.82,-0.68237,0.29689,8.89952,0.16033,0.21436,0.14124,301.36203,-4.89618,-2.60123,0.16033
2018.02.20 12:07:04,26.52,0.72,-29.16,-0.35196,0.26098,9.25148,0.01617,-0.0196,-0.0072,300.8667,-5.10068,-2.97749,0.01617
2018.02.20 12:07:04,27.36,0,-30,-0.74701,0.78293,9.14374,-0.09073,0.04454,-0.23872,301.70032,-4.36792,-3.24895,-0.09073
2018.02.20 12:07:04,26.64,1.2,-29.58,-1.11813,0.85476,9.54358,-0.06263,-0.008,-0.20756,302.8588,-3.94706,-3.76026,-0.06263
2018.02.20 12:07:05,27,0.96,-29.64,-0.78053,1.30249,9.80216,0.09314,-0.08497,0.11619,302.62003,-4.7798,-4.22186,0.09314
2018.02.20 12:07:05,25.14,0.66,-29.88,0.0431,0.43097,10.81973,-0.01376,-0.13139,0.01723,302.20432,-5.31606,-3.83731,-0.01376
2018.02.20 12:07:05,25.62,2.58,-30,-0.60815,0.18675,11.57871,-0.08401,0.00055,-0.27354,303.81534,-3.31105,-2.64655,-0.08401
2018.02.20 12:07:05,25.62,3.12,-30.48,-0.13169,0.25858,9.85484,-0.04858,0.05614,-0.2491,304.8078,-3.45675,-2.90441,-0.04858
2018.02.20 12:07:05,26.4,3.72,-30.84,-0.24661,0.69913,8.55714,0.15972,0.03354,0.00807,305.44485,-3.70189,-3.101,1015.18628
2018.02.20 12:07:05,25.86,4.26,-30.96,-0.10535,0.70392,8.92825,0.08398,-0.0416,-0.02064,305.39236,-4.50955,-2.75779,1015.18115
2018.02.20 12:07:05,26.04,3.9,-31.08,-0.13647,1.56107,9.78061,-0.03087,-0.03243,0.05327,305.2565,-4.84537,-2.39594,-0.03087
2018.02.20 12:07:05,26.16,3.48,-30.54,-0.35675,1.08461,9.79019,-0.04614,-0.00922,0.02334,305.0014,-5.47242,-1.45772,-0.04614
2018.02.20 12:07:05,26.52,4.02,-31.26,-0.77575,-0.35196,10.65931,-0.14876,-0.15399,0.03495,304.46664,-5.02892,-1.32249,-0.14876
2018.02.20 12:07:05,26.46,2.94,-32.22,-0.19633,0.5004,8.68403,0.19943,0.01583,0.25303,303.46823,-4.61735,-1.59413,0.19943
2018.02.20 12:07:06,26.82,3.48,-31.98,-0.90982,0.54589,9.31612,-0.1451,0.04087,-0.04263,303.60138,-3.31745,-2.14137,-0.1451
2018.02.20 12:07:06,27.06,4.02,-31.44,-0.50998,1.01757,9.00487,0.00151,0.0427,0.07099,302.95761,-3.61649,-2.9237,0.00151
2018.02.20 12:07:06,27,3.72,-31.62,-0.97926,1.00081,10.09426,0.01617,0.11662,-0.07989,303.10297,-4.17334,-3.58838,0.01617
2018.02.20 12:07:06,28.38,3.36,-31.26,-0.30168,1.01278,10.7048,0.07542,-0.23157,0.01418,303.04721,-5.2275,-3.68166,0.07542
2018.02.20 12:07:06,27.66,3.84,-31.8,-0.1245,-0.15084,10.86761,-0.04308,0.0592,-0.1367,303.49493,-4.97412,-2.87979,-0.04308
2018.02.20 12:07:06,25.86,4.14,-30.84,-0.3783,0.21548,9.70878,-0.05164,-0.0361,-0.03713,303.85483,-3.33904,-2.07293,-0.05164
2018.02.20 12:07:06,27.18,4.8,-30.96,-0.77335,0.41182,9.37119,-0.06446,0.06714,-0.15808,305.06931,-2.27336,-2.36244,1015.18164
2018.02.20 12:07:06,27.84,4.74,-30.72,-0.28492,0.89306,8.81811,-0.01498,-0.07214,0.00196,304.73932,-2.82636,-2.59127,1015.18481
2018.02.20 12:07:06,27.66,5.1,-31.86,-0.34717,1.13728,9.28021,-0.04003,0.03293,-0.02553,304.84991,-3.38534,-2.54649,1015.18433
2018.02.20 12:07:07,28.2,4.62,-31.14,-0.36872,1.15643,10.10623,0.05404,0.08302,0.02517,304.7207,-5.07157,-2.6916,1015.18433
2018.02.20 12:07:07,29.04,4.26,-30.54,0.01915,1.27615,10.61143,0.10108,0.12212,0.2292,303.77048,-5.59147,-2.46196,1015.1748
2018.02.20 12:07:07,28.98,3.9,-30.96,-0.7925,-0.01676,10.20919,-0.06507,-0.02877,-0.03347,303.58331,-5.03827,-1.98057,-0.06507
2018.02.20 12:07:07,29.22,3.72,-30.24,-1.02954,-0.1269,9.0743,-0.09928,-0.18942,0.0716,302.63022,-4.63841,-2.04962,-0.09928
2018.02.20 12:07:07,29.58,3.72,-31.44,-0.86433,0.52435,9.15331,-0.04064,-0.05931,0.10642,302.10483,-2.90671,-2.86251,-0.04064
2018.02.20 12:07:07,30.54,3.36,-30.66,-0.20591,1.02236,9.29936,-0.02476,0.02682,0.02456,301.71661,-3.20832,-3.41599,-0.02476
2018.02.20 12:07:07,30.66,3.78,-30.48,-0.90264,1.01517,9.7447,0.04183,0.06286,-0.07989,302.03751,-3.75326,-3.76535,0.04183
2018.02.20 12:07:07,29.58,4.74,-28.74,-0.61054,1.20911,10.97296,0.18721,-0.12895,0.03067,302.17007,-4.51427,-3.55174,0.18721
2018.02.20 12:07:07,30.78,2.34,-31.2,-0.08141,0.08619,8.3225,0.05771,0.05431,-0.16541,303.05609,-4.87031,-3.26662,0.05771
2018.02.20 12:07:08,30.9,4.14,-30.72,-0.22267,-0.05267,8.81333,0.21531,0.04942,-0.20268,304.61267,-4.80049,-3.28206,0.21531
2018.02.20 12:07:08,31.5,5.16,-31.5,-0.90264,0.61054,9.08867,0.02839,-0.06359,-0.10799,305.96252,-4.28215,-3.31323,0.02839
2018.02.20 12:07:08,32.04,4.56,-31.38,-0.39266,0.78293,8.92107,-0.00338,-0.06603,-0.07745,306.02499,-4.67201,-3.36726,-0.00338
2018.02.20 12:07:08,31.44,5.16,-31.62,-0.32562,1.45811,9.37598,0.0687,-0.00494,0.12841,306.15167,-4.65662,-3.39044,0.0687
2018.02.20 12:07:08,31.26,3,-32.16,-0.30886,1.16362,11.01127,-0.01926,-0.07947,0.04106,305.53357,-5.81687,-2.32536,1015.17651
2018.02.20 12:07:08,31.98,2.58,-31.74,-0.33999,0.73504,10.64016,0.05893,-0.02449,0.28235,304.11899,-6.47476,-1.804,1015.177
2018.02.20 12:07:08,32.4,3.24,-31.56,-0.37351,0.23943,9.21796,0.18294,-0.12345,0.29884,303.05917,-5.91056,-0.90245,1015.17627
2018.02.20 12:07:08,31.8,1.68,-33.54,-0.419,0.18915,9.34964,-0.16953,0.09646,0.02212,302.17926,-5.75203,0.0107,-0.16953
2018.02.20 12:07:08,32.52,1.56,-34.2,-0.2083,1.10376,8.60263,0.01373,-0.03732,0.09115,301.72668,-5.11703,-0.29682,1015.17554
2018.02.20 12:07:08,31.92,1.8,-33.66,-0.17239,1.2546,9.90751,-0.11272,-0.03365,0.03312,301.41867,-4.97233,-0.50802,-0.11272
2018.02.20 12:07:09,32.94,1.68,-33.36,-0.48125,1.21629,9.75906,0.01312,0.06531,-0.05363,301.75314,-5.63527,-1.21526,0.01312
2018.02.20 12:07:09,33,1.32,-34.44,0.44773,0.72307,11.4997,0.00334,-0.06298,-0.05118,301.98126,-5.87827,-1.1166,0.00334
2018.02.20 12:07:09,32.76,1.92,-34.5,-0.33041,-0.20112,10.19961,0.00762,0.01338,-0.1648,302.69894,-4.79142,-0.3104,0.00762
2018.02.20 12:07:09,33.06,1.86,-34.56,-0.10295,0.22267,8.91867,0.10658,0.01705,-0.12143,303.55618,-3.52314,-0.33769,0.10658
2018.02.20 12:07:09,32.88,3.42,-35.04,-0.16281,0.71349,9.45739,-0.02415,0.00055,-0.1532,304.61319,-2.91525,-0.48602,-0.02415
2018.02.20 12:07:09,33.06,3.06,-35.52,-0.06465,1.18038,8.86839,0.03266,0.00422,-0.12632,305.14523,-3.94467,-0.63944,0.03266
2018.02.20 12:07:09,33.66,2.94,-34.5,-0.05028,1.38389,9.77582,-0.00093,0.04332,-0.03164,305.86871,-4.80245,-0.94436,-0.00093
2018.02.20 12:07:09,33.54,4.14,-34.86,-0.09817,1.48206,9.87638,0.07115,0.05737,0.02395,305.79077,-6.16274,-1.09154,0.07115
2018.02.20 12:07:09,34.08,3.66,-34.86,-0.23224,1.17798,10.82212,-0.01682,0.12273,0.22981,304.92352,-6.33478,-1.23659,1015.17505
2018.02.20 12:07:10,33.84,4.5,-35.58,-1.01278,-0.05028,10.12299,-0.08646,-0.12223,0.07221,304.19266,-5.26493,-0.86872,1015.17188
2018.02.20 12:07:10,34.68,3.12,-36.48,-0.63448,0.10295,8.96656,-0.16281,-0.09779,0.11925,302.98734,-5.00429,-0.94087,-0.16281
2018.02.20 12:07:10,33.84,3.18,-35.76,-0.32323,0.84278,8.95459,0.02167,0.05675,0.23653,302.24506,-4.06385,-0.96527,0.02167
2018.02.20 12:07:10,34.74,2.94,-36.06,-0.27534,1.05109,9.48851,-0.00949,0.09951,0.11192,301.33331,-4.10849,-1.40147,1015.17236
2018.02.20 12:07:10,35.64,2.94,-36.3,-0.35675,1.04151,9.65132,0.08214,0.05003,-0.03652,301.35004,-5.04435,-1.72208,0.08214
2018.02.20 12:07:10,34.92,2.58,-36.24,0.13887,0.83321,11.16929,0.09925,-0.10329,-0.07867,301.90652,-5.36662,-1.295,0.09925
2018.02.20 12:07:10,35.46,2.64,-37.32,0.06225,0.1245,9.82371,0.11635,0.00483,-0.1532,303.06,-5.12141,-1.01963,0.11635
2018.02.20 12:07:10,35.28,3.42,-38.04,-0.41421,-0.20591,8.47813,0.04122,0.08363,-0.32974,304.70184,-4.58318,-1.34585,0.04122
2018.02.20 12:07:10,34.92,5.1,-36.3,-0.48604,0.71349,9.12698,-0.10356,-0.08741,-0.12265,305.40408,-3.76275,-1.40051,-0.10356
2018.02.20 12:07:11,36.3,4.14,-38.94,-0.12929,0.83321,8.85403,0.05954,0.04515,-0.07562,305.55511,-4.12472,-1.70652,0.05954
2018.02.20 12:07:11,36.66,3.24,-38.04,-0.02634,1.24023,9.32091,-0.01498,0.09035,-0.02064,305.93021,-4.32447,-1.98625,-0.01498
2018.02.20 12:07:11,36.54,4.26,-38.04,-0.4166,1.19235,9.86202,0.03083,0.00789,-0.00354,305.96869,-5.12035,-1.6676,0.03083
2018.02.20 12:07:11,36.3,3.36,-37.92,-0.06943,1.0439,10.52044,0.0064,-0.00128,0.19133,305.13339,-5.29795,-1.42965,0.0064
2018.02.20 12:07:11,35.76,3.42,-38.04,-0.80448,-0.18196,11.3752,-0.02048,-0.16132,0.06488,304.74844,-4.34588,-0.90422,-0.02048
2018.02.20 12:07:11,35.82,2.52,-39.36,-0.70871,-0.01197,8.88515,0.03816,-0.10879,0.17117,303.42828,-4.38194,-0.42282,1015.17676
2018.02.20 12:07:11,35.1,2.82,-40.08,-0.62969,0.45491,9.22275,-0.00216,0.13922,0.17117,302.7782,-2.86836,-1.42663,-0.00216
2018.02.20 12:07:11,35.34,2.28,-39.06,-0.29689,1.05348,9.18923,-0.04369,0.02988,0.12352,301.9975,-2.87438,-2.06262,1015.17578
2018.02.20 12:07:11,35.76,1.44,-38.94,-0.39266,1.12291,9.71597,-0.04247,0.05248,-0.02369,302.01434,-3.51335,-2.51849,1015.17114
2018.02.20 12:07:11,34.86,1.38,-39.12,-0.30407,0.93856,11.07113,0.01434,-0.07641,-0.0915,302.40836,-4.33792,-2.14314,0.01434
2018.02.20 12:07:12,35.7,1.62,-40.2,-0.32083,-0.11014,11.09268,0.02228,0.00911,-0.27048,303.26514,-4.8082,-1.4335,0.02228
2018.02.20 12:07:12,35.4,1.14,-40.68,0.11971,-0.19154,8.97135,0.08214,0.05187,-0.25094,304.06863,-4.80807,-1.07478,0.08214
2018.02.20 12:07:12,34.74,2.28,-40.08,-0.36632,0.2107,9.63217,-0.08462,0.03965,-0.24666,305.57568,-3.7744,-1.58569,-0.08462
2018.02.20 12:07:12,34.98,2.1,-40.26,0.32323,1.07024,8.86361,-0.01132,-0.01166,-0.0182,305.68115,-3.70599,-1.50168,-0.01132
2018.02.20 12:07:12,35.1,2.7,-39.78,-0.12211,0.83081,9.45739,-0.02109,-0.01899,-0.08356,306.33664,-3.85018,-1.06787,-0.02109
2018.02.20 12:07:12,34.32,2.94,-39.84,-0.34478,1.57783,9.34964,0.03144,0.0427,0.02823,306.46063,-4.76475,-1.39508,0.03144
2018.02.20 12:07:12,34.5,1.68,-40.92,-0.06943,1.19474,10.78621,-0.00338,-0.02083,0.05083,305.93961,-5.62009,-1.32314,-0.00338
2018.02.20 12:07:12,34.56,2.22,-40.74,-0.50759,-0.15084,11.39675,-0.17992,-0.11001,0.07771,305.02304,-5.33579,-0.87277,-0.17992
2018.02.20 12:07:12,34.44,1.62,-41.64,-0.51956,0.11493,9.00247,0.08642,0.06592,0.21393,304.29291,-4.49762,-0.74847,0.08642
2018.02.20 12:07:13,33.48,0.48,-40.44,-0.49083,-0.11971,9.95539,-0.13838,-0.07214,0.04961,303.35919,-3.674,-1.0366,-0.13838
2018.02.20 12:07:13,34.98,0.24,-42.18,-0.39266,0.8787,8.96416,0.0687,0.12639,0.2176,302.60162,-2.98211,-1.76117,0.0687
2018.02.20 12:07:13,34.5,0.24,-41.58,-0.30407,0.93856,10.00807,0.03816,0.05248,-0.09394,302.51495,-3.20421,-2.08666,0.03816
2018.02.20 12:07:13,34.02,0,-39.48,-0.11253,0.84757,10.44862,0.13834,0.00483,-0.02064,302.94272,-4.15377,-2.234,1015.18286
2018.02.20 12:07:13,34.14,0.12,-41.1,0.53153,1.01517,10.29538,0.24036,-0.03243,0.02456,303.15173,-5.34784,-1.67108,0.24036
2018.02.20 12:07:13,34.32,0.78,-41.7,-0.18675,0.30886,9.56513,0.05588,0.03415,-0.25888,304.87033,-4.89566,-0.86915,0.05588
2018.02.20 12:07:13,33.66,1.44,-41.4,-0.47167,-0.249,8.94501,-0.0498,0.05309,-0.26193,306.63815,-4.99483,-1.22805,-0.0498
2018.02.20 12:07:13,33.3,2.94,-40.2,-0.26337,0.71828,8.78459,-0.01132,-0.00616,-0.086,307.29962,-4.32242,-1.28147,-0.01132
2018.02.20 12:07:13,34.14,2.58,-40.68,-0.44294,0.8787,9.16768,-0.10112,0.05859,-0.086,307.46048,-4.13547,-1.35507,-0.10112
2018.02.20 12:07:14,34.32,2.4,-39.9,0.00239,1.4198,9.76385,-0.07607,0.05798,0.07588,307.21149,-4.11979,-1.5447,-0.07607
2018.02.20 12:07:14,34.86,2.76,-40.62,-0.11253,1.05588,10.75269,0.0571,-0.01899,0.11925,306.7973,-5.12105,-1.08256,0.0571
2018.02.20 12:07:14,34.38,2.82,-40.8,0.11732,0.08141,12.15573,-0.06935,-0.01533,0.09665,306.13922,-5.07815,-0.70482,-0.06935
2018.02.20 12:07:14,34.2,2.52,-40.2,-0.1245,0.49801,8.17166,0.35642,-0.17476,0.28785,305.29813,-5.38908,0.04299,0.35642
2018.02.20 12:07:14,34.86,0.96,-39.96,-0.66561,-0.17957,10.46059,-0.22879,-0.10757,0.00624,304.82581,-4.33342,0.35766,-0.22879
2018.02.20 12:07:14,33.72,1.5,-39.3,-0.4166,0.90504,8.34644,0.03816,0.1044,0.2347,303.89349,-3.87282,-0.50004,0.03816
2018.02.20 12:07:14,34.68,-0.24,-39.78,-0.20351,0.93856,9.76146,-0.07607,0.0366,0.13941,303.08395,-3.43003,-1.00347,-0.07607
2018.02.20 12:07:14,35.22,0.84,-39.06,-0.21548,1.04869,9.66569,0.01312,0.11173,0.0997,302.69406,-3.62658,-1.76017,1015.17285
2018.02.20 12:07:14,35.04,0.9,-39.18,0.23224,1.10855,10.47256,0.08153,-0.09657,0.11497,302.15967,-4.36119,-1.31119,1015.17261
2018.02.20 12:07:14,35.82,0.42,-38.46,0.06704,-0.04549,11.08789,-0.17625,-0.03549,-0.1758,302.7948,-3.78999,-0.68778,-0.17625
2018.02.20 12:07:15,34.02,0.9,-37.38,0.17239,-0.23464,8.34884,0.24402,0.10379,-0.2375,303.88513,-3.72545,-0.40018,0.24402
2018.02.20 12:07:15,34.68,1.98,-37.68,-0.65843,0.32802,9.63456,-0.10356,-0.02083,-0.16664,304.98273,-3.26626,-0.59349,1015.17627
2018.02.20 12:07:15,34.62,1.98,-38.22,0.12211,0.90982,8.81333,0.05099,0.04087,0.03922,304.78955,-3.50778,-0.91379,0.05099
2018.02.20 12:07:15,35.64,2.28,-36.78,0.18675,1.22826,9.57231,-0.05836,0.02927,0.01235,305.00116,-3.70631,-1.29506,-0.05836
2018.02.20 12:07:15,35.4,2.64,-37.08,0.1676,1.06545,9.85484,0.06443,-0.06847,0.08443,304.71155,-4.98774,-1.03974,0.06443
2018.02.20 12:07:15,35.34,1.74,-36.78,0.2107,1.01996,10.47495,0.14262,-0.03549,0.18217,304.01233,-5.5116,-0.62873,0.14262
2018.02.20 12:07:15,34.74,3.48,-36.24,-0.78053,-0.25379,10.31454,-0.13288,-0.1039,-0.10127,304.16492,-4.52567,0.00107,-0.13288
2018.02.20 12:07:15,33.6,2.22,-36,-0.82602,-0.33999,8.69361,-0.0272,0.01705,0.07038,303.52197,-4.41302,-0.45341,-0.0272
2018.02.20 12:07:15,33.3,3.24,-35.88,-0.43097,0.38308,9.00247,0.06321,0.07936,0.18217,303.14243,-1.70257,-2.52967,0.06321
2018.02.20 12:07:16,33.6,3.12,-35.04,-0.52913,1.07742,9.17486,-0.03453,0.06958,-0.01148,302.54034,-2.27921,-3.04098,-0.03453
2018.02.20 12:07:16,32.88,3.96,-34.62,-0.73504,1.0894,9.6609,-0.01315,0.06714,-0.02308,302.72147,-3.51229,-3.29236,-0.01315
2018.02.20 12:07:16,32.58,3.72,-34.44,-0.14605,1.07264,10.38397,0.0461,-0.15033,-0.01209,302.82288,-4.30422,-2.80753,0.0461
2018.02.20 12:07:16,31.98,4.8,-34.56,0.49801,-0.62491,10.98972,-0.25139,-0.03426,-0.21551,303.43552,-3.85276,-1.32866,-0.25139
2018.02.20 12:07:16,31.02,6.06,-35.16,0.48604,-0.16042,9.56752,-0.00888,0.05065,-0.16297,304.28354,-2.71748,-0.76894,-0.00888
2018.02.20 12:07:16,31.26,6.72,-34.2,-0.16281,0.28971,9.52921,-0.06813,0.06164,-0.18252,305.3595,-2.34446,-0.85916,1015.17749
2018.02.20 12:07:16,30.18,6.78,-34.68,-0.03831,0.49322,9.16528,0.09436,0.03415,-0.09455,305.88181,-2.71475,-0.90605,1015.18408
2018.02.20 12:07:16,30.12,7.44,-33.66,-0.1676,1.13489,9.4526,0.02045,0.00544,-0.00903,306.24939,-2.92223,-0.94375,1015.17358
2018.02.20 12:07:16,29.64,7.5,-33.72,0.03591,0.83321,10.59945,0.04794,-0.07031,0.10886,305.7355,-4.39161,-0.75203,0.04794
2018.02.20 12:07:16,29.52,6.12,-32.58,0.06943,0.65843,10.84846,-0.16648,-0.11062,0.03861,304.655,-4.94076,-0.53897,-0.16648
2018.02.20 12:07:17,29.58,6.78,-32.76,-0.36393,-0.0838,9.51006,0.30877,0.08241,0.30129,304.32648,-4.38841,-0.06171,0.30877
2018.02.20 12:07:17,28.62,6.96,-32.04,-0.87391,-0.32802,9.74949,-0.18908,0.03415,-0.12632,304.08936,-3.86429,-0.0799,-0.18908
2018.02.20 12:07:17,29.22,6.6,-33.12,-0.28492,0.57702,8.85642,-0.03575,0.06225,0.12414,303.48483,-2.98172,-0.72262,-0.03575
2018.02.20 12:07:17,29.34,7.02,-31.74,-0.33999,0.66082,9.25866,-0.05469,0.02865,0.03067,303.1489,-2.75166,-1.12278,-0.05469
2018.02.20 12:07:17,29.7,6.54,-31.2,-0.16999,0.63688,9.82371,0.04794,0.00911,-0.02247,303.23279,-2.93206,-1.35908,0.04794
2018.02.20 12:07:17,29.58,6.9,-31.98,0.06704,0.21548,11.52843,0.01922,-0.04526,-0.04935,303.7048,-2.86667,-1.26216,0.01922
2018.02.20 12:07:17,28.98,7.98,-30.48,-0.8763,-0.39745,10.11581,0.08642,0.08669,-0.28331,305.09366,-2.31635,-1.70414,0.08642
2018.02.20 12:07:17,30,6.84,-30.12,-0.11732,-0.12211,8.9929,0.03694,0.06714,-0.01514,305.48517,-2.79675,-2.12231,0.03694
2018.02.20 12:07:17,29.52,7.44,-29.94,-0.09098,0.75899,8.71037,0.18294,0.08913,0.04717,305.25885,-2.79123,-2.02406,1015.17847
2018.02.20 12:07:18,30,7.2,-30.18,-0.30168,0.64885,9.40471,0.02167,0.09341,-0.08906,305.36191,-3.55029,-2.06067,1015.18823
2018.02.20 12:07:18,30.48,7.74,-29.28,-0.29689,1.24023,8.89234,0.04916,0.11356,0.01357,305.39572,-4.22178,-2.56851,1015.17334
2018.02.20 12:07:18,30.66,6.66,-29.94,-0.14126,1.10855,10.61861,-0.11517,-0.05259,0.04106,305.12131,-4.80345,-2.09983,-0.11517
2018.02.20 12:07:18,30.6,7.02,-26.94,-0.33999,0.11014,11.8756,-0.35035,-0.18637,-0.04691,304.56012,-4.69813,-1.60366,-0.35035
2018.02.20 12:07:18,29.4,7.92,-28.98,-0.7925,0.19154,9.38077,-0.12616,-0.03732,0.04533,304.3045,-3.44025,-0.89097,1015.16284
2018.02.20 12:07:18,30.96,6.78,-29.22,-0.85236,-0.48364,9.96976,-0.07241,-0.06298,0.07527,303.86435,-2.76031,-0.93122,-0.07241
2018.02.20 12:07:18,30.66,6.06,-29.34,-0.52435,0.73265,8.35841,0.09864,-0.00616,0.1504,302.78156,-1.79219,-2.34043,0.09864
2018.02.20 12:07:18,30.9,5.82,-29.34,-0.50759,0.80687,9.62259,0.00212,0.00178,0.03189,302.47821,-2.31806,-2.68325,0.00212
2018.02.20 12:07:18,30.96,5.28,-29.04,-0.22506,0.838,9.85484,0.10169,0.01888,0.02701,302.41171,-3.18471,-2.90097,0.10169
2018.02.20 12:07:19,30.54,5.16,-28.92,-0.03352,0.80448,11.78941,0.14384,-0.09474,0.08382,302.31839,-3.88805,-2.16342,0.14384
2018.02.20 12:07:19,31.32,5.7,-28.8,-0.86433,-0.28013,9.88596,0.06687,-0.0477,-0.36272,303.3967,-3.83841,-2.29949,0.06687
2018.02.20 12:07:19,30.48,6.12,-28.56,-0.39745,-0.65124,9.56513,-0.07974,0.00422,-0.23444,304.52185,-3.73389,-2.43344,-0.07974
2018.02.20 12:07:19,31.44,6,-29.16,-0.17957,0.7925,8.39433,0.04244,0.03354,0.049,304.82831,-2.97234,-2.54778,0.04244
2018.02.20 12:07:19,29.4,6.66,-27.6,-0.07422,0.52435,9.17486,-0.00888,0.02621,-0.05363,305.10269,-2.77496,-2.24979,-0.00888
2018.02.20 12:07:19,31.08,6.3,-28.08,0.2945,1.33122,9.25387,-0.02415,0.02988,0.07527,304.75385,-3.25315,-1.59762,-0.02415
2018.02.20 12:07:19,31.68,6.12,-28.62,-0.22985,1.01996,10.7072,-0.00949,-0.05931,0.0716,304.57098,-4.40932,-0.75284,-0.00949
2018.02.20 12:07:19,31.56,4.56,-28.08,0.05507,0.52195,11.09746,0.01984,0.09157,0.16934,303.81158,-4.54996,-0.78649,0.01984
2018.02.20 12:07:19,31.92,5.22,-28.14,0.0431,0.21788,8.86361,0.19943,-0.18698,0.13147,303.40726,-3.71757,-0.29587,1015.17651
2018.02.20 12:07:19,31.8,5.52,-28.8,-1.09658,-0.43336,9.68484,-0.07912,-0.00739,-0.14037,303.65219,-2.2624,-0.87908,1015.17578
2018.02.20 12:07:20,31.44,4.92,-27.54,-0.23464,0.90025,8.59305,0.0687,-0.04526,0.16567,303.22098,-1.44188,-2.02438,0.0687
2018.02.20 12:07:20,31.56,4.68,-29.1,-0.33759,0.838,9.6609,0.01251,0.01399,-0.0072,302.74475,-2.42728,-1.72611,0.01251
2018.02.20 12:07:20,30.9,4.56,-28.86,-0.39745,1.18517,9.4526,0.06321,0.01644,0.05266,302.51151,-3.49336,-2.10496,1015.17407
2018.02.20 12:07:20,31.92,4.14,-29.22,0.25858,0.32083,11.32731,0.03999,-0.17721,0.00013,302.45029,-3.81881,-1.59378,0.03999
2018.02.20 12:07:20,32.82,4.38,-29.4,0.59857,0.07422,9.70639,-0.11272,0.19481,-0.22406,303.22894,-2.64942,-0.78468,-0.11272
2018.02.20 12:07:20,32.7,5.58,-30.06,-0.66082,-0.39027,9.80455,-0.01926,0.0537,-0.26743,304.5094,-1.81751,-0.10378,-0.01926
2018.02.20 12:07:20,33.12,5.1,-29.16,-0.4597,0.60336,8.87797,0.09742,0.08913,0.05022,305.02344,-1.42366,-0.86941,0.09742
2018.02.20 12:07:20,32.88,4.98,-29.46,-0.34717,0.65364,8.93304,0.07787,0.0427,-0.01881,305.05444,-2.19719,-1.59334,0.07787
2018.02.20 12:07:20,33.66,4.44,-29.4,-0.00958,0.88349,9.4526,0.03205,0.07875,0.06061,305.00027,-2.71093,-1.99377,0.03205
2018.02.20 12:07:21,34.74,5.04,-30.36,-0.07422,0.7925,10.60664,-0.00399,-0.01899,0.09787,304.46344,-3.61026,-1.76285,-0.00399
2018.02.20 12:07:21,34.38,4.74,-29.4,0.13887,0.44055,10.63776,-0.41021,-0.1711,-0.06401,303.6694,-3.08085,-1.11862,-0.41021
2018.02.20 12:07:21,35.46,4.98,-29.94,-0.08619,0.42379,8.52841,0.20493,-0.01716,0.20477,303.07629,-2.64397,-1.0113,0.20493
2018.02.20 12:07:21,35.22,4.26,-30.42,-1.05827,-0.69673,9.98173,-0.01071,-0.02327,-0.02675,302.93451,-2.58444,-0.84037,1015.18091
2018.02.20 12:07:21,35.88,3.48,-30.78,-0.51716,0.68716,8.80375,0.10597,0.05737,0.17117,302.26437,-1.43883,-2.41949,1015.17651
2018.02.20 12:07:21,35.82,3.24,-31.56,-0.53871,0.77575,9.45499,0.03022,0.01399,-0.05729,302.42334,-1.79745,-2.53283,0.03022
2018.02.20 12:07:21,36.54,2.76,-31.74,-0.57223,0.35196,10.39115,-0.04919,-0.09779,-0.11105,302.93018,-2.49772,-2.67423,-0.04919
2018.02.20 12:07:21,35.7,3.54,-32.04,0.04789,0.0431,11.11901,0.00212,-0.04893,0.00441,303.22031,-2.38063,-2.48619,1015.17749
2018.02.20 12:07:21,37.2,4.32,-32.04,-0.38787,-0.30168,10.43425,-0.10112,0.04026,-0.14587,303.94485,-0.9262,-2.4282,-0.10112
2018.02.20 12:07:21,38.16,4.26,-31.5,-0.01676,-0.22027,9.91948,-0.01071,0.03537,-0.13793,304.80627,-0.01439,-2.41552,-0.01071
2018.02.20 12:07:22,37.98,4.74,-32.28,-0.13647,0.37351,9.02881,0.10291,0.01766,-0.07256,305.12424,-0.41539,-2.31483,0.10291
2018.02.20 12:07:22,37.26,4.32,-32.46,-0.69434,0.76377,8.71995,-0.01071,0.0427,-0.12693,306.138,-1.0302,-2.44341,-0.01071
2018.02.20 12:07:22,37.2,4.8,-31.92,-0.47167,1.06066,9.85005,-0.04858,-0.04954,-0.00415,306.16595,-2.17793,-2.3644,-0.04858
2018.02.20 12:07:22,37.2,4.02,-31.86,-0.17478,1.29051,10.09187,0.09558,-0.13017,0.16934,305.27054,-3.7585,-2.11775,0.09558
2018.02.20 12:07:22,38.58,3.12,-32.46,-0.1245,0.26337,10.8317,-0.38883,-0.04648,0.02517,304.22269,-3.39575,-2.05686,-0.38883
2018.02.20 12:07:22,38.94,2.16,-32.64,-0.09577,-0.06225,8.25307,0.09253,-0.07153,0.26647,302.91449,-3.3591,-2.11698,0.09253
2018.02.20 12:07:22,39.24,1.74,-32.64,-1.02236,-0.33041,10.24031,0.07604,0.02865,0.09237,302.71481,-2.14698,-1.78405,0.07604
2018.02.20 12:07:22,38.76,0.78,-32.94,-0.5028,0.75659,8.41348,0.13956,0.06897,0.11925,301.99463,-2.73569,-2.58025,1015.17896
2018.02.20 12:07:22,40.02,-0.48,-33.18,-0.52674,0.97686,9.7878,0.0406,-0.008,-0.08112,302.2457,-3.27009,-2.76856,1015.16846
2018.02.20 12:07:23,39.78,0.18,-32.46,-0.61293,0.66321,10.29059,0.02717,-0.10268,-0.0915,302.75107,-4.05081,-2.76117,0.02717
2018.02.20 12:07:23,39.72,0.06,-33.6,-0.16281,-0.15563,11.06155,-0.11394,-0.14483,-0.06035,303.0593,-3.88294,-2.06779,-0.11394
2018.02.20 12:07:23,40.2,-0.36,-35.28,-0.28252,-0.39984,9.47654,0.08337,0.01338,0.00441,303.33295,-2.12957,-1.65352,0.08337
2018.02.20 12:07:23,39.36,-0.48,-33.72,-0.20112,0.09098,9.58189,0.00334,0.01155,-0.11105,303.84888,-0.6547,-1.92882,0.00334
2018.02.20 12:07:23,39.54,-1.62,-33.72,-0.08141,0.5004,8.56432,0.12246,0.05431,-0.12021,304.20792,-1.27145,-1.93427,0.12246
2018.02.20 12:07:23,39.9,-1.32,-34.68,-0.33041,0.94574,9.34007,0.01312,-0.01899,-0.05302,304.83228,-2.06649,-1.78958,0.01312
2018.02.20 12:07:23,40.2,-0.66,-32.94,0.01676,1.01038,9.62977,-0.04797,-0.02144,-0.02492,304.62302,-3.52448,-1.44078,-0.04797
2018.02.20 12:07:23,40.26,-1.8,-34.98,-0.08859,1.17319,10.42467,-0.00521,-0.00128,0.09726,304.30228,-3.81154,-1.16236,-0.00521
2018.02.20 12:07:23,40.08,-2.34,-33.3,-0.2945,-0.61054,11.39675,-0.1115,-0.05015,-0.13609,304.23553,-3.02048,-0.74063,-0.1115
2018.02.20 12:07:24,40.14,-2.82,-33.9,-0.90264,-0.27774,9.55555,-0.06569,0.01522,-0.06096,304.09143,-1.90467,-0.99453,-0.06569
2018.02.20 12:07:24,39.78,-3.12,-33.6,-0.34956,0.68955,8.70079,0.10047,0.09157,0.1333,303.94559,-1.13463,-2.24689,0.10047
2018.02.20 12:07:24,40.92,-4.26,-34.26,-0.59857,0.75659,9.30415,-0.00582,-0.02327,0.00441,303.80545,-1.99858,-2.44296,1015.17432
2018.02.20 12:07:24,40.32,-4.26,-33.3,-0.46928,1.10376,9.42147,0.05282,0.02377,-0.03958,304.04599,-3.0803,-2.87299,1015.17749
2018.02.20 12:07:24,40.5,-4.74,-33.48,-0.66561,0.97208,11.05197,-0.06324,0.02071,-0.07012,304.32565,-3.83497,-2.98586,1015.17529
2018.02.20 12:07:24,39.6,-4.38,-33.24,-0.27055,-0.23943,10.54199,-0.06324,0.0482,-0.17641,305.01056,-3.24329,-2.55057,-0.06324
2018.02.20 12:07:24,39.3,-4.26,-33.72,-0.419,-0.2083,8.89473,-0.03087,0.10746,-0.2039,305.96136,-1.8773,-2.31575,-0.03087
2018.02.20 12:07:24,37.86,-4.08,-31.92,-0.45012,0.24661,9.34725,-0.06874,-0.06175,-0.09272,306.50739,-1.18875,-2.09278,1015.17163
2018.02.20 12:07:24,38.52,-5.4,-32.52,-0.31604,0.65843,8.61939,0.09253,0.03721,-0.08356,306.78729,-1.93554,-2.35631,0.09253
2018.02.20 12:07:24,38.46,-5.46,-33.18,-0.19154,1.03912,9.83808,-0.01559,0.01338,0.06183,306.76105,-2.50337,-2.47702,-0.01559
2018.02.20 12:07:25,36.9,-5.94,-32.22,0.02634,0.89785,12.14137,-0.01559,-0.17782,0.10642,305.90701,-4.25999,-1.5518,-0.01559
2018.02.20 12:07:25,37.32,-7.08,-32.64,0.19394,0.82363,10.86043,-0.19213,-0.13139,-0.02003,305.02228,-4.52813,-0.97838,-0.19213
2018.02.20 12:07:25,37.32,-7.68,-32.7,-0.05746,-0.03591,8.78699,0.0461,0.07325,0.01907,304.96304,-3.05313,-0.92362,0.0461
2018.02.20 12:07:25,35.4,-7.38,-32.1,-1.19235,-0.48604,10.15172,-0.11028,-0.06664,-0.07745,305.21332,-0.45292,-1.87174,-0.11028
2018.02.20 12:07:25,35.4,-7.98,-31.44,-0.43097,0.66082,8.47813,0.07176,0.04515,0.10459,304.37897,-0.38823,-3.06087,0.07176
2018.02.20 12:07:25,35.52,-9.12,-31.8,-0.30407,0.85715,9.37598,-0.05164,0.02255,-0.0298,304.23294,-1.28336,-3.15214,-0.05164
2018.02.20 12:07:25,34.32,-8.4,-31.26,-0.32083,0.85954,9.85723,0.07115,-0.03976,-0.03408,304.56696,-2.62174,-3.03437,0.07115
2018.02.20 12:07:25,33.9,-8.1,-31.08,-0.20591,0.55308,10.8293,0.02045,-0.13261,-0.10066,305.04013,-3.08048,-2.05496,1015.17285
2018.02.20 12:07:25,33.36,-7.62,-31.98,-0.14845,-0.35435,10.44862,-0.14693,-0.2163,-0.09944,305.81906,-1.98704,-0.85607,1015.16797
2018.02.20 12:07:26,32.04,-6.6,-31.92,-0.1676,-0.40942,9.44781,-0.0498,0.15388,-0.11716,306.62741,-1.71178,-1.49115,-0.0498
2018.02.20 12:07:26,31.56,-6.66,-31.02,0.14845,0.68955,8.51883,0.09925,0.09646,0.08504,306.26315,-1.3266,-1.7567,0.09925
2018.02.20 12:07:26,31.2,-6.9,-30.12,-0.15802,0.7111,9.57471,0.01495,0.0928,-0.00964,306.55646,-1.7348,-1.75079,0.01495
2018.02.20 12:07:26,31.26,-6.06,-30.42,-0.22746,1.18277,9.62259,0.07237,0.04637,0.04594,306.34366,-3.26961,-1.59338,0.07237
2018.02.20 12:07:26,30.9,-6.84,-29.4,0.07422,1.36953,10.38876,0.09742,-0.01594,0.09359,305.82794,-4.31676,-1.35599,0.09742
2018.02.20 12:07:26,30.18,-7.26,-29.46,0.03831,-0.31126,12.08391,-0.15854,-0.15766,-0.15442,305.55164,-4.16081,-0.65045,-0.15854
2018.02.20 12:07:26,30.24,-7.92,-29.4,-1.17319,-0.26576,8.51165,-0.03209,0.05248,-0.07745,305.35239,-4.03063,-1.2186,-0.03209
2018.02.20 12:07:26,28.8,-7.5,-29.58,-1.0463,0.14366,9.13416,0.06443,0.11967,0.20233,305.47507,-2.27113,-2.00279,0.06443
2018.02.20 12:07:26,28.62,-7.56,-28.92,-0.4597,0.80926,9.06472,-0.06324,-0.02938,0.12352,304.55844,-2.21599,-2.9868,-0.06324
2018.02.20 12:07:27,26.88,-6.84,-27.42,-0.76138,0.81405,9.86441,-0.12555,0.08302,-0.03225,304.45673,-2.38353,-3.16326,-0.12555
2018.02.20 12:07:27,26.04,-7.62,-28.98,-0.55308,0.64406,11.15971,-0.11883,-0.06114,-0.07806,304.43982,-2.67602,-2.47239,1015.1748
2018.02.20 12:07:27,26.04,-7.62,-28.98,-0.02873,0.08619,11.17408,-0.02598,-0.08741,-0.10494,305.03653,-2.42552,-2.21647,-0.02598
2018.02.20 12:07:27,24.12,-7.08,-28.68,0.46688,-0.74462,8.76305,-0.0217,0.1606,-0.16236,306.02002,-1.7193,-1.93802,-0.0217
2018.02.20 12:07:27,23.94,-6.6,-28.62,-0.41182,0.19154,9.90033,-0.07668,-0.01533,-0.11532,306.78851,-1.03451,-1.98332,1015.18652
2018.02.20 12:07:27,23.58,-7.2,-27.72,-0.22506,0.55787,8.62897,0.07115,0.05431,-0.04935,306.88089,-1.72281,-2.06704,0.07115
2018.02.20 12:07:27,22.74,-7.62,-27.9,-0.33999,0.79969,9.90272,-0.04797,-0.10818,-0.0463,307.02942,-2.27397,-1.73387,-0.04797
2018.02.20 12:07:27,22.74,-7.86,-28.38,-0.13408,1.14207,10.7886,-0.09989,-0.11429,0.05938,306.80939,-3.27055,-1.1368,-0.09989
2018.02.20 12:07:27,21.42,-7.68,-27.72,-0.05746,0.73265,10.79578,0.06504,0.0647,0.20294,305.88376,-3.76434,-0.95078,0.06504
2018.02.20 12:07:28,21.78,-7.62,-27.18,-1.01517,-0.67519,9.46457,-0.241,0.00117,0.02701,305.39352,-2.73782,-0.98969,-0.241
2018.02.20 12:07:28,20.76,-8.94,-26.46,-0.43336,-0.73025,9.58668,-0.0834,-0.06114,0.1107,304.39362,-2.37304,-1.19884,-0.0834
2018.02.20 12:07:28,20.94,-7.56,-26.1,-0.35675,0.7542,8.66727,0.03144,0.05187,0.05999,303.71548,-1.8447,-1.75044,0.03144
2018.02.20 12:07:28,20.88,-8.28,-25.2,-0.62251,0.77335,9.54597,-0.01376,-0.00128,-0.02308,303.80145,-2.26243,-2.11652,-0.01376
2018.02.20 12:07:28,21.12,-7.86,-25.5,-0.82602,0.84997,9.40232,0.08886,0.0366,-0.05424,304.2323,-3.28844,-2.90125,0.08886
2018.02.20 12:07:28,19.68,-8.7,-24.54,-0.65603,0.52195,10.18764,-0.01987,-0.15461,-0.02431,304.36789,-3.59003,-2.61272,-0.01987
2018.02.20 12:07:28,18.42,-8.4,-25.14,-0.07183,-0.69913,11.13817,-0.23978,-0.09413,-0.01697,304.14136,-2.26375,-1.30496,-0.23978
2018.02.20 12:07:28,18.78,-7.38,-25.68,0.05986,-0.64167,8.09504,-0.01621,0.17404,-0.22161,304.31989,-1.31061,-1.36967,-0.01621
2018.02.20 12:07:28,19.32,-6.78,-24.6,-0.15084,-0.10295,9.92906,-0.04919,0.09218,-0.13793,305.39215,-0.23417,-1.81437,1015.17383
2018.02.20 12:07:28,18.72,-7.74,-24.54,-0.18196,0.30647,8.91867,0.0687,0.03354,-0.1367,305.87994,-0.63321,-2.02663,1015.18188
2018.02.20 12:07:29,19.14,-5.46,-24.18,-0.39745,0.91222,9.5364,0.018,0.02865,-0.0579,306.58539,-1.16314,-2.01927,1015.18188
2018.02.20 12:07:29,19.02,-5.76,-24.54,-0.06465,0.77096,10.32411,0.09619,-0.04648,0.07832,306.38339,-2.80446,-1.80845,0.09619
2018.02.20 12:07:29,17.82,-6.42,-24.24,-0.2514,0.46688,10.00567,0.10047,0.11601,0.22859,305.41974,-3.08285,-1.92157,1015.17847
2018.02.20 12:07:29,17.58,-5.94,-23.64,-0.40703,-0.39506,8.9474,0.11574,0.02621,0.1107,304.77063,-2.54402,-1.6697,1015.17432
2018.02.20 12:07:29,16.56,-5.1,-24.24,-0.8356,-0.74701,9.75667,-0.15182,-0.02571,-0.04507,304.51883,-1.91083,-1.62741,-0.15182
2018.02.20 12:07:29,16.92,-4.98,-23.82,-0.40703,0.80208,8.65051,0.00456,-0.03854,0.10275,303.86459,-1.25345,-1.92066,0.00456
2018.02.20 12:07:29,16.38,-4.68,-24.12,-0.56026,0.71589,9.59625,-0.04736,-0.03426,0.05083,303.56427,-1.78751,-2.45855,-0.04736
2018.02.20 12:07:29,16.38,-4.68,-24.12,-0.56744,0.7518,9.67048,0.15545,0.06531,0.00868,303.49814,-2.95428,-2.78766,0.15545
2018.02.20 12:07:29,15.66,-4.02,-24.54,-0.28252,-0.27774,11.37041,0.12796,0.05309,-0.11716,304.22675,-3.5499,-3.13562,0.12796
2018.02.20 12:07:30,15.48,-3.18,-24.6,-0.17239,-0.23224,10.10863,0.06137,0.21008,-0.07745,304.95941,-2.62586,-3.29573,0.06137
2018.02.20 12:07:30,15.36,-2.22,-24.3,-0.28971,0.02634,10.18285,-0.11822,0.01033,-0.10066,306.20901,-1.51413,-3.37333,1015.17236
2018.02.20 12:07:30,16.02,-1.98,-24.84,-0.1676,0.71349,8.29856,0.06565,0.02499,-0.07134,306.26959,-1.60245,-3.11435,0.06565
2018.02.20 12:07:30,15.66,-0.96,-25.44,-0.68476,0.57223,8.98332,-0.00216,0.03049,-0.13243,306.8905,-2.18008,-3.02424,1015.18652
2018.02.20 12:07:30,16.14,-0.66,-25.26,-0.14845,0.97208,9.59865,0.11269,-0.07397,0.04656,306.69864,-3.08429,-2.70523,1015.19287
2018.02.20 12:07:30,15.78,-0.12,-25.68,-0.25858,0.59378,10.63537,-0.0101,0.04637,0.1107,306.41104,-3.85523,-2.36606,-0.0101
2018.02.20 12:07:30,16.02,0.72,-26.1,-0.70871,-0.28252,10.12539,0.06076,0.11418,0.22187,305.70358,-2.83884,-1.97255,0.06076
2018.02.20 12:07:30,16.08,0.96,-26.16,-1.20193,-0.60815,8.89713,-0.02842,-0.01105,0.1107,304.82831,-2.20989,-2.04592,1015.17163
2018.02.20 12:07:30,15.96,2.4,-27,-0.63927,0.43336,8.4877,-0.17137,0.01583,0.16934,304.22577,-0.30164,-2.09341,-0.17137
2018.02.20 12:07:30,16.92,2.94,-27.48,-0.47407,0.45491,9.49091,-0.04797,-0.05503,0.08137,303.07748,-0.09723,-2.31831,-0.04797
2018.02.20 12:07:31,15.36,3.66,-26.82,-0.74462,0.64885,9.65372,0.09925,0.01399,0.00441,302.99747,-1.01677,-2.81852,0.09925
2018.02.20 12:07:31,15.78,4.14,-27,-0.48364,0.3352,11.05197,0.00029,-0.13567,-0.02614,303.08286,-1.61006,-2.4346,0.00029
2018.02.20 12:07:31,15.78,5.58,-27.72,-0.87391,-0.95292,11.13338,-0.12555,0.01949,-0.33462,304.4119,-0.97326,-2.41269,-0.12555
2018.02.20 12:07:31,16.86,5.28,-27.06,0.10295,-0.41421,9.37359,0.10169,-0.01899,-0.07867,305.10297,-0.89133,-3.41026,0.10169
2018.02.20 12:07:31,16.86,6.78,-28.26,-0.30168,0.19154,8.76544,0.16217,0.12823,-0.08661,305.5712,-0.83128,-3.19119,0.16217
2018.02.20 12:07:31,17.4,6.3,-28.74,-0.41421,0.1269,8.87558,-0.00032,0.0763,-0.15931,306.56525,-1.41446,-3.03378,-0.00032
2018.02.20 12:07:31,17.34,7.38,-27.9,-0.42618,1.19474,9.67048,0.06076,-0.02449,0.0209,306.97174,-1.49097,-2.81715,0.06076
2018.02.20 12:07:31,17.22,7.32,-29.28,-0.57463,0.61533,10.72875,0.06565,-0.08863,0.07038,306.57056,-2.95627,-2.39069,1015.1853
2018.02.20 12:07:31,18.54,6.72,-28.56,-0.39506,-0.42858,11.86363,-0.0889,-0.07336,0.12291,305.50644,-3.32628,-2.26125,1015.18628
2018.02.20 12:07:32,18.42,6.72,-29.22,-0.10056,-0.01437,8.09983,0.25563,-0.00922,0.23898,304.57471,-3.93003,-2.46356,0.25563
2018.02.20 12:07:32,19.68,7.44,-29.34,-1.29051,0.01437,9.25627,-0.01071,0.05553,0.14429,304.72214,-2.53219,-2.24648,-0.01071
2018.02.20 12:07:32,18.9,7.5,-28.8,-0.50998,0.7542,8.89713,-0.03331,-0.04709,0.16506,303.47107,-2.17364,-2.98104,-0.03331
2018.02.20 12:07:32,19.44,7.98,-28.38,-0.75899,0.60096,9.72554,-0.07424,0.1044,0.02273,303.0394,-2.39147,-3.60345,-0.07424
2018.02.20 12:07:32,20.82,6.9,-29.28,-0.43336,0.44294,11.03282,-0.05225,-0.00616,0.01968,302.77646,-2.6619,-3.57111,-0.05225
2018.02.20 12:07:32,20.16,7.02,-29.16,-0.10535,-0.38069,11.1238,-0.09745,0.10257,-0.13793,303.2384,-1.9623,-3.15553,-0.09745
2018.02.20 12:07:32,20.16,8.34,-29.94,-0.41182,-0.2945,11.26267,0.03938,-0.00311,-0.05974,303.72922,-0.84486,-2.60238,0.03938
2018.02.20 12:07:32,21.48,7.8,-30.42,0.08141,0.09577,9.75428,0.03999,0.07142,-0.13365,304.47583,-0.2782,-2.48533,0.03999
2018.02.20 12:07:32,21.72,7.62,-30.3,-0.31604,0.48364,8.76305,0.11941,0.01033,-0.13304,305.34122,-0.88653,-2.3126,0.11941
2018.02.20 12:07:33,21.72,8.04,-31.26,-0.73744,0.50998,9.62977,-0.07912,0.05126,-0.31141,306.83536,-1.08423,-2.28518,-0.07912
2018.02.20 12:07:33,22.2,8.22,-30.84,-0.57463,0.92658,10.19003,0.02167,0.01338,-0.08234,307.47311,-1.59796,-2.51624,1015.17139
2018.02.20 12:07:33,22.26,7.62,-30.6,-0.18436,1.41262,11.11183,0.08703,0.06775,0.17362,306.85226,-3.30695,-2.50599,0.08703
2018.02.20 12:07:33,22.14,7.26,-30.72,-1.28094,-0.56026,9.48851,-0.07912,0.02865,-0.11471,306.89886,-4.03334,-2.56605,1015.17651
2018.02.20 12:07:33,23.22,6.96,-30.12,-0.71828,0.21548,8.44461,0.02411,0.03904,0.17117,305.98212,-4.07148,-2.6908,1015.17456
2018.02.20 12:07:33,23.94,6.48,-31.44,-1.24263,-0.05267,9.6609,-0.09684,0.04942,0.16873,305.70291,-2.52995,-2.78731,-0.09684
2018.02.20 12:07:33,23.52,6.96,-29.88,-0.33999,0.81405,8.86839,-0.05469,-0.02632,0.15223,304.06824,-2.30697,-3.30405,-0.05469
2018.02.20 12:07:33,24.6,6.12,-30.48,-0.78532,0.62491,9.72794,-0.17992,0.18381,-0.03225,303.89322,-1.90163,-3.62264,1015.18555
2018.02.20 12:07:33,24.66,5.64,-29.7,-0.56026,0.5004,11.65294,-0.12555,0.0427,-0.10799,304.13617,-2.08424,-3.22896,-0.12555
2018.02.20 12:07:33,24.84,7.32,-30.36,-0.60096,-0.57223,10.67847,-0.18603,-0.11123,-0.22467,305.2702,-1.43604,-2.60069,-0.18603
2018.02.20 12:07:34,24.24,7.14,-29.4,-0.10535,-0.39745,9.18204,0.08214,0.12395,-0.15259,305.88126,-0.77283,-2.34479,0.08214
2018.02.20 12:07:34,24.78,7.38,-29.88,-0.41421,0.56505,8.67925,0.1304,0.07325,0.05572,306.43478,-0.13251,-2.44331,0.1304
2018.02.20 12:07:34,25.68,6.54,-29.88,-0.3352,0.35675,9.35922,0.05893,0.01583,-0.03713,306.54993,-1.11516,-2.47884,0.05893
2018.02.20 12:07:34,24.6,6.96,-27.72,-0.0407,0.76138,9.18683,0.01312,0.06531,-0.03102,306.7916,-1.85179,-2.50739,0.01312
2018.02.20 12:07:34,25.08,7.32,-29.4,-0.4621,0.57702,10.76227,-0.01926,-0.18026,0.04411,306.69211,-2.42577,-1.77287,-0.01926
2018.02.20 12:07:34,23.82,6.36,-28.86,-0.42139,0.72547,11.38717,-0.09317,-0.03671,0.15407,305.78833,-2.61682,-1.44088,-0.09317
2018.02.20 12:07:34,23.22,6.78,-28.8,0.00718,0.04789,9.32331,-0.0779,-0.15033,-0.01453,305.29562,-2.68768,-0.61245,-0.0779
2018.02.20 12:07:34,24.3,5.34,-29.4,-0.84278,-0.36393,9.7423,0.03389,-0.22363,0.02762,304.91071,-2.77735,-0.36004,1015.18213
2018.02.20 12:07:34,23.1,5.94,-29.28,-0.44534,0.5842,8.48531,0.11269,-0.13261,0.14063,304.21057,-2.76415,-0.59749,1015.17871
2018.02.20 12:07:35,23.76,5.04,-28.38,-0.64167,0.64406,9.77822,-0.09012,0.0818,-0.03041,304.10931,-2.5771,-1.32716,1015.17871
2018.02.20 12:07:35,23.04,4.44,-28.26,-0.1652,0.5435,10.46059,-0.07607,0.01766,0.06794,303.84842,-2.87174,-2.20465,-0.07607
2018.02.20 12:07:35,22.74,5.64,-28.5,0.18915,0.73025,10.48213,0.03389,-0.02083,0.05694,303.45358,-3.34028,-1.6924,1015.17847
2018.02.20 12:07:35,22.98,4.74,-28.74,-0.25379,-0.12211,11.10944,-0.19763,-0.04098,-0.20146,304.09842,-2.62656,-0.87767,1015.18018
2018.02.20 12:07:35,23.34,6.24,-28.26,0.06704,-0.59378,9.64174,0.02594,0.03782,-0.28209,305.16611,-2.38053,-0.52824,0.02594
2018.02.20 12:07:35,22.74,6.36,-28.2,-0.27295,0.51956,8.28419,0.06993,0.0592,-0.0408,305.83316,-2.21413,-0.86362,0.06993
2018.02.20 12:07:35,23.76,6.84,-27.78,-0.22267,0.68716,8.59545,0.02167,0.05981,-0.05851,306.08221,-2.48796,-1.08408,1015.1731
2018.02.20 12:07:35,24.06,6.24,-27.72,0.13887,1.01278,10.07271,0.04183,0.03598,0.08993,306.02661,-2.88095,-1.34933,0.04183
2018.02.20 12:07:35,23.82,6.54,-27.36,-0.17239,0.60815,9.89793,0.05404,0.12151,0.04472,305.69205,-3.72941,-1.53288,0.05404
2018.02.20 12:07:36,24.06,5.58,-27.36,-0.23703,-0.45252,12.69684,-0.2746,-0.17843,-0.02247,305.20685,-2.74182,-1.39346,-0.2746
2018.02.20 12:07:36,24.48,5.82,-28.02,-0.55787,-0.20112,9.08627,-0.02476,-0.03671,-0.03408,304.52896,-3.3816,-1.16896,-0.02476
2018.02.20 12:07:36,25.02,6.66,-27.96,-0.81405,0.29928,8.93064,0.00945,-0.06175,0.06183,304.2771,-2.49199,-1.83239,0.00945
2018.02.20 12:07:36,24.54,5.34,-27.54,-0.45252,0.82602,9.4933,-0.02109,-0.07703,0.11192,303.44138,-2.69095,-2.11341,-0.02109
2018.02.20 12:07:36,24.12,5.34,-28.02,-0.43336,1.0463,9.52203,0.06199,-0.00494,0.03251,303.25311,-3.29818,-2.31477,0.06199
2018.02.20 12:07:36,24.72,5.4,-28.14,-0.67758,0.97447,10.61621,0.01495,-0.07703,-0.02858,303.39874,-3.85861,-2.19434,0.01495
2018.02.20 12:07:36,24.42,6.84,-28.68,0.01437,-0.47407,11.19563,-0.15548,-0.07519,-0.14098,303.80896,-3.68359,-1.36545,-0.15548
2018.02.20 12:07:36,24.72,6,-28.26,0.43576,-0.13647,11.94504,0.0345,0.03904,0.01784,304.16443,-2.20116,-0.95729,1015.1731
2018.02.20 12:07:36,24.84,7.62,-28.74,-0.3328,0.37351,10.13736,-0.10173,0.12578,-0.17641,305.42474,-0.97221,-1.08749,-0.10173
2018.02.20 12:07:36,24.96,7.26,-28.56,-0.03591,0.62251,8.52122,0.08275,-0.0025,-0.09455,305.74689,-1.88995,-1.39178,0.08275
2018.02.20 12:07:37,25.14,7.92,-28.44,-0.15802,0.58899,10.05356,-0.11822,-0.09291,-0.10555,306.51044,-2.08553,-0.91515,-0.11822
2018.02.20 12:07:37,24.78,8.4,-28.38,-0.00479,1.05348,10.41031,-0.02903,-0.11979,0.03312,306.40033,-3.0385,-0.57756,-0.02903
2018.02.20 12:07:37,24.84,7.68,-27.3,-0.34478,1.05348,11.76547,0.05649,0.16488,0.21088,305.46329,-3.79109,-0.72823,0.05649
2018.02.20 12:07:37,24.84,8.04,-26.58,-0.42139,0.18915,9.00487,-0.00032,-0.02816,0.05755,304.85062,-3.41022,-0.5184,-0.00032
2018.02.20 12:07:37,25.26,8.46,-28.92,-0.84757,-0.48125,9.67287,-0.02964,-0.05931,-0.00292,304.03561,-3.45018,-0.38886,-0.02964
2018.02.20 12:07:37,25.8,7.56,-27.06,-0.10774,0.69195,8.4494,0.1078,0.04698,0.11497,303.18692,-3.32803,-0.7515,0.1078
2018.02.20 12:07:37,26.16,7.86,-28.5,-0.06704,0.91222,9.45499,0.05527,0.02804,0.04778,302.97601,-3.63593,-0.99113,0.05527
2018.02.20 12:07:37,26.58,8.46,-27.3,-0.39506,1.05348,9.51006,0.05832,0.0708,-0.10433,303.5647,-4.25991,-1.46141,1015.17944
2018.02.20 12:07:37,26.4,8.7,-27.18,-0.16281,1.38629,10.16609,0.07909,-0.11979,0.03678,303.6131,-5.00288,-1.22249,1015.17896
2018.02.20 12:07:38,26.46,7.26,-28.44,-0.06225,0.12211,10.01286,-0.2068,0.01827,-0.22894,303.98401,-5.10626,-0.77356,-0.2068
2018.02.20 12:07:38,25.92,9.84,-27.06,0.11493,-0.42618,9.92427,-0.01682,0.08608,-0.14648,304.98511,-3.68819,-0.43786,-0.01682
2018.02.20 12:07:38,25.98,9.3,-27.6,-0.27295,0.32562,9.73033,-0.12738,0.02193,-0.09333,305.45206,-2.69398,-0.64198,1015.17407
2018.02.20 12:07:38,25.56,10.08,-26.64,-0.14605,0.7542,9.20838,0.04305,0.00727,0.01846,305.28726,-2.83644,-0.86123,0.04305
2018.02.20 12:07:38,26.22,9.3,-26.46,-0.06465,1.16841,9.37359,0.05465,0.02255,0.06061,305.14468,-3.69438,-1.11642,0.05465
2018.02.20 12:07:38,26.04,8.16,-25.68,0.17239,1.20671,9.85244,0.03572,-0.04526,0.10581,304.59088,-4.83094,-0.89124,0.03572
2018.02.20 12:07:38,26.88,9.12,-25.86,-0.11732,1.13728,10.3289,-0.07302,-0.00494,0.13757,303.86841,-5.11574,-0.71307,-0.07302
2018.02.20 12:07:38,27.3,8.1,-25.74,-0.9218,-0.32802,11.04718,-0.39555,0.00117,-0.1196,303.66235,-4.02059,-0.71986,-0.39555
2018.02.20 12:07:38,26.82,8.28,-24.96,-0.77575,-0.17718,9.72315,-0.06446,-0.09596,-0.04446,303.11755,-4.07975,-1.08815,-0.06446
2018.02.20 12:07:39,27.48,8.52,-25.62,-0.06943,0.82124,8.31532,0.08703,0.07997,0.26341,302.47916,-2.86024,-2.02168,0.08703
2018.02.20 12:07:39,26.82,7.68,-24.78,-0.5842,0.62251,9.30176,-0.05774,-0.0251,0.05144,301.7139,-3.00253,-2.0225,-0.05774
2018.02.20 12:07:39,27.42,7.08,-25.26,-0.07422,0.68955,9.534,-0.04797,0.04332,0.01113,301.50546,-3.11089,-2.05571,-0.04797
2018.02.20 12:07:39,27.96,7.26,-24.96,0.03352,0.22506,10.98972,0.00151,-0.12467,-0.08295,301.90536,-2.91681,-1.28402,1015.17358
2018.02.20 12:07:39,26.82,7.44,-24.18,-0.22267,-0.24661,9.83808,-0.05408,-0.01227,-0.25643,303.43549,-1.99892,-0.92358,1015.17358
2018.02.20 12:07:39,26.22,8.22,-23.1,-0.09577,0.1269,9.85962,-0.00154,0.06042,-0.25338,304.34552,-2.03431,-0.9731,-0.00154
2018.02.20 12:07:39,27.42,7.86,-24.42,0.2083,0.80208,8.54517,0.11574,0.07508,-0.09639,304.99078,-2.83725,-1.22287,0.11574
2018.02.20 12:07:39,27.48,7.56,-24.06,-0.20591,0.76138,9.93385,0.00151,-0.01716,-0.17397,305.89795,-3.32579,-1.16461,0.00151
2018.02.20 12:07:39,27.48,7.68,-23.64,0.13169,1.15165,9.36401,0.1359,0.1325,-0.04019,306.43137,-4.33491,-1.1128,0.1359
2018.02.20 12:07:39,27.54,7.2,-22.98,0.01915,0.97686,10.04159,0.01067,0.03537,0.10886,306.26984,-4.6763,-0.88371,0.01067
2018.02.20 12:07:40,26.82,7.2,-23.22,-0.97447,-0.55787,12.40953,-0.28071,-0.1711,0.00013,305.73773,-3.1891,-0.25405,-0.28071
2018.02.20 12:07:40,27.6,6.3,-22.08,-0.46688,-0.07662,9.19162,-0.11517,-0.06114,0.00929,304.69922,-3.69584,-0.31299,-0.11517
2018.02.20 12:07:40,28.14,6.36,-22.62,-0.80926,0.23943,8.94501,-0.04247,-0.05015,0.07221,304.49448,-2.66207,-0.78874,-0.04247
2018.02.20 12:07:40,28.8,6.12,-21.78,-0.42379,0.78053,9.31612,-0.03942,-0.02021,0.15712,303.40576,-2.59244,-1.99469,-0.03942
2018.02.20 12:07:40,28.74,5.22,-22.08,-0.38308,0.84997,9.51964,-0.00826,0.0482,0.05816,302.84152,-2.93969,-2.22988,-0.00826
2018.02.20 12:07:40,28.2,5.4,-22.62,-0.25379,0.69195,10.7048,-0.05652,-0.11429,0.03495,302.52957,-3.01732,-1.62892,-0.05652
2018.02.20 12:07:40,28.38,4.5,-23.22,0.07183,-0.43097,11.93307,-0.19152,-0.04893,-0.06157,302.91934,-1.85383,-0.8839,-0.19152
2018.02.20 12:07:40,29.1,5.46,-22.98,0.53392,-0.68476,10.07271,0.10475,-0.06053,-0.04813,303.5675,-1.56938,-0.85256,0.10475
2018.02.20 12:07:40,28.86,5.52,-22.56,0.01197,0.32323,8.31532,0.14506,0.09218,-0.16664,304.85413,-1.47591,-1.01563,1015.17383
2018.02.20 12:07:41,28.74,6.12,-21.54,0.23703,0.5866,8.79417,0.0516,0.05003,-0.18435,305.70352,-1.97199,-1.12487,0.0516
2018.02.20 12:07:41,28.86,5.7,-22.14,-0.15323,1.09418,9.27303,-0.02537,-0.00189,-0.1196,306.81961,-2.41196,-1.14151,-0.02537
2018.02.20 12:07:41,29.16,6.06,-22.8,-0.0838,0.48604,11.31295,-0.00888,-0.09291,-0.05179,307.1821,-3.20555,-0.48455,1015.15674
2018.02.20 12:07:41,28.08,5.94,-21.48,-0.23224,0.72307,10.87958,0.06687,0.02927,0.22065,306.27927,-3.69031,-0.65549,0.06687
2018.02.20 12:07:41,29.04,4.5,-23.16,0.09577,0.43336,7.64013,0.26296,0.13311,0.34405,304.95737,-4.0419,-0.68062,0.26296
2018.02.20 12:07:41,29.04,4.26,-23.1,-0.67758,-0.14845,10.11342,-0.07118,-0.06786,0.05755,304.3063,-3.49346,-0.12509,-0.07118
2018.02.20 12:07:41,28.38,4.38,-23.34,-0.35675,0.50998,8.27461,0.07665,0.09218,0.18767,303.42303,-3.28716,-0.70829,0.07665
2018.02.20 12:07:41,28.26,3.72,-23.22,-0.47167,0.87391,9.76625,-0.18114,0.04942,0.04411,302.78024,-2.67304,-1.01158,-0.18114
2018.02.20 12:07:41,28.5,4.56,-22.86,-0.09338,0.60575,10.93226,-0.06691,-0.04221,-0.04569,302.82599,-2.80749,-0.93892,-0.06691
2018.02.20 12:07:42,29.4,4.44,-22.32,0.53392,-0.16999,11.21718,-0.30576,0.28094,-0.3841,303.62271,-2.58244,-0.74277,-0.30576
2018.02.20 12:07:42,28.98,6.3,-20.94,0.6273,-0.61054,8.69601,0.13468,0.10257,-0.20329,305.13052,-2.55082,-1.5363,0.13468
2018.02.20 12:07:42,28.38,7.5,-22.14,-0.73504,0.02634,9.68005,-0.08951,-0.02083,-0.21245,306.509,-1.85902,-1.34384,-0.08951
2018.02.20 12:07:42,28.86,6.9,-21.3,0.11253,0.61772,8.50925,0.10902,0.10135,0.00074,306.45285,-2.53447,-1.83672,0.10902
2018.02.20 12:07:42,29.04,8.16,-20.94,-0.30647,0.90982,9.62259,-0.08279,0.01094,-0.0408,307.06519,-2.59713,-2.0734,1015.17285
2018.02.20 12:07:42,27.54,7.98,-21.36,-0.08619,0.9625,10.48932,-0.00032,-0.0923,0.09359,306.59409,-3.42852,-1.85739,-0.00032
2018.02.20 12:07:42,28.02,7.38,-20.82,0.14366,0.74701,10.621,0.11635,0.07447,0.25486,305.62482,-4.14563,-1.53709,1015.16675
2018.02.20 12:07:42,28.38,7.14,-19.74,-0.36632,0.2514,9.15331,0.03144,-0.05015,-0.05974,305.75577,-3.35825,-0.93422,1015.1709
2018.02.20 12:07:42,28.38,5.88,-20.58,-1.14207,-0.4597,9.53161,-0.10478,-0.11307,-0.0017,305.11224,-3.3739,-0.73757,-0.10478
2018.02.20 12:07:42,27.72,6.48,-21.06,-0.22027,0.57702,8.33686,-0.00338,0.00117,0.2011,304.35065,-1.75745,-2.22348,-0.00338
2018.02.20 12:07:43,27.84,6.24,-21.06,-0.42379,0.8763,9.534,-0.10845,-0.06786,0.06794,303.83252,-1.72159,-2.22348,1015.16211
2018.02.20 12:07:43,27.54,5.88,-20.1,-0.34717,0.79969,10.26904,0.04732,-0.01716,0.03312,303.6918,-2.9103,-2.13528,0.04732
2018.02.20 12:07:43,27.18,5.22,-20.16,0.37351,0.58899,10.80297,0.16033,-0.05931,0.05022,303.57837,-3.61414,-1.65664,0.16033
2018.02.20 12:07:43,27.78,5.46,-19.62,-0.46688,-0.30168,9.95539,0.0461,0.11112,-0.19229,304.61581,-2.90721,-1.08677,0.0461
2018.02.20 12:07:43,27.9,6,-20.4,0.19633,0.10056,9.40711,-0.01132,0.07936,-0.02003,304.94598,-1.59192,-1.05352,-0.01132
2018.02.20 12:07:43,27.6,6.06,-19.98,-0.19394,0.72547,8.70558,-0.01865,0.02377,0.00929,304.81876,-1.28146,-0.69745,-0.01865
2018.02.20 12:07:43,27.72,5.16,-19.74,0.16281,0.89785,9.12458,0.09864,0.05614,0.01174,304.66595,-2.70469,-0.70621,0.09864
2018.02.20 12:07:43,26.94,4.98,-20.04,0.22506,1.21629,9.46457,0.09925,0.07752,0.07404,304.69293,-3.71279,-0.59232,0.09925
2018.02.20 12:07:43,27.18,5.52,-20.52,-0.36393,1.0056,10.64973,0.05038,0.03721,0.0661,304.50693,-4.55957,-0.29342,0.05038
2018.02.20 12:07:44,28.68,4.8,-19.74,0.11732,-0.05746,12.51248,-0.25872,-0.16988,0.06855,303.59027,-4.48779,-0.20901,-0.25872
2018.02.20 12:07:44,28.38,4.86,-20.58,-0.19154,0.39027,8.22194,0.2092,0.0708,0.21271,302.6911,-4.52719,-0.02982,1015.17749
2018.02.20 12:07:44,28.86,5.04,-19.98,-0.89306,-0.06704,10.54439,-0.07974,-0.00616,-0.01331,302.68518,-3.67308,-0.06893,1015.18311
2018.02.20 12:07:44,28.74,4.74,-19.32,-0.33759,0.9625,8.66249,-0.07729,0.04637,0.03251,302.0199,-3.33414,-1.38398,1015.17822
2018.02.20 12:07:44,30.3,4.44,-20.1,-0.68955,0.94334,9.41189,-0.10539,0.08485,0.00318,302.03,-3.37957,-1.61849,-0.10539
2018.02.20 12:07:44,28.98,4.92,-19.92,-0.0838,1.28333,9.75188,-0.03087,0.01155,0.08076,301.66141,-4.21597,-2.02446,1015.16577
2018.02.20 12:07:44,29.34,4.86,-19.56,0.44055,0.74701,10.84128,0.04244,-0.1656,0.05816,301.54172,-4.53371,-1.33666,0.04244
2018.02.20 12:07:44,28.98,7.02,-19.86,0.37111,-0.26576,12.1294,-0.37906,-0.267,-0.49223,302.90002,-3.3422,0.95467,-0.37906
2018.02.20 12:07:44,29.52,5.94,-20.28,-0.36632,-0.77814,9.55555,-0.07912,0.06836,-0.47879,304.25342,-3.52908,0.90662,-0.07912
2018.02.20 12:07:45,30.42,7.2,-19.92,0.39027,0.53871,8.91628,0.0797,0.02438,-0.07317,305.81763,-2.84418,0.55892,0.0797
2018.02.20 12:07:45,31.2,7.62,-20.52,-0.09098,0.76377,8.75586,0.03511,0.03904,-0.13121,306.47232,-3.12887,0.39069,0.03511
2018.02.20 12:07:45,30.84,7.5,-19.98,0.2107,1.19953,9.55795,-0.02048,0.01583,0.01662,306.68085,-3.41837,0.28835,-0.02048
2018.02.20 12:07:45,31.74,7.08,-19.98,0.23943,0.99123,10.59467,0.08703,0.03354,0.08932,306.29333,-4.74821,0.30899,0.08703
2018.02.20 12:07:45,31.02,6.9,-20.52,0.49561,-0.249,14.07115,0.06809,0.15083,0.23348,305.36816,-5.08563,0.00483,0.06809
2018.02.20 12:07:45,32.28,6.18,-19.8,0.03113,0.27774,8.24588,0.17622,0.06103,0.12108,305.13062,-4.59322,0.09808,0.17622
2018.02.20 12:07:45,31.5,5.34,-19.8,-0.96489,-0.1676,9.79258,-0.06569,-0.09046,0.03189,304.66891,-3.9285,-0.17637,1015.16064
2018.02.20 12:07:45,31.86,4.98,-19.5,-0.28013,0.76138,8.47334,0.04671,0.04087,0.23165,303.32196,-3.95664,-0.70015,1015.15796
2018.02.20 12:07:45,32.34,3.42,-18.72,-0.2514,1.03193,9.27781,-0.02109,0.06225,0.08932,302.36945,-3.92926,-1.04063,-0.02109
2018.02.20 12:07:45,33.12,3.66,-20.52,-0.43815,0.90982,10.68325,-0.08829,-0.05198,0.05389,301.97672,-4.3674,-1.47469,-0.08829
2018.02.20 12:07:46,32.52,1.98,-19.5,0.48125,0.8787,11.34407,0.08703,-0.22608,0.17911,301.1752,-4.83229,-0.30743,1015.18042
2018.02.20 12:07:46,32.34,1.86,-19.8,0.70631,-0.09817,10.63058,-0.06446,-0.03182,-0.06768,301.21841,-4.1678,0.19867,-0.06446
2018.02.20 12:07:46,32.76,1.8,-20.46,-0.05986,-0.23943,9.36161,0.06932,0.14105,-0.25827,302.17615,-2.64563,0.37174,0.06932
2018.02.20 12:07:46,32.58,1.8,-19.38,0.16999,1.00081,8.17405,0.16461,0.07264,0.07771,302.40057,-3.09038,-0.24246,0.16461
2018.02.20 12:07:46,32.64,1.02,-19.56,0.19633,1.20432,8.75826,0.03572,0.07936,-0.02369,302.47809,-3.79532,-0.41773,0.03572
2018.02.20 12:07:46,32.46,1.5,-19.26,-0.01437,1.56346,9.56992,-0.05774,0.05859,-0.07379,302.72076,-5.09655,-0.41718,-0.05774
2018.02.20 12:07:46,32.16,1.62,-19.56,-0.249,0.7518,10.49171,-0.00888,-0.08558,0.03434,302.50214,-5.93007,-0.03376,-0.00888
2018.02.20 12:07:46,32.76,0.6,-19.2,-0.27774,0.00718,12.98415,-0.38517,-0.03854,0.00379,301.97656,-4.69775,-0.07673,-0.38517
2018.02.20 12:07:46,32.1,-0.36,-17.94,-0.29689,0.42618,7.8604,0.21104,-0.06481,0.20294,300.77643,-4.52349,-0.33541,0.21104
2018.02.20 12:07:47,31.92,-1.08,-19.14,-0.91701,-0.31126,10.00089,-0.19824,-0.10757,-0.00537,300.42624,-3.65907,0.07042,-0.19824
2018.02.20 12:07:47,31.62,-1.86,-18.36,-0.22746,0.90264,8.87318,-0.03881,-0.05992,0.18033,299.45364,-3.04651,-0.10407,-0.03881
2018.02.20 12:07:47,31.26,-1.86,-19.2,-0.1269,0.9625,9.64653,-0.0382,0.04148,-0.07501,299.37051,-3.15688,-0.26073,1015.17578
2018.02.20 12:07:47,31.62,-1.08,-19.74,-0.20112,0.63209,11.32253,-0.11333,-0.05442,-0.18618,300.07306,-3.63032,-0.16818,-0.11333
2018.02.20 12:07:47,30.42,-1.14,-19.2,0.51477,0.2514,11.11662,-0.08768,-0.00067,-0.26926,300.61823,-3.86895,0.41632,-0.08768
2018.02.20 12:07:47,29.94,-0.72,-19.98,0.02634,-0.62969,10.27383,-0.01132,-0.05442,-0.22467,302.20612,-3.42128,0.56613,1015.19043
2018.02.20 12:07:47,30.78,-0.3,-18.48,0.11971,-0.22746,9.00247,0.03999,0.05187,-0.21123,303.25937,-3.53431,-0.28807,0.03999
2018.02.20 12:07:47,30.84,0.12,-18.06,0.2083,0.64167,8.62657,0.08275,-0.0306,-0.12693,304.18521,-3.55302,-0.71334,0.08275
2018.02.20 12:07:47,29.94,0.42,-18.6,-0.03352,0.7518,9.60583,0.05771,0.03843,-0.14098,305.00952,-3.72855,-0.69733,1015.1814
2018.02.20 12:07:47,29.76,0.42,-18.06,0.01437,1.13728,9.9961,0.11208,-0.0135,0.05144,305.01263,-4.43785,-0.55513,0.11208
2018.02.20 12:07:48,29.58,0.18,-18.54,0.14605,0.62012,10.4127,0.09558,0.0708,0.23348,304.01648,-4.91917,-0.31139,0.09558
2018.02.20 12:07:48,30.6,-1.02,-19.68,-0.19872,-0.0838,10.3696,0.12429,0.16366,0.27991,302.82437,-4.49092,-0.35967,0.12429
2018.02.20 12:07:48,29.82,-1.92,-18.96,-0.17718,0.16999,8.9929,-0.14876,-0.06725,-0.01881,302.16321,-4.46071,-0.6356,-0.14876
2018.02.20 12:07:48,29.94,-1.74,-19.02,-0.39027,0.47885,8.93304,-0.12738,0.10257,-0.11227,302.59949,-3.3047,-0.82352,-0.12738
2018.02.20 12:07:48,30.12,-0.96,-20.1,-0.54589,0.76138,9.4526,-0.08218,-0.02388,-0.02125,303.05862,-2.55001,-1.45772,-0.08218
2018.02.20 12:07:48,29.4,-0.36,-19.08,-0.419,0.9601,9.53161,0.03266,0.00666,0.04228,303.11008,-2.96923,-1.84662,0.03266
2018.02.20 12:07:48,28.68,-0.9,-19.5,-0.53632,0.82842,10.97775,0.01434,0.03782,0.08993,302.81128,-3.44096,-1.90176,0.01434
2018.02.20 12:07:48,28.92,-0.06,-19.5,0.59617,0.02155,11.52364,-0.13838,0.14044,-0.0524,303.0264,-2.92391,-1.85528,-0.13838
2018.02.20 12:07:48,29.4,-0.36,-18.96,0.43097,-0.18675,9.35443,0.20554,-0.0416,0.05694,303.76428,-2.86789,-1.22534,1015.17676
2018.02.20 12:07:49,29.22,0.18,-20.16,-0.51956,0.34478,9.62738,0.00517,-0.0416,-0.12998,304.67728,-2.72101,-1.20423,1015.17456
2018.02.20 12:07:49,30.18,-0.18,-20.34,0.14845,0.73265,8.60742,0.21531,-0.00678,0.01357,304.60086,-3.73089,-1.19191,0.21531
2018.02.20 12:07:49,29.7,-0.84,-20.34,-0.09577,1.087,9.10064,0.08214,0.1044,0.04228,304.80222,-4.35643,-1.47366,0.08214
2018.02.20 12:07:49,28.92,-0.36,-21.24,-0.22506,1.08461,10.41749,0.05099,-0.0306,0.08015,304.34317,-4.94889,-1.40051,1015.17798
2018.02.20 12:07:49,29.76,-0.6,-20.76,-0.2107,0.55547,11.17647,-0.18175,0.0873,0.16018,303.44766,-4.35995,-1.47011,-0.18175
2018.02.20 12:07:49,29.4,0.06,-21.12,0.0431,0.3352,8.50446,0.12979,0.16854,0.15223,302.86258,-4.11899,-1.49483,0.12979
2018.02.20 12:07:49,28.5,-0.06,-20.94,-0.80926,-0.28731,9.83089,-0.14876,-0.22424,-0.0353,303.29639,-3.22678,-0.92968,-0.14876
2018.02.20 12:07:49,29.1,-0.78,-21.42,-0.32802,0.89306,8.49489,0.03266,0.00972,0.05511,302.88861,-2.81579,-1.37109,0.03266
2018.02.20 12:07:49,28.32,-0.66,-20.88,-0.67519,1.14686,9.69681,-0.04003,0.02438,-0.06645,302.99472,-3.39395,-1.99103,-0.04003
2018.02.20 12:07:50,27.66,-0.78,-21.96,-0.31604,0.69673,10.2451,0.10902,-0.05381,0.00074,303.11594,-4.6171,-2.29833,0.10902
2018.02.20 12:07:50,26.34,-0.66,-21.36,-0.1676,0.56744,11.3345,0.04916,-0.20592,0.08626,302.72235,-4.9679,-1.76115,0.04916
2018.02.20 12:07:50,26.16,-1.38,-22.44,-0.24661,0.20351,9.73033,0.03511,0.06164,-0.03591,303.33539,-4.20182,-1.90278,0.03511
2018.02.20 12:07:50,25.92,-0.84,-21.42,0.09338,0.12929,9.63456,-0.02659,0.13067,-0.22039,304.30078,-2.80939,-1.51985,-0.02659
2018.02.20 12:07:50,26.22,-0.48,-21.66,-0.18436,0.95771,8.75826,0.12796,-0.04587,-0.01575,304.74121,-2.90608,-1.25337,1015.1731
2018.02.20 12:07:50,25.8,-0.66,-21.54,-0.24422,0.93856,9.21796,-0.02354,-0.00494,-0.1306,305.33182,-3.6349,-1.07659,1015.17236
2018.02.20 12:07:50,25.02,-0.84,-22.62,-0.04789,1.30488,9.33288,0.09986,-0.04465,0.06488,305.51465,-4.46881,-1.01509,0.09986
2018.02.20 12:07:50,25.32,-0.66,-22.68,-0.25379,1.09179,9.84286,0.0797,0.13433,0.27929,304.70587,-5.31864,-0.95734,0.0797
2018.02.20 12:07:50,24.84,-0.84,-22.62,-0.12929,-0.66561,12.98176,-0.23551,-0.22119,0.10825,303.90353,-4.60917,-0.30264,1015.17065
2018.02.20 12:07:50,24.6,-1.2,-22.38,-0.48843,-0.32802,9.09106,0.029,-0.02083,0.09604,303.10577,-4.44139,-0.41309,0.029
2018.02.20 12:07:51,23.46,-1.26,-23.64,-0.19872,0.60815,8.74629,-0.01376,0.00422,0.08137,302.92511,-2.19273,-1.02459,-0.01376
2018.02.20 12:07:51,22.8,-0.78,-22.38,-0.21548,0.95292,8.9091,-0.07424,-0.06664,-0.02308,302.77884,-2.43484,-1.18558,-0.07424
2018.02.20 12:07:51,22.26,-0.36,-22.26,-0.47885,1.18038,9.75906,0.01617,0.0085,-0.00415,303.13556,-3.13321,-1.6291,0.01617
2018.02.20 12:07:51,22.5,-0.18,-22.26,-0.22985,0.62969,10.58748,-0.01376,-0.11673,-0.02736,303.26062,-3.74427,-1.36131,-0.01376
2018.02.20 12:07:51,21.84,0.72,-24.54,0.2945,-0.25858,12.39995,-0.32469,0.1209,-0.24727,304.08328,-2.56651,-0.994,-0.32469
2018.02.20 12:07:51,22.62,1.86,-23.7,0.31844,-0.44055,8.27461,0.28067,0.01033,-0.03774,304.61044,-3.0975,-0.83234,0.28067
2018.02.20 12:07:51,22.56,2.76,-23.94,-0.41421,0.07422,9.42147,-0.01193,0.03598,-0.086,305.46948,-2.30793,-0.84293,-0.01193
2018.02.20 12:07:51,23.04,2.52,-24.54,0.42618,0.92419,8.6553,0.12368,0.02499,-0.06951,305.34058,-2.73473,-0.8056,0.12368
2018.02.20 12:07:51,22.2,3.6,-24.48,-0.10056,1.07742,9.56992,0.00273,0.07264,-0.20268,306.29773,-3.5647,-0.46862,1015.17529
2018.02.20 12:07:52,23.88,4.02,-25.38,-0.11014,1.14925,10.80297,0.07787,-0.11551,-0.00537,306.63559,-4.71757,-0.44873,1015.17749
2018.02.20 12:07:52,22.32,3.54,-25.08,0.17718,0.20112,11.70322,-0.06324,0.11479,0.11253,306.1597,-5.43643,-0.35498,-0.06324
2018.02.20 12:07:52,23.16,3.6,-24.9,0.22027,0.1676,11.15971,0.31794,0.04881,0.21332,305.44717,-5.68429,-0.45431,0.31794
2018.02.20 12:07:52,23.58,3.96,-24.54,-0.73265,0.03591,9.08867,0.03389,-0.00616,0.00135,305.24756,-5.17256,-0.46347,1015.17261
2018.02.20 12:07:52,25.08,3.84,-25.8,-0.27055,0.93856,8.67206,0.04427,-0.01472,0.16812,304.54834,-3.91502,-1.03467,0.04427
2018.02.20 12:07:52,24.66,3.9,-24.9,-0.22027,1.31206,9.71597,-0.04369,-0.06786,0.02945,304.05658,-4.46623,-1.0555,-0.04369
2018.02.20 12:07:52,24,4.92,-24.84,0.07901,1.11813,9.9123,-0.00765,-0.02327,-0.03652,304.14966,-5.43652,-0.9716,-0.00765
2018.02.20 12:07:52,24.42,5.04,-25.44,0.97686,0.79729,10.82452,-0.20252,-0.04587,-0.1251,304.55435,-5.36752,-0.09577,-0.20252
2018.02.20 12:07:52,24.48,6.24,-25.08,-0.36872,-0.10056,11.0807,-0.32591,-0.2163,-0.33279,306.00153,-3.81583,0.85393,-0.32591
2018.02.20 12:07:53,24.48,6.84,-25.86,0.45731,0.09338,9.77582,0.00273,0.11418,-0.18802,306.79849,-3.70453,0.53777,0.00273
2018.02.20 12:07:53,25.5,6.84,-25.62,0.22027,0.83321,8.41109,0.08031,0.08852,0.03984,307.29025,-3.58573,-0.00218,0.08031
2018.02.20 12:07:53,26.04,7.08,-24.84,0.14126,0.91461,9.06951,-0.04308,0.07386,-0.03774,307.40659,-3.8727,-0.22787,-0.04308
2018.02.20 12:07:53,26.04,7.08,-24.36,0.27774,1.37431,9.37837,-0.08584,0.13739,-0.01759,307.33307,-4.34373,-0.3483,-0.08584
2018.02.20 12:07:53,27.3,6.54,-23.82,0.27055,1.10376,10.48692,0.03938,0.01399,0.10947,306.73059,-5.18233,-0.01549,1015.18677
2018.02.20 12:07:53,27.9,6.24,-24,-0.25619,-0.62969,12.61543,-0.30942,-0.12895,-0.05424,306.4722,-4.2004,0.44818,1015.18506
2018.02.20 12:07:53,28.44,5.82,-24.12,-0.24661,0.16042,8.01124,0.04732,-0.05748,0.10581,305.50089,-4.22543,-0.02483,0.04732
2018.02.20 12:07:53,29.58,6.84,-24.12,-0.81405,-0.1245,10.15891,-0.20863,-0.08252,-0.04019,305.53033,-3.02974,0.13386,1015.19922
2018.02.20 12:07:53,29.52,5.94,-22.14,-0.54829,0.69913,8.87558,0.0009,0.01888,0.08076,304.84268,-3.00056,-0.97682,1015.19287
2018.02.20 12:07:53,29.34,5.52,-22.92,-0.66082,0.90504,9.9123,-0.06813,0.05981,0.01357,304.66281,-3.04336,-1.75497,-0.06813
2018.02.20 12:07:54,30.24,5.22,-23.28,-0.19394,0.62251,10.21637,0.05099,-0.16499,0.10275,304.07541,-3.59838,-1.54725,0.05099
2018.02.20 12:07:54,30.12,5.4,-24.3,-0.05507,-0.03831,11.23633,-0.12983,0.01888,-0.04691,303.68646,-3.30346,-0.75203,-0.12983
2018.02.20 12:07:54,29.94,5.16,-23.58,0.19872,-0.36872,10.19961,-0.04003,-0.05748,0.02151,303.5408,-2.48789,-0.67578,-0.04003
2018.02.20 12:07:54,29.46,5.28,-23.52,-0.31365,0.10535,9.67048,-0.03331,0.0763,-0.13548,304.01495,-1.72082,-0.5019,-0.03331
2018.02.20 12:07:54,29.4,5.88,-22.68,-0.06225,0.72068,8.69361,0.11147,0.03049,-0.02186,304.09372,-2.39685,-0.72265,0.11147
2018.02.20 12:07:54,30.84,4.38,-24.66,-0.15084,1.12291,9.31612,0.02167,0.0427,0.02456,304.10684,-3.22423,-0.86192,0.02167
2018.02.20 12:07:54,31.08,4.62,-24.12,0.07183,1.03672,10.68804,-0.02659,-0.04587,0.11131,303.44791,-4.34931,-0.60869,-0.02659
2018.02.20 12:07:54,31.2,4.44,-23.88,0.16281,0.86433,11.36083,-0.00277,0.08546,0.21271,302.51239,-4.33953,-0.44904,1015.17383
2018.02.20 12:07:54,31.56,4.26,-24.24,-0.39027,0.23703,8.59066,0.09619,0.13495,0.13208,302.01685,-3.92538,-0.47734,1015.17725
2018.02.20 12:07:55,30.96,3.54,-24.36,-0.4621,-0.2107,9.96737,-0.05102,-0.10696,-0.02797,302.07623,-2.32446,-0.913,1015.1709
2018.02.20 12:07:55,31.98,3.24,-24.18,-0.5028,1.00799,8.0711,0.05649,0.00605,0.02701,301.89697,-2.30645,-1.63602,0.05649
2018.02.20 12:07:55,31.98,4.14,-24.06,-0.30407,0.90025,9.76864,0.01128,-0.06298,-0.04996,301.95465,-3.15379,-1.3611,0.01128
2018.02.20 12:07:55,32.22,4.5,-24.84,0.18196,0.63927,10.44143,0.04122,-0.12101,-0.03164,302.25583,-3.74172,-0.94384,1015.16724
2018.02.20 12:07:55,32.94,4.2,-25.38,-0.03591,-0.20591,13.04401,-0.25566,-0.06359,-0.25338,303.41074,-2.91522,-0.43528,-0.25566
2018.02.20 12:07:55,31.5,6.6,-24.36,0.86194,0.12929,9.51724,0.04305,0.00789,-0.13487,304.4812,-2.27247,-0.1522,0.04305
2018.02.20 12:07:55,31.26,7.56,-24.54,0.02155,0.16281,9.52203,0.02778,0.09768,-0.37189,306.43427,-2.24025,-0.35771,0.02778
2018.02.20 12:07:55,33.48,8.1,-25.98,0.4166,0.62012,8.76065,0.1695,0.04026,-0.1703,307.62851,-2.98889,-0.62268,1015.18359
2018.02.20 12:07:55,33.78,9,-23.88,0.17239,1.01517,8.91867,0.0687,0.10746,-0.18557,308.72418,-3.60469,-0.8496,0.0687
2018.02.20 12:07:56,33.42,9,-24.48,-0.02873,1.48206,9.69442,0.06809,0.05309,0.02701,309.32407,-3.84251,-0.81339,0.06809
2018.02.20 12:07:56,34.74,9,-23.58,-0.23703,0.98644,9.96976,-0.05347,0.15755,0.1895,308.60638,-4.78652,-0.70216,-0.05347
2018.02.20 12:07:56,35.82,8.52,-24.42,-0.2107,0.19394,10.33848,0.22936,0.2113,0.37092,307.61127,-3.61468,-0.87582,0.22936
2018.02.20 12:07:56,36.78,8.1,-24.48,-0.58899,-0.17718,9.89554,-0.00949,-0.10635,0.09298,306.67673,-3.82239,-0.84848,-0.00949
2018.02.20 12:07:56,36.96,8.94,-23.88,-0.4621,0.68237,8.51644,0.11574,0.0085,0.19866,305.83475,-3.83378,-1.02195,1015.17993
2018.02.20 12:07:56,37.44,8.1,-24.06,-0.20591,0.95053,9.12458,0.00823,-0.0361,0.12475,305.14771,-3.97225,-1.57489,1015.18506
2018.02.20 12:07:56,39.3,8.1,-24.72,-0.25858,0.95771,9.79498,0.02106,-0.05137,0.11619,304.71121,-4.2422,-1.69105,0.02106
2018.02.20 12:07:56,39.36,7.44,-24.84,0.01676,1.0056,10.61861,-0.02109,-0.05015,0.13757,303.95786,-4.3932,-1.40115,1015.17603
2018.02.20 12:07:56,40.62,8.16,-25.74,-1.10376,0.10774,11.11901,-0.36257,-0.16804,-0.13976,304.33218,-2.86783,-0.67499,1015.1709
2018.02.20 12:07:56,41.1,9.18,-25.14,0.20112,-0.01197,9.21796,0.19027,0.07142,-0.03958,304.53189,-2.91613,-0.67509,0.19027
2018.02.20 12:07:57,41.16,9.9,-24.78,-0.46688,0.39266,9.16289,0.06626,-0.0196,-0.09517,305.46387,-2.97829,-0.86044,0.06626
2018.02.20 12:07:57,42.06,9.66,-26.1,-0.05986,0.73265,8.9905,0.12246,-0.01472,-0.08722,305.69986,-3.62765,-0.72706,0.12246
2018.02.20 12:07:57,42.3,10.26,-26.16,-0.20112,0.89546,9.92427,-0.02537,0.04393,-0.13426,306.3158,-4.28321,-0.62766,-0.02537
2018.02.20 12:07:57,42.18,10.44,-27.06,-0.22267,0.6273,10.82691,-0.07241,-0.0642,-0.02919,306.33749,-4.74795,-0.51962,-0.07241
2018.02.20 12:07:57,42.36,10.62,-26.88,0.03113,0.31365,12.01208,-0.27643,0.02316,-0.05851,305.95432,-3.9455,-0.6434,-0.27643
2018.02.20 12:07:57,43.62,11.22,-27.06,0.17957,0.78293,5.3967,0.20554,-0.0758,0.14002,305.46112,-4.2972,-0.59598,0.20554
2018.02.20 12:07:57,42.78,9.78,-27.72,-0.94334,-0.28252,10.17806,-0.13777,-0.25173,-0.05729,305.56946,-3.61204,-0.25588,-0.13777
2018.02.20 12:07:57,43.2,8.28,-27.96,-0.21309,0.82124,8.35841,0.03938,-0.05381,0.26158,304.07443,-3.81654,-0.3601,0.03938
2018.02.20 12:07:57,41.28,7.98,-27.66,0.01437,0.74462,9.84526,0.03633,0.07508,0.21576,302.6412,-3.92074,-0.33291,0.03633
2018.02.20 12:07:58,42.9,5.76,-28.14,0.03113,0.82842,11.17169,0.12185,0.02438,-0.097,302.55377,-4.26554,-0.30445,0.12185
2018.02.20 12:07:58,42.96,7.02,-28.92,0.40463,0.02394,11.60984,0.1469,0.10623,-0.26193,304.02734,-4.47763,-0.30265,0.1469
2018.02.20 12:07:58,42.42,7.62,-28.98,0.55308,0.03113,9.40232,0.11269,0.00055,-0.08112,305.61337,-4.11547,-0.76605,1015.18018
2018.02.20 12:07:58,43.68,7.92,-29.34,-0.11732,0.54829,8.89234,0.03022,0.01277,-0.08234,306.30121,-3.80126,-1.02296,1015.17798
2018.02.20 12:07:58,43.26,6.36,-29.46,0.18436,0.77814,8.78938,-0.02231,0.05798,-0.11288,306.66736,-3.95456,-1.27092,-0.02231
2018.02.20 12:07:58,42.96,7.68,-29.46,0.29928,1.51797,9.7423,-0.15548,-0.15277,0.05999,307.23047,-3.89953,-0.60571,-0.15548
2018.02.20 12:07:58,43.38,7.32,-30.6,0.05746,1.38389,10.37439,-0.0553,-0.0587,-0.0072,307.10196,-5.31586,0.29695,1015.17261
2018.02.20 12:07:58,44.04,6.54,-29.82,0,1.10137,11.39914,-0.0498,0.08852,0.08321,306.81213,-5.71302,0.21367,-0.0498
2018.02.20 12:07:58,43.32,6.6,-29.64,-0.57941,-0.23464,9.7016,0.13285,-0.00861,0.17239,306.60614,-4.79434,0.19621,0.13285
2018.02.20 12:07:58,42.72,5.58,-29.28,-0.80448,-0.43815,9.98891,-0.22634,-0.01105,-0.04446,305.96576,-2.2957,-0.6545,-0.22634
2018.02.20 12:07:59,44.1,5.1,-30.54,-0.28013,0.56984,8.447,0.03144,0.08241,0.16262,305.32449,-0.98934,-1.95898,0.03144
2018.02.20 12:07:59,44.7,3.54,-30.66,-0.4166,0.93377,9.39035,-0.02476,-0.02266,0.15162,304.47021,-1.4598,-2.29587,-0.02476
2018.02.20 12:07:59,43.32,2.52,-31.02,0.02873,0.72068,10.05835,0.0235,-0.04343,0.00624,304.28433,-2.54239,-2.14111,0.0235
2018.02.20 12:07:59,43.32,2.88,-31.44,0.14845,0.35675,11.45421,-0.06752,-0.12406,-0.05912,304.58847,-2.68442,-1.05775,-0.06752
2018.02.20 12:07:59,43.26,3.3,-32.88,-0.45252,-0.33999,10.26904,-0.35218,-0.03549,-0.15564,305.26657,-1.26564,-0.479,-0.35218
2018.02.20 12:07:59,43.56,3.54,-32.52,0.18675,-0.28492,9.84047,0.08092,0.19053,-0.15075,305.82452,-1.3843,-1.00331,0.08092
2018.02.20 12:07:59,44.46,2.76,-31.8,0.13169,0.68955,8.2387,0.25929,0.15388,-0.07989,306.80499,-2.2757,-1.69999,1015.1731
2018.02.20 12:07:59,43.74,2.52,-31.8,-0.06704,0.70152,9.02881,0.1249,0.01033,-0.15442,307.59857,-3.0987,-1.63354,1015.17529
2018.02.20 12:07:59,44.16,1.98,-32.46,0.09817,1.14925,9.69202,0.1304,-0.05259,0.05938,307.83063,-4.00405,-1.30403,0.1304
2018.02.20 12:08:00,43.44,2.16,-32.46,-0.28492,0.90504,10.51805,0.07237,0.09524,0.30739,307.04767,-4.66207,-0.8189,0.07237
2018.02.20 12:08:00,43.68,0.36,-33.18,-0.47167,-0.42618,10.35284,0.11757,0.08669,0.34832,305.58163,-3.80417,-0.53897,0.11757
2018.02.20 12:08:00,43.8,-0.24,-34.38,-0.84278,-0.40942,9.67526,-0.10539,0.01705,0.12414,304.2023,-3.61241,-0.43627,-0.10539
2018.02.20 12:08:00,44.1,-1.62,-34.68,-0.02634,0.80687,8.23631,0.06687,-0.01288,0.38681,302.59805,-3.01411,-0.4119,0.06687
2018.02.20 12:08:00,43.56,-2.4,-35.52,-0.1676,0.84039,9.6609,-0.11394,0.0366,0.08321,301.25,-2.73755,-0.14701,-0.11394
2018.02.20 12:08:00,42.6,-1.74,-35.76,0.05028,1.24502,9.32091,-0.03636,0.04576,-0.00598,301.13885,-2.83567,-0.56922,-0.03636
2018.02.20 12:08:00,42.9,-1.26,-34.86,0.21788,0.7542,10.98733,-0.02048,-0.06664,-0.07928,301.53812,-4.24004,0.10234,-0.02048
2018.02.20 12:08:00,42.24,0.66,-35.28,0.23464,-0.96489,11.73674,-0.1622,0.01766,-0.38655,303.42899,-3.27803,0.10254,-0.1622
2018.02.20 12:08:00,41.04,1.32,-36.06,0.4597,-0.54829,10.06074,0.01861,0.05431,-0.26071,305.63312,-2.19058,-0.19666,0.01861
2018.02.20 12:08:01,40.26,3.06,-35.88,-0.2945,0.34956,9.17726,0.07359,-0.03793,-0.22161,307.05972,-1.96799,0.25153,0.07359
2018.02.20 12:08:01,40.26,3.42,-35.4,-0.34478,0.43576,8.64812,0.14628,0.08669,-0.16358,308.07922,-2.67896,-0.13706,0.14628
2018.02.20 12:08:01,39.12,3.78,-34.86,-0.26816,0.94813,9.42865,-0.04553,-0.03488,-0.04996,308.37683,-3.09101,0.06106,1015.16382
2018.02.20 12:08:01,38.88,2.7,-35.88,0.34238,1.27854,10.38636,0.00456,-0.02755,0.13208,307.64789,-3.93184,0.18615,1015.16406
2018.02.20 12:08:01,38.1,2.04,-36.12,0.26816,1.01278,8.47334,-0.14204,0.1551,0.184,306.77063,-4.2515,0.11046,1015.16479
2018.02.20 12:08:01,36.36,2.28,-35.7,0.29689,-0.55068,10.2475,-0.11455,0.01827,0.19011,305.55762,-3.57932,0.37461,-0.11455
2018.02.20 12:08:01,35.64,2.22,-35.58,-0.5028,-1.37192,9.79737,-0.02659,-0.04831,0.08199,305.00381,-2.31619,0.55986,1015.18188
2018.02.20 12:08:01,35.46,1.5,-34.86,-0.65364,-0.52674,8.89234,-0.02537,0.11662,0.03128,304.69757,2.48919,-1.22434,-0.02537
2018.02.20 12:08:01,35.28,0.9,-34.68,-0.23224,0.2945,8.7391,0.06565,0.03232,0.12414,303.87524,2.34898,-1.96555,0.06565
2018.02.20 12:08:01,34.56,0.42,-33.84,-0.10056,0.63688,9.48612,0.08642,0.01644,0.03128,303.38132,0.70559,-1.74028,0.08642
2018.02.20 12:08:02,34.74,0.12,-34.26,-0.04549,0.6704,10.38397,0.15728,-0.07764,0.02945,303.25787,-1.33019,-1.34043,0.15728
2018.02.20 12:08:02,32.7,-0.48,-34.08,0.03352,0.23224,11.95222,0.07848,-0.0813,-0.02308,303.5614,-1.83332,-0.78996,0.07848
2018.02.20 12:08:02,32.4,0.24,-33.66,-0.2107,-0.4597,9.27542,0.05099,0.01399,-0.12998,304.2558,-1.6372,-0.33642,0.05099
2018.02.20 12:08:02,31.92,-0.42,-34.26,-0.13887,-0.10295,9.47654,-0.21229,0.02438,-0.21612,304.6777,-0.36482,0.34415,-0.21229
2018.02.20 12:08:02,32.4,0.9,-33.9,0.17957,0.45731,8.79417,0.03144,-0.02693,-0.12327,305.32285,-0.34717,-0.04897,0.03144
2018.02.20 12:08:02,32.58,0.3,-33.12,0.16042,0.47646,9.34485,0.03877,0.07936,-0.20573,306.40012,-1.07171,0.23568,0.03877
2018.02.20 12:08:02,31.44,1.08,-32.46,0.03591,0.99602,9.68005,0.10719,0.11234,-0.06462,307.00058,-2.09854,-0.16651,0.10719
2018.02.20 12:08:02,31.92,1.14,-31.92,-0.30886,0.51956,10.82212,0.1023,0.12761,0.06916,307.08203,-3.19846,-0.20709,0.1023
2018.02.20 12:08:02,32.52,1.26,-32.28,-0.70392,-1.01517,12.09348,-0.10478,-0.05626,-0.04141,307.02414,-2.24932,-0.30847,-0.10478
2018.02.20 12:08:03,32.04,1.62,-32.7,-0.5004,-0.07901,8.54277,0.23914,-0.07397,0.19927,306.34821,-2.25477,-0.47945,1015.17407
2018.02.20 12:08:03,33.3,2.58,-32.1,-0.48125,-0.04549,8.89234,-0.10112,-0.07886,0.07893,306.17197,-0.35405,-1.13767,1015.16968
2018.02.20 12:08:03,32.28,1.32,-32.94,-0.25379,0.79969,8.81093,-0.04064,-0.02449,0.22981,304.81012,-0.04777,-1.48517,1015.177
2018.02.20 12:08:03,31.74,1.44,-32.58,-0.25619,0.38069,10.14215,0.07237,-0.09535,0.03739,304.34866,-0.43534,-1.43311,0.07237
2018.02.20 12:08:03,32.64,1.62,-31.86,0.07422,0.50519,10.99212,0.153,-0.00067,-0.03836,304.14471,-1.58015,-0.69342,0.153
2018.02.20 12:08:03,33.06,2.7,-32.22,-0.7925,-0.35914,10.19482,0.0009,0.05798,-0.18069,305.21063,-1.55058,-0.43824,0.0009
2018.02.20 12:08:03,32.52,3.24,-32.88,0.49561,-0.3328,9.52203,0.13651,-0.07825,-0.06035,305.65732,-0.92962,-0.31371,0.13651
2018.02.20 12:08:03,33,3.78,-32.7,0.16281,0.72547,8.5332,0.05832,0.02621,-0.02492,306.06262,-1.05876,-0.53759,1015.16089
2018.02.20 12:08:03,33.18,4.8,-32.46,0.16042,0.85236,9.13416,-0.03026,0.06164,-0.16236,306.77682,-2.23582,0.01914,1015.16309
2018.02.20 12:08:04,33.24,5.58,-32.22,-0.06943,1.18995,9.55316,0.06199,0.05309,-0.00292,307.25192,-3.19821,-0.3033,1015.16333
2018.02.20 12:08:04,33.72,5.76,-31.8,-0.05746,0.60336,10.68565,0.03389,0.05614,0.10764,306.7836,-4.34619,-0.3532,0.03389
2018.02.20 12:08:04,34.26,5.82,-31.2,-0.56505,-0.52913,11.86363,-0.04308,-0.10085,0.10947,305.71869,-3.71359,0.07522,-0.04308
2018.02.20 12:08:04,34.5,5.16,-33.12,-0.56744,-0.27534,9.12698,-0.05102,-0.08191,0.02334,304.5715,-3.89915,0.14446,-0.05102
2018.02.20 12:08:04,33.42,5.28,-31.74,-0.49322,0.2514,8.68403,-0.06752,-0.03243,0.08076,304.21408,-1.97963,-1.05373,-0.06752
2018.02.20 12:08:04,34.02,5.52,-31.98,-0.40942,0.69913,9.29457,-0.04308,-0.08374,0.09481,303.27869,-2.0055,-1.44736,-0.04308
2018.02.20 12:08:04,34.14,5.4,-32.16,-0.47167,0.98405,9.64653,0.05343,-0.02327,0.04289,303.06451,-2.54339,-1.89115,0.05343
2018.02.20 12:08:04,34.44,6.36,-32.46,-0.13169,0.77096,10.86522,-0.05713,0.08424,-0.03958,302.8392,-3.46257,-1.81953,-0.05713
2018.02.20 12:08:04,34.56,7.14,-31.56,0.249,-0.11014,11.26027,-0.1341,-0.01838,-0.10616,303.26599,-3.04765,-1.48302,-0.1341
2018.02.20 12:08:05,34.26,8.1,-31.92,0.19633,0.01676,9.23951,0.06993,-0.00128,-0.09883,304.06512,-1.97698,-1.2708,0.06993
2018.02.20 12:08:05,34.8,8.64,-31.08,-0.25619,0.23464,9.85005,-0.01926,-0.04893,-0.1532,305.3952,-1.67905,-1.28623,-0.01926
2018.02.20 12:08:05,33.72,9.12,-32.04,0.12211,0.78532,8.52362,0.07298,-0.03243,-0.09822,305.7005,-2.37596,-1.48342,0.07298
2018.02.20 12:08:05,34.98,8.64,-31.68,-0.03113,0.73265,9.29936,-0.01376,0.05737,-0.14892,306.4502,-2.98754,-0.96427,-0.01376
2018.02.20 12:08:05,35.46,9.06,-30.72,0.06225,1.10855,10.13018,-0.03698,0.02804,-0.08173,306.80124,-3.62,-0.71867,-0.03698
2018.02.20 12:08:05,35.7,8.64,-30.48,-0.00718,1.35755,10.10863,0.12552,0.12639,0.21882,306.23749,-4.42343,-0.56957,1015.17529
2018.02.20 12:08:05,35.94,8.64,-29.76,-1.16122,-0.7542,12.30178,0.00884,0.03721,0.08015,305.60492,-4.03269,-0.06659,0.00884
2018.02.20 12:08:05,36.36,7.26,-29.34,-0.55787,-0.39506,9.37598,0.15239,-0.11001,0.17789,304.69336,-4.22716,-0.26849,1015.1731
2018.02.20 12:08:05,36.48,8.04,-30.96,-0.56026,0.47885,8.60263,-0.02354,-0.00739,0.08199,304.42197,-3.15919,-0.44906,1015.16943
2018.02.20 12:08:05,37.74,6.6,-29.52,-0.48843,0.74701,9.21078,-0.02659,-0.03732,0.05877,303.73312,-2.99158,-1.21388,-0.02659
2018.02.20 12:08:06,37.98,7.38,-29.64,-0.18436,0.81166,9.77822,0.03205,-0.02877,-0.00231,303.78104,-3.26014,-1.39424,0.03205
2018.02.20 12:08:06,38.94,7.98,-29.58,0.28492,0.43576,10.96099,0.08031,0.01155,0.04228,303.77762,-3.63652,-0.99259,0.08031
2018.02.20 12:08:06,38.28,8.64,-28.98,-0.82363,-0.26337,10.61143,-0.1567,0.00911,-0.16786,304.27121,-2.71049,-0.8249,-0.1567
2018.02.20 12:08:06,39.6,8.64,-29.16,0.27534,-0.14605,9.55316,0.03144,0.04881,-0.16847,304.72858,-1.74853,-0.9552,0.03144
2018.02.20 12:08:06,40.86,10.2,-28.26,-0.07422,0.58181,8.6553,0.11024,0.03049,-0.04935,305.77899,-1.28806,-0.9576,0.11024
2018.02.20 12:08:06,41.34,11.04,-27.96,-0.12929,0.55547,9.18923,0.05343,-0.00433,-0.08906,306.07083,-2.17781,-0.6548,0.05343
2018.02.20 12:08:06,42,11.16,-27.96,-0.11253,1.05588,9.80934,-0.04308,0.03415,-0.10311,306.48145,-2.93096,-0.65722,-0.04308
2018.02.20 12:08:06,43.08,12.6,-27.54,-0.17239,0.78293,10.96817,0.00945,-0.08558,0.03739,306.23544,-4.31223,-0.35777,0.00945
2018.02.20 12:08:06,44.88,11.82,-27.12,0.08619,0.668,11.30337,-0.02293,0.09829,0.22615,305.15146,-4.62666,-0.86707,-0.02293
2018.02.20 12:08:07,45.3,11.76,-27.24,-0.45731,0.0431,8.12377,0.33565,0.06042,0.32939,304.02057,-4.91324,-0.73236,0.33565
2018.02.20 12:08:07,47.16,11.76,-27.72,-0.68955,-0.50759,10.3289,-0.14082,-0.12223,0.09848,303.18155,-3.93616,-0.25445,1015.17749
2018.02.20 12:08:07,47.16,11.52,-27.72,0.19633,0.84039,7.99688,-0.03026,0.07752,0.23287,302.06137,-3.14928,-0.60416,-0.03026
2018.02.20 12:08:07,48.3,11.04,-26.22,0.39745,1.09897,9.64893,-0.08584,-0.07336,-0.04569,302.12152,-2.14999,-0.58226,1015.17749
2018.02.20 12:08:07,47.46,11.46,-24.6,-0.02155,0.43576,10.87958,0.02045,-0.10146,-0.16053,303.28363,-2.40126,-0.49293,0.02045
2018.02.20 12:08:07,45.78,11.46,-24.66,0.51477,0.36154,10.8724,-0.04797,-0.03426,-0.11899,303.78964,-3.12111,-0.0913,-0.04797
2018.02.20 12:08:07,45.78,11.16,-25.74,-0.7925,-0.34238,9.77343,-0.26788,0.09218,-0.28942,305.1535,-2.15129,-0.13934,1015.16235
2018.02.20 12:08:07,45.72,11.34,-25.26,-0.11014,0.28252,9.71118,0.01251,0.15755,-0.18802,306.10678,-2.03383,-0.42152,0.01251
2018.02.20 12:08:07,44.1,11.28,-24.54,0.25619,0.77575,8.38475,0.15239,-0.01288,-0.07256,306.50531,-2.92518,-0.48595,0.15239
2018.02.20 12:08:07,44.52,11.94,-24.96,-0.05267,0.97926,9.05994,-0.01743,0.003,-0.18252,307.5257,-3.48522,0.0346,-0.01743
2018.02.20 12:08:08,43.08,11.28,-24.72,0.08141,1.2546,9.96976,0.05221,-0.01655,0.0545,307.89429,-4.17271,0.16828,0.05221
2018.02.20 12:08:08,43.02,9.9,-24.84,0.19633,1.13489,10.08229,0.09986,-0.04221,0.11986,307.08856,-5.08262,0.24992,0.09986
2018.02.20 12:08:08,41.28,9,-25.14,-0.94813,-0.79969,12.24911,-0.50978,-0.27433,-0.07195,306.64188,-3.6025,0.89645,-0.50978
2018.02.20 12:08:08,42.18,7.98,-25.14,-0.25379,-0.26337,8.71277,-0.05836,-0.02755,0.08687,305.41306,-4.035,0.30025,-0.05836
2018.02.20 12:08:08,42.54,7.5,-24.42,-0.48364,0.32562,8.99529,0.06993,0.07508,0.14857,305.14139,-3.05722,0.17713,0.06993
2018.02.20 12:08:08,41.04,6.66,-25.38,-0.26337,0.85715,9.60104,-0.02659,-0.07886,0.03922,304.28577,-3.24258,-0.33837,-0.02659
2018.02.20 12:08:08,40.14,5.58,-25.2,-0.06465,0.88828,9.58428,0.03327,0.0708,-0.01636,304.30643,-3.95332,-0.6006,1015.18091
2018.02.20 12:08:08,38.94,6.36,-26.46,0.09098,0.57463,9.68484,0.09375,-0.06542,-0.01514,304.44699,-4.44508,-0.27467,1015.18506
2018.02.20 12:08:08,38.82,6.9,-26.52,-0.80926,-0.19394,10.61382,-0.28376,0.05675,-0.20879,305.26978,-3.00808,0.02838,-0.28376
2018.02.20 12:08:09,38.4,7.86,-27,0.27774,-0.13887,9.30655,0.08764,0.14716,-0.13854,305.55585,-2.1575,0.01844,0.08764
2018.02.20 12:08:09,38.52,7.38,-28.02,0.13408,0.46688,8.93543,0.13651,0.03232,-0.02736,306.11328,-1.85282,0.06698,0.13651
2018.02.20 12:08:09,38.04,7.32,-28.38,0.03591,0.65124,8.69122,0.12613,0.07142,-0.06645,306.42908,-2.61898,-0.03072,0.12613
2018.02.20 12:08:09,37.44,7.68,-28.38,-0.15323,1.27854,9.44063,-0.02293,0.05431,0.00746,306.65414,-3.12047,-0.4324,-0.02293
2018.02.20 12:08:09,37.86,7.98,-29.04,-0.22267,1.03672,10.98254,0.03205,-0.00067,0.08199,306.18454,-4.56168,-0.35501,0.03205
2018.02.20 12:08:09,38.4,7.62,-27.84,0.15802,0.7949,10.9993,-0.3418,-0.05687,0.04839,304.91406,-4.84039,-0.69654,-0.3418
2018.02.20 12:08:09,37.98,8.16,-28.32,-0.28971,0.18675,8.97374,0.03511,-0.11062,0.07649,304.50638,-4.58939,-1.08826,0.03511
2018.02.20 12:08:09,38.76,7.02,-28.8,-0.55787,-0.00479,9.16289,-0.01315,-0.00433,0.04045,304.20172,-3.49009,-1.55104,-0.01315
2018.02.20 12:08:09,39.96,7.14,-29.58,-0.53153,0.80926,8.59066,0.05588,0.01399,0.06794,303.60641,-3.20797,-1.98684,0.05588
2018.02.20 12:08:10,39.12,6.36,-30.48,-0.56984,1.17559,9.28739,0.01922,0.02804,-0.0408,303.52081,-3.82307,-2.11249,1015.17896
2018.02.20 12:08:10,39.72,7.44,-30.18,-0.52435,0.9625,10.21398,-0.07118,-0.10329,-0.05485,303.89914,-4.57472,-2.1509,-0.07118
2018.02.20 12:08:10,39.6,7.38,-31.68,0.47885,0.66082,11.23394,-0.01559,-0.1601,0.05389,303.89661,-4.50656,-1.32687,1015.17944
2018.02.20 12:08:10,38.94,8.58,-31.74,-0.419,-0.43576,12.19644,-0.3418,-0.24501,-0.28026,304.87372,-3.0475,-0.2411,1015.1814
2018.02.20 12:08:10,39.24,9.42,-31.74,-0.0407,-0.09098,9.70878,-0.03759,0.10013,-0.23566,305.42426,-3.16776,-0.58588,-0.03759
2018.02.20 12:08:10,39.6,9.66,-32.46,0.26337,0.69434,8.90191,0.09131,0.06531,-0.0408,306.08682,-3.24534,-1.12999,0.09131
2018.02.20 12:08:10,40.38,10.44,-32.28,0.1245,0.63927,8.68882,-0.00093,0.00972,-0.11227,306.65613,-3.77828,-0.93842,-0.00093
2018.02.20 12:08:10,39.24,10.5,-32.16,0.1245,1.11573,9.26345,-0.00093,0.01338,-0.06218,307.0488,-3.91656,-0.65287,-0.00093
2018.02.20 12:08:10,40.68,9.78,-32.22,-0.50519,1.06066,10.21637,-0.00582,0.05187,0.07343,306.7348,-4.4868,-0.71575,-0.00582
2018.02.20 12:08:10,41.52,10.26,-32.1,-0.51237,-0.62491,13.38639,-0.30698,-0.16743,0.02884,305.9548,-3.70661,-0.73896,-0.30698
2018.02.20 12:08:11,41.7,8.52,-31.26,-0.36393,0.05986,8.89952,0.0797,-0.02021,0.09787,304.94476,-4.694,-1.02457,0.0797
2018.02.20 12:08:11,41.46,8.16,-32.34,-0.51237,0.40942,8.80614,0.12552,0.05003,0.23409,304.35989,-3.76081,-1.12331,0.12552
2018.02.20 12:08:11,41.7,8.16,-31.98,-0.3328,0.87391,8.73671,-0.04858,-0.01411,0.09237,303.54941,-3.63847,-1.55855,-0.04858
2018.02.20 12:08:11,42.54,8.58,-31.98,-0.38548,0.86673,9.41189,-0.01621,0.00178,0.00441,303.27878,-3.64776,-1.9554,1015.16992
2018.02.20 12:08:11,42.6,8.58,-31.08,-0.19872,0.7542,10.66889,-0.0834,-0.13628,-0.0353,303.3085,-3.82701,-1.62967,1015.17358
2018.02.20 12:08:11,42.84,7.62,-32.1,0.70392,0.4597,11.35365,-0.07912,-0.10085,-0.02553,303.56662,-3.44997,-0.60755,-0.07912
2018.02.20 12:08:11,42.12,9.84,-32.58,-0.04789,-0.28492,10.9586,-0.10722,-0.02144,-0.25277,305.15619,-2.33533,0.00387,1015.16943
2018.02.20 12:08:11,42.18,10.62,-32.64,-0.53392,-0.1269,9.36401,0.01373,0.0708,-0.3615,306.90332,-2.34946,-0.23816,1015.1731
2018.02.20 12:08:11,41.94,11.04,-30.54,0.21788,0.76138,8.54038,0.1078,0.04454,-0.05851,307.48914,-2.98074,-0.74295,0.1078
2018.02.20 12:08:12,41.76,11.46,-30.96,0.04549,0.77096,9.75188,-0.11333,-0.02083,-0.05974,308.07187,-2.86333,-0.43037,-0.11333
2018.02.20 12:08:12,42.96,11.7,-30,0.0431,1.20671,9.96258,0.10291,-0.0025,0.00013,308.0665,-3.92788,-0.34481,0.10291
2018.02.20 12:08:12,42.18,11.94,-30.48,-0.28013,0.80687,10.20919,0.06137,0.03965,0.03434,307.7688,-4.80522,-0.66643,0.06137
2018.02.20 12:08:12,43.32,10.56,-28.86,-0.72307,-0.55308,11.42069,-0.34485,-0.03854,-0.02919,307.1254,-3.77573,-0.58147,-0.34485
2018.02.20 12:08:12,43.74,11.16,-28.98,-0.84757,-0.05986,8.94022,-0.09623,0.0708,0.05877,306.41473,-3.60881,-0.61801,-0.09623
2018.02.20 12:08:12,43.74,11.4,-29.16,-0.99841,-0.06225,9.83329,-0.00093,0.003,0.12475,305.90356,-1.97483,-1.08004,-0.00093
2018.02.20 12:08:12,43.14,10.5,-28.98,-0.34478,0.47646,9.43344,0.00212,0.01033,0.19561,304.83588,-1.74502,-1.80603,0.00212
2018.02.20 12:08:12,44.16,10.32,-27.9,-0.26576,0.82842,9.41189,0.06748,0.13739,0.09665,304.1875,-2.3218,-2.21024,0.06748
2018.02.20 12:08:12,44.34,9.9,-26.64,-0.29928,0.63927,10.77663,0.02045,0.01888,0.0264,303.74612,-3.32645,-1.99443,0.02045
2018.02.20 12:08:13,43.8,10.08,-28.32,0.48364,-0.60815,11.72955,-0.27216,0.05431,-0.33707,304.01385,-3.63515,-0.81337,1015.16797
2018.02.20 12:08:13,43.5,12,-26.4,0.12211,-0.09577,10.3313,0.16339,-0.05137,0.00257,305.62198,-2.10933,-0.62965,0.16339
2018.02.20 12:08:13,43.92,13.14,-27.54,-0.35675,0.1269,9.40471,0.11269,0.08913,-0.09639,306.98206,-1.60326,-0.88772,0.11269
2018.02.20 12:08:13,44.22,13.86,-27.24,0.32323,0.53392,8.88276,0.08337,0.07447,-0.03102,307.3736,-2.10385,-1.35747,1015.18335
2018.02.20 12:08:13,43.92,14.16,-26.64,-0.04549,1.08221,9.19641,0.04732,0.04148,-0.00659,307.88556,-2.33868,-1.14267,0.04732
2018.02.20 12:08:13,44.52,14.22,-27.24,-0.22027,0.7925,10.45101,0.03389,0.0146,0.00074,307.83127,-3.58186,-0.98546,0.03389
2018.02.20 12:08:13,45.3,14.22,-25.08,-0.11253,0.92658,10.29778,0.06443,0.0537,0.13513,307.16183,-4.02189,-1.39614,1015.17334
2018.02.20 12:08:13,45.72,15,-25.08,-0.70871,-0.40703,8.86839,-0.20313,-0.19431,0.02945,306.34998,-3.26124,-1.00796,-0.20313
2018.02.20 12:08:13,46.92,12.96,-26.28,-0.44055,-0.27534,8.89473,0.029,-0.03732,0.184,305.03903,-3.71772,-0.89589,0.029
2018.02.20 12:08:14,46.5,12.96,-25.68,-0.05746,0.63688,8.47094,0.05527,0.0366,0.24936,303.75681,-3.2944,-0.90087,0.05527
2018.02.20 12:08:14,48.6,12.24,-26.82,-0.30407,0.7518,9.68963,-0.03514,-0.06175,0.04045,303.20084,-3.22711,-0.54209,-0.03514
2018.02.20 12:08:14,48.78,12.72,-25.8,0.08859,0.90264,10.12299,-0.0046,-0.04709,-0.03652,303.21182,-3.51053,-0.63891,-0.0046
2018.02.20 12:08:14,50.1,12.36,-26.64,0.27774,0.78053,10.03201,0.029,-0.09352,-0.06768,303.60956,-3.84568,-0.08062,0.029
2018.02.20 12:08:14,50.28,12.42,-27.24,-0.44055,-0.26816,11.42787,-0.34424,-0.07947,-0.27109,304.79675,-2.45412,0.56944,-0.34424
2018.02.20 12:08:14,51.06,13.44,-25.74,0.15802,-0.5028,9.68005,0.02106,0.08424,-0.18191,305.60562,-2.31449,0.08967,1015.17407
2018.02.20 12:08:14,49.98,12.96,-25.68,0.03591,0.17718,8.92825,0.1811,0.15144,-0.03041,306.52203,-1.52925,-0.31732,0.1811
2018.02.20 12:08:14,51.72,12.18,-26.1,0.36632,0.68955,9.04557,-0.00826,0.05859,-0.17702,306.81009,-2.08333,-0.42854,-0.00826
2018.02.20 12:08:14,51.96,11.22,-25.2,-0.55068,0.96968,9.67048,-0.02842,0.08546,-0.21978,308.09442,-2.59031,-0.49848,1015.17334
2018.02.20 12:08:14,51.72,11.58,-24.3,-0.25858,0.83321,10.54918,0.04855,-0.00861,0.05816,308.0643,-3.74355,-0.9605,0.04855
2018.02.20 12:08:15,51.9,9.06,-24.06,0.34717,0.4166,10.63776,-0.15121,-0.00678,0.18889,306.91592,-3.89741,-1.06757,-0.15121
2018.02.20 12:08:15,52.14,7.56,-23.4,-0.65843,-0.42858,10.72156,0.36009,-0.14544,0.27563,306.15399,-3.54948,-0.83828,0.36009
2018.02.20 12:08:15,52.2,7.14,-23.82,-0.37111,-0.46449,9.83808,-0.19275,-0.0251,0.05572,305.2897,-2.75854,-0.05608,-0.19275
2018.02.20 12:08:15,52.02,4.86,-24.12,-0.49801,0.67997,8.74629,0.04549,0.08119,0.14429,304.38449,-2.47042,-0.3357,0.04549
2018.02.20 12:08:15,50.82,3.66,-24.96,-0.08619,0.81405,9.79977,0.00212,0.01277,0.02762,303.99146,-2.74947,-0.55881,0.00212
2018.02.20 12:08:15,50.1,3.18,-24.06,-0.15802,0.85476,9.73033,0.0516,0.02743,-0.03774,304.1799,-3.52192,-0.98372,0.0516
2018.02.20 12:08:15,49.74,2.7,-25.32,0.20112,0.78532,10.61382,-0.03453,-0.1375,0.08076,304.12143,-3.94949,-0.7755,-0.03453
2018.02.20 12:08:15,48.96,2.88,-25.32,-0.39027,-0.55308,11.68406,-0.22329,0.01949,-0.15931,304.73215,-2.65424,-0.3031,-0.22329
2018.02.20 12:08:15,47.58,3.54,-24.84,0.34717,-0.25619,10.19482,-0.03514,0.05309,-0.12571,305.13846,-1.50473,-0.49491,-0.03514
2018.02.20 12:08:16,47.46,3.36,-23.82,0.00239,0.57702,8.78459,0.10536,0.09096,-0.06584,305.73071,-0.89239,-0.09558,1015.177
2018.02.20 12:08:16,46.56,4.14,-24.84,0.13408,0.65843,8.83966,0.05221,0.0427,-0.12449,306.09708,-1.80849,0.05756,0.05221
2018.02.20 12:08:16,46.2,4.02,-25.86,-0.11732,0.90025,9.67048,-0.03148,0.03843,-0.13365,306.81238,-2.43778,-0.07746,1015.16577
2018.02.20 12:08:16,46.14,3.96,-25.32,-0.09577,0.93856,10.21637,0.11208,0.00055,0.02517,306.86127,-3.70614,-0.31618,1015.17163
2018.02.20 12:08:16,45.6,3.24,-25.02,-0.2107,0.48843,10.14454,-0.11944,0.0256,0.19072,305.9187,-4.45682,-0.72877,-0.11944
2018.02.20 12:08:16,45.84,3.36,-26.04,-0.74701,-0.13647,10.81254,0.20615,0.0763,0.29579,305.07736,-3.47056,-0.99683,0.20615
2018.02.20 12:08:16,45.72,2.94,-25.92,-0.45491,-0.28492,8.89234,-0.02781,-0.11551,0.16262,303.9971,-3.15904,-0.74863,1015.17749
2018.02.20 12:08:16,44.76,2.22,-26.28,-0.2083,0.54829,8.79417,-0.01865,-0.01411,0.11375,303.14862,-2.90702,-0.63772,-0.01865
2018.02.20 12:08:16,44.1,2.1,-26.82,-0.26098,0.95053,9.61062,0.01312,-0.0135,-0.04324,302.98428,-2.96802,-0.33596,0.01312
2018.02.20 12:08:16,44.88,2.7,-27.6,-0.33041,1.01278,9.42147,0.03633,-0.01838,-0.05424,303.40036,-3.81477,-0.86557,0.03633
2018.02.20 12:08:17,44.58,2.46,-28.08,-0.11014,0.65124,10.16609,0.01006,-0.08924,-0.05485,303.67792,-4.29347,-0.52515,1015.18457
2018.02.20 12:08:17,43.62,4.68,-28.5,-0.16281,-0.40224,12.13179,-0.41877,-0.09291,-0.23811,304.41928,-2.63341,0.28434,-0.41877
2018.02.20 12:08:17,43.32,4.8,-28.14,0.2107,-0.06704,9.39753,0.00517,0.05309,-0.12571,304.8876,-2.13554,0.09191,0.00517
2018.02.20 12:08:17,43.8,6.06,-28.8,-0.20351,0.28731,9.4502,0.11452,0.10074,-0.10494,305.92838,-1.74144,-0.274,0.11452
2018.02.20 12:08:17,44.52,5.88,-28.98,0.08619,0.64885,9.05515,0.06809,0.06408,-0.10922,306.28799,-2.52242,-0.59277,0.06809
2018.02.20 12:08:17,44.4,6.3,-28.26,-0.12211,0.97208,9.58189,0.00334,0.06775,-0.11838,306.92255,-3.02665,-0.62534,0.00334
2018.02.20 12:08:17,45.12,6.9,-28.32,0.22746,1.2546,10.09666,0.10475,-0.01166,0.03922,306.98895,-4.26107,-0.73875,0.10475
2018.02.20 12:08:17,44.22,5.94,-28.44,-0.05746,0.71828,9.99131,0.02594,0.08485,0.13574,306.7811,-5.11358,-0.63973,1015.18188
2018.02.20 12:08:17,44.76,5.58,-27.66,-0.28013,0.01676,9.25866,0.13834,0.20519,0.17606,306.33176,-3.69749,-0.58208,0.13834
2018.02.20 12:08:18,45.6,5.76,-28.32,-0.79729,-0.33999,10.22595,-0.11089,-0.09779,-0.01331,306.09656,-3.11846,-0.41298,1015.17163
2018.02.20 12:08:18,45.36,4.74,-28.62,-0.37111,0.39027,8.63136,0.05343,0.07019,0.13635,305.64066,-1.77767,-1.57524,1015.16748
2018.02.20 12:08:18,46.2,3.36,-28.32,-0.25619,0.67519,9.63696,-0.07302,-0.04037,0.0264,305.14966,-1.89476,-1.77822,-0.07302
2018.02.20 12:08:18,46.02,3.36,-28.02,-0.08141,1.06545,9.5771,0.04916,-0.008,0.04533,305.02072,-2.48826,-2.11568,0.04916
2018.02.20 12:08:18,46.26,3.9,-27.9,-0.13408,0.60815,11.33929,0.03511,-0.18942,0.02212,305.05164,-3.31196,-1.3124,0.03511
2018.02.20 12:08:18,44.88,3.6,-29.76,-0.34956,-0.14845,11.28901,-0.1396,-0.1094,-0.1929,305.78131,-2.58241,-0.06522,1015.17114
2018.02.20 12:08:18,44.4,3.66,-30.06,0.31126,-0.19872,9.47893,0.07176,-0.0477,-0.10127,306.48102,-2.41136,-0.00155,0.07176
2018.02.20 12:08:18,44.4,4.86,-30.06,-0.32802,0.36632,9.4933,-0.00765,0.00361,-0.03591,307.42188,-1.58572,-0.28394,-0.00765
2018.02.20 12:08:18,44.64,4.02,-29.64,0.10774,0.73025,9.25387,0.07115,0.02255,0.03984,306.92462,-2.27538,-0.53283,0.07115
2018.02.20 12:08:19,44.88,4.32,-31.02,-0.03591,0.75659,9.5771,0.07542,0.03904,0.02334,306.76868,-3.00528,-0.56161,0.07542
2018.02.20 12:08:19,44.7,3.36,-29.46,0.2107,0.98644,9.77582,0.13407,0.05492,0.16018,306.0751,-3.98811,-0.56199,0.13407
2018.02.20 12:08:19,44.52,2.28,-30.54,0.18675,0.67758,9.96497,0.03083,0.03476,0.34832,304.72061,-4.51753,-0.4627,0.03083
2018.02.20 12:08:19,44.46,1.14,-31.2,-0.15563,0.22267,10.0775,0.09436,0.16915,0.23837,303.27457,-3.8027,-0.20657,0.09436
2018.02.20 12:08:19,45.48,0.24,-31.14,-0.3352,0.03113,9.67766,-0.06569,-0.06542,0.03312,302.56195,-3.86509,-0.30027,1015.1665
2018.02.20 12:08:19,45.06,0,-32.64,-0.31126,0.40224,8.77741,0.02472,0.02621,0.0435,302.26129,-2.68785,-0.9993,1015.17334
2018.02.20 12:08:19,45.3,-0.96,-32.94,0.15084,0.81884,9.43823,0.01922,-0.05809,0.09481,301.67117,-2.75174,-0.93887,1015.17383
2018.02.20 12:08:19,45.78,-1.08,-32.22,-0.36393,0.88109,9.13655,0.08214,0.03598,-0.0634,301.9751,-3.217,-1.0619,1015.17529
2018.02.20 12:08:19,44.88,0.24,-31.86,-0.18675,0.87391,10.43664,-0.01926,-0.09718,-0.09822,302.64105,-3.61586,-0.75111,-0.01926
2018.02.20 12:08:19,43.8,-0.06,-32.64,0.13408,0.28971,10.26904,-0.14876,0.07019,-0.20146,303.73654,-3.0194,-0.37967,1015.18066
2018.02.20 12:08:20,44.22,2.46,-32.76,0.76617,0.13169,9.14374,0.02167,-0.008,-0.03469,304.97781,-2.06882,-0.11475,1015.17358
2018.02.20 12:08:20,43.14,3.06,-33.06,-0.09338,0.01676,9.79019,-0.08523,0.08669,-0.28026,306.62024,-2.20512,-0.70238,-0.08523
2018.02.20 12:08:20,42.66,3.3,-32.28,0.35196,0.68476,8.88037,0.11513,0.04576,-0.05668,307.12637,-2.35833,-0.8373,0.11513
2018.02.20 12:08:20,44.64,3.72,-33.54,-0.25858,0.64645,9.39513,-0.0217,0.05859,-0.16053,307.90323,-2.81795,-0.61286,1015.18042
2018.02.20 12:08:20,43.44,3.36,-33.12,0.03113,1.19235,9.47893,0.09742,0.02682,0.03617,307.9758,-3.63938,-0.6306,0.09742
2018.02.20 12:08:20,42.96,2.76,-33.6,-0.30407,0.8787,10.22834,0.04916,-0.01777,0.09787,307.73056,-4.56018,-0.42355,0.04916
2018.02.20 12:08:20,41.94,3.78,-33.36,-0.04549,-0.52674,12.64417,-0.26238,-0.17537,0.08687,306.75815,-3.72262,-0.40528,-0.26238
2018.02.20 12:08:20,42.84,1.8,-34.02,-0.49322,0.16999,8.33926,0.018,0.11967,0.15773,305.38885,-3.80061,-0.41822,0.018
2018.02.20 12:08:20,42.84,1.2,-33.18,-0.3783,-0.12211,10.55396,-0.17075,-0.07947,0.07588,304.81204,-2.88705,-0.59759,-0.17075
2018.02.20 12:08:21,43.02,1.8,-34.2,-0.27055,0.5842,8.67446,0.05099,0.03415,0.0661,304.2822,-2.94192,-1.21621,0.05099
2018.02.20 12:08:21,42.54,1.86,-34.02,-0.59378,0.67279,9.89314,-0.01987,-0.00678,-0.02064,304.43256,-2.72291,-1.41984,-0.01987
2018.02.20 12:08:21,43.56,1.26,-33.96,-0.34238,0.86673,9.95779,-0.01437,-0.08924,-0.04263,304.48859,-3.39238,-1.76683,1015.19263
2018.02.20 12:08:21,42.78,1.68,-32.64,0.03591,0.38308,10.45819,0.01434,-0.11979,-0.0634,304.84195,-3.66223,-1.21152,1015.18848
2018.02.20 12:08:21,42.42,3.42,-33.54,-0.08141,0.05746,9.88357,-0.17259,-0.04037,-0.13854,305.76617,-2.06955,-0.91342,1015.18091
2018.02.20 12:08:21,42.6,3.06,-33.84,0.01676,-0.37351,9.48612,0.03144,0.13128,-0.28026,306.4281,-2.39323,-1.16881,1015.17554
2018.02.20 12:08:21,42.9,4.32,-33.48,-0.22027,0.24182,8.97135,0.1866,0.08608,0.01662,307.67102,-1.91067,-1.22516,0.1866
2018.02.20 12:08:21,43.08,4.02,-34.5,-0.29689,0.10774,9.59146,0.01434,-0.02144,-0.0463,307.69385,-2.27862,-0.89691,0.01434
2018.02.20 12:08:21,43.8,3.96,-34.02,0.15563,0.75899,9.14134,0.01189,0.09341,0.0099,307.67938,-2.27199,-1.16851,1015.18359
2018.02.20 12:08:21,44.1,3,-34.2,-0.1676,0.85476,9.93624,0.04244,0.01399,-0.00048,307.46521,-3.20675,-0.92201,0.04244
2018.02.20 12:08:22,44.76,2.1,-34.2,-0.22985,0.88588,9.6609,0.0742,0.12639,0.22859,306.65915,-3.91358,-1.19937,0.0742
2018.02.20 12:08:22,43.38,1.62,-33.72,-0.06225,-0.38548,11.55238,0.03083,0.0201,0.15651,305.76093,-3.14125,-1.01466,0.03083
2018.02.20 12:08:22,44.28,0.54,-34.38,-0.51237,-0.06465,8.35841,0.14201,0.13372,0.09359,305.02533,-3.48374,-1.5455,0.14201
2018.02.20 12:08:22,44.94,-0.96,-33.18,-0.82842,-0.28252,10.63058,-0.14999,-0.1656,0.0716,304.59604,-1.38666,-1.96165,-0.14999
2018.02.20 12:08:22,44.88,-1.08,-32.52,-0.66082,0.419,9.16528,-0.02964,0.02927,0.10886,303.75717,-1.14514,-2.94668,-0.02964
2018.02.20 12:08:22,45.3,-2.4,-34.98,-0.60575,0.55308,9.89314,-0.0498,0.01216,0.01723,303.31418,-1.12935,-3.05576,-0.0498
2018.02.20 12:08:22,46.14,-2.4,-33.54,-0.24182,1.12291,9.81413,0.00579,0.00789,0.05938,303.05692,-2.00421,-2.98929,0.00579
2018.02.20 12:08:22,44.76,-3.84,-34.68,0.02155,0.66082,10.35524,0.14812,-0.08924,-0.04141,303.20425,-3.65802,-2.06839,1015.17261
2018.02.20 12:08:22,44.88,-2.94,-35.58,-0.27534,0.28013,10.92029,-0.14571,-0.13628,-0.28698,304.44971,-3.5575,-0.94199,1015.18555
2018.02.20 12:08:23,44.34,-2.22,-36.06,-0.03113,0.419,9.52682,0.20554,-0.0587,-0.01087,305.13031,-3.24382,-0.20269,1015.19092
2018.02.20 12:08:23,44.1,-1.98,-36.24,-0.31126,0.00479,9.79498,-0.03087,0.01644,-0.1868,306.59396,-3.59592,-0.61655,-0.03087
2018.02.20 12:08:23,44.46,-2.76,-36.84,0.32802,0.98884,9.31852,0.19027,-0.04343,0.15895,306.11224,-4.06135,-0.37933,1015.19702
2018.02.20 12:08:23,43.98,-5.76,-36.48,0.19872,0.97926,9.28021,0.03816,0.07936,0.01174,305.54773,-4.83443,-0.44494,1015.20093
2018.02.20 12:08:23,45.54,-6.42,-36.3,0.22027,1.43178,9.41668,0.06993,0.11784,0.12047,304.92361,-5.65196,-0.49022,0.06993
2018.02.20 12:08:23,45.96,-6.36,-35.88,-0.24182,1.25939,10.41988,0.03877,0.13128,0.15529,304.13892,-6.55352,-0.68103,0.03877
2018.02.20 12:08:23,44.82,-8.82,-34.2,0.20112,-0.16042,12.44783,-0.24161,-0.18698,0.06977,302.91895,-6.4371,-0.97756,-0.24161
2018.02.20 12:08:23,45.18,-9.3,-34.38,-0.24422,0.4621,7.89632,0.1976,-0.21142,0.184,301.85867,-6.44476,-0.91312,0.1976
2018.02.20 12:08:23,45.48,-10.32,-34.74,-0.68955,-0.13887,10.88916,-0.12372,-0.13506,-0.03774,301.61755,-5.67732,-0.48052,-0.12372
2018.02.20 12:08:24,45.54,-10.8,-36.42,-0.17239,1.18517,8.00885,0.18049,0.15449,0.1449,301.30374,-5.27964,-0.80217,0.18049
2018.02.20 12:08:24,45.96,-10.5,-35.64,-0.3328,0.71589,9.78301,-0.08768,0.0311,-0.09455,301.32413,-4.65628,-0.73753,1015.21826
2018.02.20 12:08:24,46.14,-11.22,-35.4,-0.05507,1.52755,8.82769,-0.06569,0.20581,-0.00476,301.48785,-5.04774,-1.44361,1015.21777
2018.02.20 12:08:24,46.68,-10.5,-34.32,-0.42618,1.08221,10.27144,-0.01071,0.02316,-0.15137,302.21329,-5.34787,-1.9031,1015.21313
2018.02.20 12:08:24,47.16,-11.04,-34.68,-0.26576,0.52674,11.13338,-0.0834,-0.0813,-0.1086,302.94485,-4.95653,-1.96346,1015.20313
2018.02.20 12:08:24,47.52,-8.94,-34.08,-0.69195,0.03831,9.68005,0.01006,0.09707,-0.03591,303.96298,-3.98666,-2.98481,1015.20679
2018.02.20 12:08:24,47.34,-9.24,-32.58,-1.16362,-0.42858,10.59706,0.01434,0.21008,-0.16053,304.58521,-2.8886,-4.11963,0.01434
2018.02.20 12:08:24,48.54,-9.54,-32.22,-0.13169,-0.03831,10.19722,0.39368,0.35241,-0.03774,304.91428,-3.286,-5.27242,1015.21729
