Time,Mag_x,Mag_y,Mag_z,Acc_x,Acc_y,Acc_z,Gyro_x,Gyro_y,Gyro_z,Orn_x,Orn_y,Orn_z,Pressure
2018.03.30 20:35:30,35.34,4.92,-35.64,-0.54111,1.04869,10.59227,-0.3541,-0.06243,0.17013,281.63977,-3.47992,-1.88743,1018.39673
2018.03.30 20:35:31,35.22,4.38,-35.34,-0.2921,1.15165,9.92666,-0.11464,0.09761,0.08461,280.50183,-3.66102,-1.7679,1018.40552
2018.03.30 20:35:31,35.7,4.32,-33.84,-0.40703,1.12052,9.51245,-0.0505,0.22773,0.02841,280.1272,-3.58296,-2.4907,-0.0505
2018.03.30 20:35:31,36.12,4.68,-33.6,-0.69434,1.2115,9.45739,-0.13174,0.1477,0.00215,280.18231,-4.07214,-3.34573,1018.41187
2018.03.30 20:35:31,35.46,4.68,-33.78,-0.48604,1.12052,10.23553,-0.09937,-0.05755,-0.01923,280.2276,-4.38025,-3.31868,1018.40503
2018.03.30 20:35:31,35.76,4.38,-32.88,-0.85476,1.27615,10.10863,0.03991,-0.10336,0.02475,280.60062,-5.01596,-3.0197,0.03991
2018.03.30 20:35:31,35.82,4.2,-32.94,-0.31844,0.18196,10.80776,-0.26186,-0.0496,-0.15118,280.7294,-5.27524,-2.70481,-0.26186
2018.03.30 20:35:31,34.98,5.76,-33.36,-0.00718,-0.93137,11.35605,-0.19589,-0.13451,-0.12369,281.68161,-3.26691,-1.99605,1018.41821
2018.03.30 20:35:31,35.7,5.88,-32.52,0.05028,-0.14366,8.4039,0.24394,0.19291,-0.16829,282.95261,-3.24561,-2.4413,0.24394
2018.03.30 20:35:31,35.76,6.72,-32.28,-0.39266,-0.56026,10.54678,-0.07188,-0.02639,-0.28007,284.28665,-2.69589,-2.54052,-0.07188
2018.03.30 20:35:32,36.24,6.12,-32.58,0.05986,0.92658,8.98571,0.24272,-0.06427,0.09011,284.25995,-2.98795,-2.42896,0.24272
2018.03.30 20:35:32,36.18,6.42,-31.98,0.0431,0.838,9.33767,0.00142,-0.00868,-0.08276,284.30017,-3.53128,-1.99215,0.00142
2018.03.30 20:35:32,36.24,6.36,-30.9,-0.03831,1.13489,10.10863,-0.00346,-0.00868,-0.05222,284.48871,-3.89384,-1.69657,-0.00346
2018.03.30 20:35:32,36.12,4.86,-30.96,-0.06225,0.95532,10.5372,0.15781,-0.07709,0.10721,283.87799,-5.25013,-1.14382,1018.40649
2018.03.30 20:35:32,35.94,4.86,-31.02,0.58181,-0.67279,11.80377,-0.27163,-0.11313,0.16158,282.87369,-4.6255,-0.74476,1018.40918
2018.03.30 20:35:32,36.84,5.4,-30.9,-0.8787,0.21788,7.5707,0.44858,0.13671,0.18479,282.39774,-4.6046,-1.44345,1018.41406
2018.03.30 20:35:32,36.96,4.56,-30.78,-0.62491,-0.39506,10.91071,-0.28568,-0.10092,0.09011,281.53345,-3.35472,-1.51533,-0.28568
2018.03.30 20:35:32,36.96,4.8,-30.36,-0.40224,0.87152,8.64333,0.07534,0.11472,0.09988,280.86224,-3.03676,-1.81786,0.07534
2018.03.30 20:35:32,36.54,3.9,-29.82,-0.52195,0.7518,10.14694,-0.14824,-0.02945,0.01558,280.36838,-2.79358,-2.09428,-0.14824
2018.03.30 20:35:33,37.68,4.14,-30.78,-0.73504,0.96729,9.94342,0.06068,-0.01173,0.08706,279.96628,-3.10942,-2.34457,0.06068
2018.03.30 20:35:33,36.66,4.32,-30.54,-0.09817,0.79011,11.23633,0.16697,-0.184,0.19212,279.30127,-4.2439,-1.98997,0.16697
2018.03.30 20:35:33,37.5,3.18,-31.02,-0.67519,-0.27774,9.62498,-0.09204,0.1477,-0.20555,279.60724,-3.46817,-1.76192,-0.09204
2018.03.30 20:35:33,37.02,2.94,-30.24,0.85715,-0.40224,10.04638,0.01853,0.00782,-0.17989,279.42316,-2.66993,-0.68812,0.01853
2018.03.30 20:35:33,37.32,3.72,-30.6,-0.35435,-0.03352,9.37119,-0.03584,0.05546,-0.26175,280.49155,-1.40911,-0.52478,-0.03584
2018.03.30 20:35:33,38.16,4.32,-30.72,0.34717,0.64406,9.71836,0.05213,-0.1339,0.01558,280.38187,-1.44036,-0.2333,1018.4126
2018.03.30 20:35:33,37.44,3.3,-30.12,0.33041,0.93137,9.33528,0.09611,-0.03067,-0.13347,280.5766,-2.62291,0.22382,1018.41309
2018.03.30 20:35:33,37.92,4.32,-29.76,-0.06465,1.20671,9.61541,0.16269,0.04936,-0.09071,281.25269,-3.77758,0.01688,1018.41748
2018.03.30 20:35:33,37.74,3.48,-29.1,-0.14126,0.70871,10.05595,-0.18489,0.02736,0.1402,280.95602,-4.97533,-0.30895,-0.18489
2018.03.30 20:35:33,36.24,4.44,-29.16,-0.15563,-1.23066,12.99612,-0.18733,-0.35504,-0.08765,280.93005,-2.838,0.92162,1018.4126
2018.03.30 20:35:34,36.3,3.42,-28.14,-0.7925,0.38308,7.9035,0.30808,0.01759,0.18052,279.96085,-3.61665,0.45675,1018.41357
2018.03.30 20:35:34,35.52,3.18,-28.32,-0.5004,0.08619,10.76227,-0.12441,0.03469,0.03269,279.22983,-2.74956,0.66737,-0.12441
2018.03.30 20:35:34,36.3,2.04,-27.96,-0.37351,1.07742,8.54038,0.02891,0.05974,0.09805,278.59958,-3.3437,-0.34959,0.02891
2018.03.30 20:35:34,35.7,2.16,-27.96,-0.54589,0.8356,9.90272,-0.14702,0.10128,0.01742,278.21277,-3.43932,-1.44442,1018.40796
2018.03.30 20:35:34,36.84,1.74,-27.78,-0.55068,0.88588,10.79339,-0.02851,0.12938,0.02475,277.90549,-3.86217,-2.59009,-0.02851
2018.03.30 20:35:34,38.1,0.24,-28.68,0.66082,-0.01676,11.77983,-0.04073,-0.00684,-0.02046,277.34323,-4.0589,-2.14841,-0.04073
2018.03.30 20:35:34,36.6,1.68,-28.2,-0.28492,-0.09338,9.75428,0.09061,-0.04105,-0.08948,278.05414,-2.3029,-1.42692,0.09061
2018.03.30 20:35:34,37.44,0.48,-27.72,-0.09817,-0.3783,10.08708,-0.07738,0.00049,-0.31978,278.40167,-2.44684,-0.89627,-0.07738
2018.03.30 20:35:34,37.38,1.5,-28.2,-0.40703,0.42618,9.26105,0.0845,0.12266,-0.13469,279.17517,-2.31277,-1.46122,0.0845
2018.03.30 20:35:35,36.72,1.26,-27.84,0.02155,0.7925,9.54358,0.00387,0.04752,-0.02412,279.06851,-2.564,-1.78427,1018.39917
2018.03.30 20:35:35,37.38,1.32,-27.48,-0.54111,1.32403,9.70878,0.06434,0.11777,-0.0339,279.0386,-3.33439,-2.25913,1018.40405
2018.03.30 20:35:35,36.42,0.3,-26.58,-0.2514,1.22826,10.4558,0.17735,0.06096,0.12065,278.27698,-4.6885,-2.33127,1018.40259
2018.03.30 20:35:35,36.12,-0.24,-26.22,-0.55787,-1.07503,12.99612,-0.13113,-0.07709,-0.15546,277.69891,-3.9817,-2.16043,-0.13113
2018.03.30 20:35:35,35.76,-1.14,-26.4,-0.96729,0.2945,7.50126,0.36306,0.02431,0.10538,276.93292,-4.47646,-2.36617,1018.41064
2018.03.30 20:35:35,36,-1.5,-27.06,-0.70152,-0.18196,10.85085,-0.21665,-0.13207,0.12065,275.68643,-3.29135,-2.30281,1018.41089
2018.03.30 20:35:35,34.5,-3.3,-26.22,-0.48843,0.92419,9.30655,0.01242,0.03286,0.15792,274.0123,-3.2599,-2.57207,0.01242
2018.03.30 20:35:35,34.8,-3.18,-26.52,-0.69913,0.98644,9.88596,-0.09754,0.08173,0.03208,272.89636,-3.73607,-2.76908,-0.09754
2018.03.30 20:35:35,33.84,-4.98,-26.22,-0.73265,1.24502,9.59386,0.0338,0.0292,0.01375,272.22159,-4.56482,-3.04205,1018.41333
2018.03.30 20:35:36,32.94,-3.78,-26.28,0.0407,0.52195,10.50368,0.07717,-0.16261,-0.01557,271.92392,-5.29509,-2.41206,0.07717
2018.03.30 20:35:36,31.32,-2.88,-26.64,-0.47885,-0.9218,11.50449,-0.3034,-0.01356,-0.15424,272.38535,-2.62726,-1.96523,-0.3034
2018.03.30 20:35:36,31.86,-3.3,-26.1,-0.14126,-0.17239,9.46457,0.04907,-0.00807,-0.18111,271.90216,-2.93662,-1.78462,0.04907
2018.03.30 20:35:36,32.82,-3.12,-27.06,-0.51716,0.35196,9.22993,0.14742,0.01087,0.06079,272.11459,-1.9536,-2.23462,0.14742
2018.03.30 20:35:36,32.46,-4.14,-26.64,0.25619,0.99362,9.15331,-0.04011,0.06524,-0.08521,270.97845,-2.9433,-1.8187,0.11138
2018.03.30 20:35:36,31.38,-3.3,-25.98,-0.64645,1.38389,10.09426,-0.00835,0.04691,-0.15301,271.17108,-3.86985,-1.45321,1018.41504
2018.03.30 20:35:36,30.36,-3,-25.62,-0.42139,1.02475,11.21478,0.14009,-0.0435,0.00948,270.86777,-5.78733,-1.31358,1018.42065
2018.03.30 20:35:36,31.08,-3.3,-24.96,-0.56744,-0.42858,11.22915,-0.21727,-0.1058,0.00337,270.49625,-5.29235,-1.38329,1018.41577
2018.03.30 20:35:36,32.04,-3.84,-26.76,-0.52195,0.36393,7.96575,0.34045,0.05974,0.29292,269.23676,-4.06701,-1.93217,0.34045
2018.03.30 20:35:37,30.9,-4.14,-26.34,-0.81166,-0.17718,10.62579,-0.2307,-0.05022,0.07789,268.17175,-3.28537,-1.93287,-0.2307
2018.03.30 20:35:37,30.36,-4.44,-26.52,-0.78772,0.96968,8.51883,-0.04806,0.01759,0.17563,266.88184,-2.77427,-2.53198,-0.04806
2018.03.30 20:35:37,30.36,-4.38,-26.88,-0.46449,0.91461,10.80776,-0.10975,0.08051,-0.01313,266.00726,-2.79979,-2.71106,-0.10975
2018.03.30 20:35:37,30.18,-3.96,-26.94,-0.51477,0.65124,10.88916,0.04785,-0.16261,-0.03878,266.16107,-3.91935,-2.89341,1018.4043
2018.03.30 20:35:37,29.94,-4.08,-27.3,-0.07662,-0.35914,11.86842,0.03197,-0.1223,-0.03939,266.57056,-3.52778,-1.79039,1018.41919
2018.03.30 20:35:37,29.46,-2.28,-27.12,0.88588,-0.25858,10.02483,0.0674,-0.09298,-0.05467,267.43622,-2.74984,-1.35741,1018.41284
2018.03.30 20:35:37,30.24,-1.92,-27,-0.58181,0.05746,9.37119,-0.01507,0.11289,-0.39492,269.31589,-2.50157,-1.36447,1018.41821
2018.03.30 20:35:37,29.64,-0.66,-26.82,-0.11971,0.85236,8.80375,0.14253,-0.00074,-0.02107,270.29755,-2.82952,-1.80551,0.14253
2018.03.30 20:35:37,29.52,-0.3,-26.64,-0.19154,0.72068,9.82131,-0.07677,0.06341,-0.14691,270.87451,-3.17077,-1.65369,-0.07677
2018.03.30 20:35:38,29.52,-0.24,-26.28,-0.61054,1.3384,10.75269,0.08023,0.00598,0.06079,271.35178,-4.51697,-2.25119,0.08023
2018.03.30 20:35:38,29.82,-0.36,-26.88,0.21309,0.60096,12.06954,-0.02484,0.11044,0.19701,270.55612,-5.44506,-2.64806,1018.40942
2018.03.30 20:35:38,29.4,-0.6,-26.76,-1.02714,-0.18915,9.285,0.30808,0.13793,0.16891,270.86929,-4.57024,-2.69544,1018.40894
2018.03.30 20:35:38,30.54,-1.26,-27.54,-0.72307,-0.17718,10.04638,-0.13419,-0.10886,-0.02351,270.33786,-4.63322,-2.83008,-0.13419
2018.03.30 20:35:38,30.18,-1.26,-26.64,-0.99362,0.65364,8.63375,-0.00591,0.04264,0.01986,270.66992,-3.64021,-3.41241,-0.00591
2018.03.30 20:35:38,29.34,0.36,-28.14,-0.79969,0.76856,9.9937,-0.09021,-0.05388,0.03086,270.78244,-3.20235,-3.68123,1018.41406
2018.03.30 20:35:38,28.98,-0.24,-27.66,-0.93377,1.23305,9.84526,-0.0169,0.06341,-0.01801,271.09253,-3.64517,-3.93539,-0.0169
2018.03.30 20:35:38,28.62,-0.06,-28.02,-0.04549,1.24981,10.47256,0.04663,-0.162,0.09255,271.22409,-4.37993,-3.43982,0.04663
2018.03.30 20:35:38,28.98,2.1,-28.74,-0.99362,-1.14686,12.69205,-0.55569,-0.11924,-0.31245,273.07388,-2.00066,-2.56689,-0.55569
2018.03.30 20:35:39,28.14,2.76,-28.5,0.31844,-0.09577,10.5396,0.01242,-0.07832,-0.19761,273.66422,-2.23347,-1.90268,0.01242
2018.03.30 20:35:39,28.14,3.36,-28.8,-0.38548,0.40224,8.74389,0.16575,0.0463,0.05896,274.95413,-2.68915,-2.34853,1018.42896
2018.03.30 20:35:39,27.72,2.64,-29.46,-0.00479,0.4597,9.54119,-0.02607,0.03103,-0.08643,275.12225,-3.21043,-2.32533,-0.02607
2018.03.30 20:35:39,28.56,3.12,-29.22,-0.18675,1.02236,9.64174,-0.00774,0.11411,0.0052,275.65198,-3.20645,-2.33741,1018.42627
2018.03.30 20:35:39,28.08,2.82,-29.4,-0.03831,1.25699,10.65692,0.01425,-0.01234,0.12126,275.44208,-4.27233,-1.96263,1018.42847
2018.03.30 20:35:39,28.26,2.64,-28.92,-0.41182,0.11014,12.15813,-0.29362,-0.03678,0.0388,275.22934,-4.43966,-1.88735,-0.29362
2018.03.30 20:35:39,27.72,2.76,-30.24,-0.73983,-0.26576,10.21158,0.23722,0.03897,0.18724,275.53455,-4.13592,-1.20164,0.23722
2018.03.30 20:35:39,27.36,3.18,-29.7,-1.14686,-0.52913,10.60903,-0.08226,0.03103,0.00886,275.56219,-3.58529,-1.37547,-0.08226
2018.03.30 20:35:39,26.76,2.46,-29.4,-0.84039,0.64885,8.69601,0.08206,0.16664,0.16158,275.25391,-1.7846,-3.62114,0.08206
2018.03.30 20:35:40,27.9,2.16,-30.72,-0.57702,0.80687,9.71118,-0.03095,-0.03617,0.12493,274.74445,-2.05183,-3.75452,-0.03095
2018.03.30 20:35:40,27.54,2.16,-30,-0.62012,1.18277,9.90751,0.04235,0.07196,-0.01007,274.92163,-2.91041,-3.90926,0.04235
2018.03.30 20:35:40,27.12,2.34,-29.94,-0.55547,1.23066,10.46537,0.01425,-0.11191,-0.02657,275.69891,-4.04622,-3.79841,0.01425
2018.03.30 20:35:40,27.12,3.48,-31.26,-0.59139,-0.33999,11.85645,-0.40297,0.00171,-0.17989,277.0195,-2.67713,-3.3174,-0.40297
2018.03.30 20:35:40,26.34,4.62,-29.7,0.33759,-0.5028,9.93863,0.16941,-0.06243,-0.06261,278.31818,-2.74833,-3.00782,1018.42407
2018.03.30 20:35:40,26.22,4.86,-31.2,-0.70631,-0.16042,9.33767,0.00081,0.09212,-0.17378,280.11285,-2.27326,-3.12706,1018.41772
2018.03.30 20:35:40,27.78,5.52,-30,-0.17239,0.46688,9.22993,0.10588,-0.04838,0.07545,280.40189,-2.54409,-3.23239,1018.41772
2018.03.30 20:35:40,26.4,4.56,-31.14,-0.249,0.66561,9.36401,0.05518,0.04447,-0.04367,281.01199,-2.89837,-3.03685,1018.41699
2018.03.30 20:35:40,27,5.4,-30.96,-0.48125,1.07503,9.92188,0.01303,0.08601,-0.08093,281.98151,-3.4214,-3.22198,1018.41675
2018.03.30 20:35:41,27.18,7.08,-30.66,-0.57941,0.0407,11.18366,-0.27896,-0.19988,-0.06688,282.98547,-3.28968,-2.55147,-0.27896
2018.03.30 20:35:41,25.98,6.06,-32.16,-1.00799,0.15802,8.48052,0.05518,0.02126,0.20984,282.64282,-3.4017,-2.54991,0.05518
2018.03.30 20:35:41,25.86,5.52,-32.1,-0.99123,-0.38069,11.21239,-0.12869,-0.11436,0.10538,282.08112,-2.72574,-2.51466,1018.41821
2018.03.30 20:35:41,26.04,5.82,-32.4,-0.83321,0.7542,8.65051,0.06129,0.11289,0.13898,281.77051,-2.9542,-3.36641,0.06129
2018.03.30 20:35:41,26.88,4.5,-32.22,-0.59857,0.86912,10.06314,-0.03767,-0.00623,0.0107,281.66138,-3.12753,-3.65506,-0.03767
2018.03.30 20:35:41,26.52,5.16,-32.34,-0.69434,1.04151,10.41988,0.15536,-0.0154,-0.0003,282.23108,-4.12261,-4.00835,0.15536
2018.03.30 20:35:41,26.34,4.92,-32.16,-0.14366,0.28971,11.29858,-0.43534,0.01209,-0.37232,283.67719,-4.6115,-3.17035,-0.43534
2018.03.30 20:35:41,26.1,6.66,-33.18,-0.21788,0.22027,9.63456,0.03441,-0.05816,-0.06505,284.85468,-4.01633,-2.97108,0.03441
2018.03.30 20:35:41,25.5,6.12,-31.98,-1.07982,-0.21788,9.57231,0.03991,0.01331,-0.31856,286.63892,-4.29104,-2.77622,1018.40503
2018.03.30 20:35:42,24.78,5.94,-31.44,-0.35914,1.03912,8.81093,0.0564,0.07562,0.06445,287.03326,-4.20494,-3.47862,1018.41748
2018.03.30 20:35:42,25.14,6.24,-32.1,-0.20112,1.02954,9.7016,-0.02729,0.02553,-0.01007,287.20874,-4.51204,-3.3833,1018.40894
2018.03.30 20:35:42,25.86,6.24,-33.12,-0.59617,1.37431,10.14933,0.06251,0.03164,-0.02351,287.67029,-5.29191,-3.21068,0.06251
2018.03.30 20:35:42,25.92,5.28,-32.88,-0.32802,1.26657,10.60185,0.08695,0.10128,0.11516,287.37949,-6.32317,-2.97717,0.08695
2018.03.30 20:35:42,26.04,6.36,-32.64,-0.79969,-0.668,11.07831,-0.22704,-0.00562,-0.08215,287.67828,-4.93406,-2.95427,1018.40698
2018.03.30 20:35:42,26.7,5.7,-32.76,-0.99602,0.50519,8.15969,0.22317,-0.02395,0.25138,287.02502,-4.11077,-3.50369,0.22317
2018.03.30 20:35:42,26.34,5.4,-32.76,-0.89306,0.18196,10.71917,-0.09509,-0.03617,0.07911,286.41925,-3.36713,-3.15814,-0.09509
2018.03.30 20:35:42,25.2,4.74,-31.86,-0.52913,1.11334,8.93064,-0.00102,0.02675,-0.02351,286.15704,-3.73069,-3.50487,-0.00102
2018.03.30 20:35:42,26.1,5.28,-33.18,-1.01038,0.99123,9.66329,-0.05844,-0.0099,-0.16645,287.03424,-4.13967,-3.81549,-0.05844
2018.03.30 20:35:43,25.86,6.06,-32.76,-0.90025,1.03193,10.29059,0.03502,-0.07404,-0.07971,287.98022,-4.85902,-4.24425,0.03502
2018.03.30 20:35:43,25.56,6.24,-33.48,0.35196,0.71828,11.2507,-0.02362,-0.07465,0.06995,288.14288,-5.19787,-3.33096,-0.02362
2018.03.30 20:35:43,25.62,7.14,-33.66,-0.93616,-0.41182,10.60185,0.09611,-0.22431,-0.08887,289.44485,-3.39786,-3.19844,0.09611
2018.03.30 20:35:43,24.54,6.72,-33.84,-0.14366,-0.02873,9.84526,0.00631,0.0518,-0.24587,290.01727,-3.48194,-2.72263,0.00631
2018.03.30 20:35:43,25.14,7.5,-34.98,-0.61293,0.47646,9.34485,0.00326,0.12755,-0.10109,291.09296,-3.01571,-3.44437,1018.40283
2018.03.30 20:35:43,25.32,6.66,-33.42,-0.27055,0.82602,9.33049,-0.01812,0.08112,-0.0339,291.03394,-3.19006,-3.68159,1018.40356
2018.03.30 20:35:43,26.1,6.18,-33.66,-0.55068,1.27854,10.01525,-0.01935,0.10983,-0.02229,291.16797,-3.72261,-3.72517,1018.40576
2018.03.30 20:35:43,26.1,6.9,-33.66,-0.6273,1.0032,10.85804,0.15109,-0.01601,0.13165,290.93631,-5.08738,-3.80629,0.15109
2018.03.30 20:35:43,26.58,5.4,-33.42,-0.13647,0.10295,11.7918,0.04052,0.09517,0.16036,290.13647,-5.36182,-3.70684,1018.4021
2018.03.30 20:35:43,26.64,6.3,-34.02,-1.05109,0.50519,7.62337,0.26349,0.01515,0.10538,290.27988,-4.9402,-3.61125,1018.40308
2018.03.30 20:35:44,27.96,4.56,-34.14,-0.7949,-0.23224,10.16609,-0.15129,-0.16017,0.02963,289.3551,-4.80192,-3.45022,-0.15129
2018.03.30 20:35:44,27.24,5.4,-33.96,-0.77575,0.87391,8.32968,0.08267,0.07562,0.10233,288.83325,-4.09867,-3.7944,0.08267
2018.03.30 20:35:44,25.86,4.38,-35.04,-0.73983,0.90982,9.68963,-0.06577,-0.04289,0.00642,288.48285,-3.96922,-4.01719,1018.42065
2018.03.30 20:35:44,27.12,4.62,-34.8,-1.20193,1.35995,9.4526,-0.00652,0.03653,-0.04245,288.62723,-4.05342,-4.67294,-0.00652
2018.03.30 20:35:44,25.62,5.34,-33,-0.94574,1.07264,11.10225,-0.08959,-0.15712,0.06873,288.2287,-4.78885,-4.81669,-0.08959
2018.03.30 20:35:44,26.58,5.28,-34.02,-0.57223,-0.47167,12.51966,-0.37548,-0.29151,-0.20311,288.31818,-3.4304,-4.1595,-0.37548
2018.03.30 20:35:44,25.86,5.76,-36.42,0.38548,-0.01915,9.48851,0.08267,0.00721,-0.07238,288.54324,-3.055,-3.33547,0.08267
2018.03.30 20:35:44,26.52,5.16,-36.3,-1.06545,-0.16281,9.37359,-0.02057,0.18252,-0.20738,289.31494,-2.71852,-3.78583,-0.02057
2018.03.30 20:35:44,27.12,5.16,-35.04,-0.09577,0.87391,9.08867,0.11993,0.1532,0.16097,288.51306,-2.72794,-4.41795,1018.41382
2018.03.30 20:35:45,27.42,5.04,-34.98,-0.40224,1.08221,9.60822,0.03441,0.03408,-0.03328,288.10962,-3.61151,-3.87748,1018.41943
2018.03.30 20:35:45,27.54,5.16,-35.22,-0.43576,1.23545,9.97694,0.14925,-0.02578,0.0278,288.09402,-4.77591,-3.46287,1018.42676
2018.03.30 20:35:45,26.88,4.74,-35.4,-0.26098,1.11813,10.34806,0.12115,-0.01173,0.08583,287.6553,-5.80396,-3.19374,1018.41846
2018.03.30 20:35:45,27.6,5.64,-35.22,-1.5898,-0.42139,11.27225,-0.21727,-0.00929,-0.2984,288.60046,-4.21971,-3.13083,1018.42163
2018.03.30 20:35:45,26.1,5.88,-34.32,-0.74941,0.69195,7.6521,0.21584,-0.05266,0.28375,287.92566,-4.70511,-3.48189,1018.4231
2018.03.30 20:35:45,26.88,5.28,-35.46,-1.07742,0.15084,10.77663,-0.19039,-0.07893,0.13287,287.22754,-3.1529,-3.43773,-0.19039
2018.03.30 20:35:45,27.78,4.92,-35.34,-0.4597,1.10137,9.13176,-0.01202,-0.01234,0.08156,286.17175,-3.31981,-3.48073,-0.01202
2018.03.30 20:35:45,27.54,4.92,-35.16,-0.98644,0.838,10.40552,-0.19589,0.254,-0.04428,286.12311,-3.46014,-4.05887,1018.4187
2018.03.30 20:35:45,28.26,5.04,-34.2,-0.51237,0.7925,10.65692,0.26532,-0.09786,-0.00519,286.5015,-5.03066,-3.98987,0.26532
2018.03.30 20:35:46,27.72,5.04,-34.74,-1.49403,-0.72547,11.29619,-0.39075,-0.00684,-0.39431,287.9903,-4.3225,-4.02654,-0.39075
2018.03.30 20:35:46,27.96,6.24,-34.02,-0.1676,0.30886,9.9123,0.079,-0.0887,-0.02657,288.62021,-3.58932,-4.27842,1018.41382
2018.03.30 20:35:46,27.36,6.3,-33.78,-0.90025,0.52195,9.59386,0.00875,0.09945,-0.09132,289.49158,-2.8898,-4.53898,1018.40967
2018.03.30 20:35:46,28.44,5.46,-33.96,-0.18196,1.07024,8.96177,0.14253,0.08234,0.03635,289.15945,-3.90735,-4.68559,1018.40601
2018.03.30 20:35:46,28.56,6.9,-33,-0.97926,1.0032,9.5771,-0.08043,0.11166,-0.03695,289.58588,-4.69107,-4.25698,-0.08043
2018.03.30 20:35:46,28.68,6.66,-32.7,-0.50759,1.18756,10.71677,0.02036,0.03775,0.16952,289.0289,-4.94346,-4.53762,1018.40503
2018.03.30 20:35:46,28.92,6.36,-33.24,-0.18196,1.22587,10.3696,0.05335,-0.03189,0.21106,287.75919,-5.63458,-3.95319,1018.40503
2018.03.30 20:35:46,27.12,6.9,-32.4,-1.04151,0.08859,9.21556,0.16269,-0.18827,0.02108,288.4281,-4.70774,-3.02739,0.16269
2018.03.30 20:35:46,29.22,6.36,-32.88,-1.15404,-0.32562,10.26665,-0.18428,-0.05999,-0.03756,288.24118,-4.53825,-3.28479,-0.18428
2018.03.30 20:35:46,28.8,7.38,-33.54,-0.89306,0.60096,9.44302,0.01181,-0.01295,0.0614,288.03952,-3.11484,-4.07491,1018.39795
2018.03.30 20:35:47,28.98,6,-32.4,-0.97208,1.07264,9.59386,0.08633,0.00537,0.04674,287.74466,-3.75965,-4.5508,0.08633
2018.03.30 20:35:47,28.32,6.24,-32.7,-1.21869,1.48445,9.97455,-0.01385,0.03653,-0.10231,288.16824,-4.49472,-4.978,-0.01385
2018.03.30 20:35:47,28.98,6.18,-32.28,-1.13249,1.3815,10.4534,-0.04439,-0.07648,-0.01252,288.61496,-6.25711,-5.64052,-0.04439
2018.03.30 20:35:47,28.38,6.78,-31.86,-0.45252,-0.10535,11.83251,-0.51354,-0.18522,-0.15485,288.93225,-5.44861,-4.7826,-0.51354
2018.03.30 20:35:47,28.14,7.86,-33.9,0.34238,0.27295,9.0336,0.18896,-0.11924,0.02108,289.00714,-4.44269,-3.67717,1018.40308
2018.03.30 20:35:47,27,7.26,-32.88,-0.48843,0.00958,9.52921,0.04052,0.03714,-0.15912,289.96362,-4.39338,-3.13541,1018.4021
2018.03.30 20:35:47,28.08,7.38,-32.64,-0.21788,0.70392,9.17486,0.1743,0.04569,0.03086,290.29593,-3.90722,-3.52471,1018.40894
2018.03.30 20:35:47,27.72,6.36,-31.38,-0.23224,1.18038,8.85882,0.07106,0.02431,-0.0174,290.17581,-4.54501,-3.14239,1018.40845
2018.03.30 20:35:47,28.5,6.06,-31.14,-0.37111,1.49403,9.87399,0.05213,0.06341,0.04063,290.10681,-5.0292,-2.72836,0.05213
2018.03.30 20:35:48,28.02,6.6,-31.44,-0.34717,1.66642,10.7072,0.01731,-0.02822,0.20129,289.49008,-6.24217,-2.30545,0.01731
2018.03.30 20:35:48,27.18,5.76,-31.92,-0.79011,-0.38069,12.83571,-0.37853,-0.0777,0.06079,288.83929,-5.39687,-1.97943,1018.39893
2018.03.30 20:35:48,27.54,6,-31.32,-0.71349,0.74941,8.06152,0.44125,-0.1559,0.2697,287.96942,-6.47116,-1.71749,0.44125
2018.03.30 20:35:48,26.58,4.86,-30.3,-0.51237,0.2921,10.36003,-0.06272,0.00843,0.11516,287.11279,-6.00298,-1.70938,-0.06272
2018.03.30 20:35:48,26.16,4.56,-29.4,-0.52195,1.05348,8.81333,-0.03462,0.02614,0.11088,286.28918,-5.8512,-2.45936,-0.03462
2018.03.30 20:35:48,26.94,4.2,-29.04,-0.63448,1.36234,9.83808,-0.01018,-0.027,-0.07299,286.16214,-5.37553,-2.77972,-0.01018
2018.03.30 20:35:48,27.12,4.5,-28.92,-0.76617,1.38629,10.21158,-0.03401,0.07074,-0.06016,286.48508,-6.08542,-3.06679,-0.03401
2018.03.30 20:35:48,27.18,4.8,-29.64,0.24182,0.19872,11.55477,-0.07249,-0.07832,0.01742,286.52618,-6.12624,-2.53731,1018.41797
2018.03.30 20:35:48,26.4,6.3,-28.86,-0.92658,-0.23703,10.26186,-0.10242,-0.14368,-0.03512,287.35501,-3.79799,-3.10772,1018.40698
2018.03.30 20:35:49,26.28,5.94,-28.8,0.32802,-0.18915,10.53241,0.079,-0.06732,-0.27152,287.67712,-3.75449,-2.11634,1018.40942
2018.03.30 20:35:49,26.34,6.06,-29.1,-0.31126,0.56505,9.1581,0.14986,0.08723,-0.14141,289.19601,-4.13129,-2.18552,0.14986
2018.03.30 20:35:49,25.98,6.72,-29.76,-0.12929,0.8787,9.39753,0.20545,-0.15284,-0.1408,290.06738,-5.01965,-2.09347,1018.41675
2018.03.30 20:35:49,26.04,6.66,-29.16,-0.68237,1.53712,9.83329,0.0228,0.10556,-0.04611,290.64362,-5.3916,-2.53286,1018.40967
2018.03.30 20:35:49,25.8,5.52,-29.22,0.18436,1.61135,10.73353,0.11749,0.04813,0.17624,289.7713,-6.97144,-2.50091,0.11749
2018.03.30 20:35:49,26.64,6.24,-30,-0.28252,0.87391,12.27545,-0.23681,0.05852,-0.14568,289.84271,-6.81132,-2.17373,-0.23681
2018.03.30 20:35:49,25.44,6.9,-29.52,-0.97447,0.39027,8.20757,0.07656,-0.07709,-0.01679,290.00577,-5.64022,-2.50085,1018.40723
2018.03.30 20:35:49,26.94,6.66,-29.58,-1.13489,-0.03831,9.94103,-0.15251,-0.10703,0.09255,289.35904,-4.38236,-2.86222,-0.15251
2018.03.30 20:35:49,26.58,6.48,-29.94,-0.5028,1.05109,8.49489,-0.04317,0.03225,0.24832,287.92682,-3.20547,-3.37613,-0.04317
2018.03.30 20:35:50,26.34,7.26,-30.12,-0.35435,1.14925,9.83568,-0.13908,0.08662,0.10721,287.09833,-2.6645,-3.34513,-0.13908
2018.03.30 20:35:50,26.64,6.72,-30.42,-0.1676,1.23784,10.12299,-0.02973,-0.00196,-0.00519,287.20062,-3.56426,-3.04223,-0.02973
2018.03.30 20:35:50,26.34,6.06,-29.94,0.0407,1.27615,10.8748,0.19201,-0.07832,-0.04489,287.78595,-5.46711,-2.13287,0.19201
2018.03.30 20:35:50,26.16,7.68,-31.14,-0.67279,-0.34478,11.32731,-0.17023,-0.26707,-0.51587,290.43436,-4.68654,-1.41282,-0.17023
2018.03.30 20:35:50,26.1,8.76,-31.44,0.54111,0.22267,9.35443,0.14986,-0.00684,-0.35399,291.96747,-5.16613,-0.84412,0.14986
2018.03.30 20:35:50,26.34,9,-32.16,-1.04869,0.38787,9.35922,0.06312,0.0573,-0.18234,294.49435,-4.8815,-1.22573,1018.40186
2018.03.30 20:35:50,24.72,8.7,-31.5,-0.5028,1.087,8.95459,0.06862,0.07318,-0.01557,294.99963,-5.13192,-1.93639,1018.4021
2018.03.30 20:35:50,26.46,9.6,-30.66,-0.41182,1.52276,9.76625,-0.10303,0.07379,0.07728,294.86676,-5.11254,-2.6667,1018.40796
2018.03.30 20:35:50,25.98,9.12,-31.2,-0.04549,1.63768,10.43425,0.08328,-0.01723,0.27276,293.59457,-6.67693,-2.52518,1018.40137
2018.03.30 20:35:50,25.26,8.7,-30.78,0.16999,1.03672,11.83969,-0.29485,-0.11497,0.07117,292.78708,-6.7231,-2.17996,-0.29485
2018.03.30 20:35:51,26.1,9.12,-31.5,-0.4166,-0.30168,10.60185,0.40398,-0.00745,0.37355,292.65067,-5.82159,-0.94171,0.40398
2018.03.30 20:35:51,27,7.08,-32.64,-0.55308,0.36872,9.51485,0.02952,-0.03678,0.25382,291.10867,-5.93143,-0.58633,1018.41431
2018.03.30 20:35:51,26.58,7.74,-32.16,-0.56265,0.88349,9.01205,0.07839,0.06768,0.08644,290.70276,-5.30707,-0.86517,0.07839
2018.03.30 20:35:51,27.24,7.38,-30.54,-0.63927,1.20671,9.39035,-0.00285,0.10067,0.07973,290.47629,-5.36769,-2.19304,-0.00285
2018.03.30 20:35:51,26.58,7.38,-31.32,-0.48604,1.4198,10.19243,0.06556,0.12022,0.05346,290.3501,-5.62964,-3.06533,0.06556
2018.03.30 20:35:51,27.84,6.54,-30.54,-0.35675,1.59938,10.33608,0.25249,0.06768,0.10721,290.03302,-7.55258,-3.39642,0.25249
2018.03.30 20:35:51,28.32,5.7,-31.38,0.21548,0.668,10.61861,0.07412,-0.16811,-0.20799,290.54327,-8.60837,-2.49306,0.07412
2018.03.30 20:35:51,28.08,6.9,-32.04,0.03352,0.68955,9.70639,0.08084,-0.038,-0.10659,292.34985,-6.66683,-1.97673,0.08084
2018.03.30 20:35:51,27.84,7.44,-32.34,-0.18675,0.26816,9.49091,-0.02729,0.02675,-0.31001,293.51443,-7.2342,-1.7751,-0.02729
2018.03.30 20:35:52,28.08,7.62,-31.98,-0.40463,1.0894,9.08388,0.05274,0.07196,0.00703,294.32007,-6.70543,-2.17739,-0.01507
2018.03.30 20:35:52,28.5,8.22,-31.92,-0.20591,1.70712,9.08627,-0.06577,0.12144,-0.05467,294.35181,-6.94231,-2.44494,1018.41113
2018.03.30 20:35:52,29.34,8.52,-30.48,-0.34478,2.24583,9.76625,-0.11586,0.02064,0.03391,294.39319,-7.77836,-2.24951,1018.40283
2018.03.30 20:35:52,28.56,8.52,-31.44,0.20591,1.5036,11.62181,0.18957,-0.42101,0.1402,293.92371,-9.42007,-0.68464,1018.40259
2018.03.30 20:35:52,29.1,7.5,-30.66,0.27055,0.09577,11.37281,-0.5343,-0.09847,-0.08765,293.20139,-8.89603,-0.37556,-0.5343
2018.03.30 20:35:52,30.12,7.56,-30.9,-0.35675,0.80926,7.85801,0.11138,0.24728,0.1738,292.54733,-7.9816,-1.22013,1018.40649
2018.03.30 20:35:52,30.24,8.16,-31.14,-0.77335,-0.2921,11.14295,-0.30034,-0.03983,-0.01679,292.00723,-6.59771,-1.0251,1018.40649
2018.03.30 20:35:52,30.96,6.66,-31.68,-0.35435,1.16362,8.54277,0.08939,0.08906,0.17319,290.91443,-6.00567,-1.38932,0.08939
2018.03.30 20:35:52,31.44,6.84,-31.62,-0.28731,1.23784,8.64573,-0.05233,-0.11436,-0.00641,290.23364,-6.03537,-1.29671,-0.05233
2018.03.30 20:35:52,31.5,6.9,-31.08,-0.249,1.39826,10.49171,-0.06944,-0.0606,-0.01679,290.14465,-6.08709,-1.08662,1018.40381
2018.03.30 20:35:53,31.2,5.94,-31.8,0.20112,1.81486,10.76705,0.14192,-0.11985,0.05346,289.65625,-7.2562,-0.64468,0.14192
2018.03.30 20:35:53,31.5,6.54,-32.16,-0.01676,-0.53632,12.08869,-0.461,-0.10275,-0.25442,290.14536,-6.59215,-0.15366,-0.461
2018.03.30 20:35:53,31.74,7.5,-33.06,0.81405,0.60815,9.10782,0.11443,-0.11863,0.12676,289.95706,-5.58496,0.01469,0.11443
2018.03.30 20:35:53,31.5,7.44,-32.94,-0.50998,0.35675,9.46936,-0.00163,0.0854,-0.15424,290.66953,-5.24475,-0.09226,-0.00163
2018.03.30 20:35:53,31.92,7.5,-33.24,0.0431,1.02475,9.23951,0.07595,0.06829,0.0223,290.45981,-5.11343,-0.84025,0.07595
2018.03.30 20:35:53,31.56,6,-33.42,0.56265,1.51558,9.25866,0.05885,0.04691,0.05712,289.79645,-5.95061,-0.68225,0.05885
2018.03.30 20:35:53,32.82,6.48,-32.34,0.02873,1.83162,9.68245,0.07595,0.01209,-0.07421,289.91556,-7.15922,-0.39422,1018.40747
2018.03.30 20:35:53,32.94,6.84,-32.52,-0.26576,1.72867,10.09666,0.06862,0.12327,0.02597,290.15222,-8.25342,-0.53473,1018.39746
2018.03.30 20:35:53,32.58,6.42,-33,-0.11732,-0.72547,13.06795,-0.38892,-0.24325,0.00398,290.10294,-6.74339,0.11198,1018.39526
2018.03.30 20:35:54,33.66,7.14,-33.84,-0.57463,0.36872,6.65608,0.22928,0.08356,0.15914,289.52786,-6.33534,-0.39796,1018.39111
2018.03.30 20:35:54,33.42,6.9,-33.78,-0.68955,0.2083,10.54918,-0.15435,-0.00012,0.05529,288.9834,-4.87399,-0.29703,1018.39209
2018.03.30 20:35:54,33.96,5.88,-34.08,-0.25379,1.20671,8.42545,0.07351,0.02798,0.13409,287.82623,-4.60831,-1.21603,0.07351
2018.03.30 20:35:54,34.5,6.42,-33.78,-0.51477,1.31685,10.18764,0.04785,0.15259,0.00764,287.46619,-4.90997,-1.66049,0.04785
2018.03.30 20:35:54,34.26,5.46,-34.32,-0.44773,1.45572,10.13496,-0.00224,-0.14185,-0.00885,287.33423,-6.31001,-2.22612,-0.00224
2018.03.30 20:35:54,33.96,5.7,-34.86,0.10056,0.32083,11.7942,-0.03156,-0.22614,0.02108,287.30048,-6.48331,-1.14968,-0.03156
2018.03.30 20:35:54,33.84,7.32,-36.12,-0.38787,-0.23224,11.65772,-0.10059,-0.10397,-0.00457,287.79996,-4.68191,-1.01627,-0.10059
2018.03.30 20:35:54,34.5,6.96,-36.24,0.3783,0.02155,9.70639,0.10099,0.07257,-0.13835,287.88812,-4.92145,-0.9843,0.10099
2018.03.30 20:35:54,34.56,7.5,-36.36,-0.07901,0.81405,9.04318,0.07656,0.08601,-0.06444,288.38892,-3.58905,-0.67795,0.07656
2018.03.30 20:35:55,34.44,7.32,-36.3,0.1245,1.26657,8.98571,0.04724,0.06341,-0.06566,288.57913,-4.175,-0.81276,0.04724
2018.03.30 20:35:55,35.46,7.62,-36.06,0.05267,1.48445,9.68484,-0.00224,-0.02334,-0.1072,288.14407,-5.91618,-0.4968,1018.39404
2018.03.30 20:35:55,34.98,8.1,-36.18,-0.16042,1.34798,10.86761,0.03075,-0.02273,0.02414,288.30606,-6.71225,-0.32283,1018.39355
2018.03.30 20:35:55,34.8,7.38,-35.64,-0.1652,0.51956,12.11742,-0.47872,-0.01356,-0.11148,287.89124,-6.43136,-0.72105,1018.39917
2018.03.30 20:35:55,36,7.74,-36.9,-0.20112,0.67997,7.59225,0.21034,-0.01479,0.25993,287.53424,-6.44898,-1.01294,0.21034
2018.03.30 20:35:55,36.18,7.08,-36.66,-0.7518,-0.1652,11.13338,-0.14702,-0.10397,0.01803,287.04626,-5.52013,-0.82503,1018.4043
2018.03.30 20:35:55,36.78,7.26,-37.14,-0.52674,1.03912,8.93543,0.05946,0.04508,0.12126,286.4288,-5.18916,-1.71255,1018.4082
2018.03.30 20:35:55,36.06,6.18,-37.14,-0.47407,1.21629,9.98173,-0.0841,-0.04533,0.05285,285.93784,-5.11826,-1.89921,-0.0841
2018.03.30 20:35:55,36.18,6.72,-36.84,-0.17718,1.24263,10.20919,0.079,-0.02456,-0.00396,285.87393,-5.62387,-2.20621,0.079
2018.03.30 20:35:55,36.66,4.86,-36.9,-0.09577,1.36953,9.69681,0.09489,-0.0887,-0.03451,285.92908,-6.37396,-1.48607,0.09489
2018.03.30 20:35:56,36.54,6.42,-38.34,-0.26576,-0.32323,12.06475,-0.49093,-0.11191,-0.16584,286.40527,-4.41782,-0.58536,-0.49093
2018.03.30 20:35:56,35.16,5.88,-38.82,0.34238,-0.26337,9.9961,0.06862,-0.11375,-0.09376,286.54156,-4.48819,0.0232,0.06862
2018.03.30 20:35:56,35.34,7.68,-37.74,-0.62251,0.42139,9.18923,-0.00407,0.12938,-0.13102,287.88812,-3.64653,-0.61546,-0.00407
2018.03.30 20:35:56,35.28,7.14,-37.98,0.06225,1.10137,9.2826,0.079,0.0799,0.02291,287.69189,-3.99177,-1.23368,0.079
2018.03.30 20:35:56,36.42,7.02,-38.76,-0.1652,1.15165,9.47415,0.03441,0.11716,-0.04,287.68509,-4.62256,-1.49589,0.03441
2018.03.30 20:35:56,36.12,6.06,-38.52,0.0838,1.47248,10.49171,0.02464,0.02675,0.11027,287.04193,-5.74377,-1.1831,0.02464
2018.03.30 20:35:56,35.76,5.58,-38.94,0.10056,0.73504,11.90433,-0.09754,0.02614,0.04124,286.33414,-6.71005,-0.37543,1018.40479
2018.03.30 20:35:56,35.04,5.94,-39.72,-0.60575,-0.16042,11.12859,0.39177,-0.14673,0.08767,286.39374,-5.70804,0.75171,1018.41382
2018.03.30 20:35:56,35.1,3.12,-40.62,-0.60575,0.61054,8.28658,-0.0615,-0.0942,0.10111,285.12482,-7.00639,0.41165,-0.0615
2018.03.30 20:35:57,34.08,3.48,-40.56,-0.44055,0.49801,10.53481,-0.23926,-0.0551,-0.03939,284.91122,-5.62058,0.37653,1018.41577
2018.03.30 20:35:57,34.92,3.18,-39.84,-0.29689,1.20911,9.09585,0.09794,0.07074,0.04491,284.4567,-5.79638,-0.75322,1018.40942
2018.03.30 20:35:57,34.92,3.78,-40.68,-0.14845,1.52515,9.88596,-0.03401,0.03042,-0.06077,284.41064,-6.04689,-1.06428,-0.03401
2018.03.30 20:35:57,34.92,3.36,-40.74,-0.68955,1.29051,10.49411,-0.01079,-0.01051,-0.00519,284.67349,-6.36417,-1.93817,-0.01079
2018.03.30 20:35:57,34.98,2.34,-40.2,0.19633,1.09658,10.69044,-0.10242,-0.12596,-0.03756,284.10034,-7.00723,-1.93456,-0.10242
2018.03.30 20:35:57,35.58,3.9,-40.32,-0.5004,0.30168,10.35284,-0.25758,0.14037,-0.0791,284.36023,-5.17816,-1.64427,-0.25758
2018.03.30 20:35:57,35.28,4.56,-41.34,0.03113,-0.06943,10.35284,-0.03889,0.05913,-0.19516,284.66034,-3.67946,-1.23585,-0.03889
2018.03.30 20:35:57,34.32,4.56,-39.72,0.03113,1.05588,9.20838,0.10649,0.01148,-0.01862,284.84448,-3.33032,-1.2261,1018.40991
2018.03.30 20:35:57,34.02,3.84,-40.44,-0.19394,1.09418,9.26824,0.01364,-0.00929,-0.16768,285.09061,-4.76626,-0.79456,1018.41284
2018.03.30 20:35:58,34.62,4.86,-40.68,-0.71828,1.53234,9.89554,0.01914,0.03897,-0.03817,285.7442,-5.47118,-1.04171,1018.40991
2018.03.30 20:35:58,33.48,4.56,-39.06,-0.05267,1.41023,10.34806,0.06984,0.0011,0.12493,285.11923,-6.88806,-1.48879,1018.40747
2018.03.30 20:35:58,35.28,3.54,-40.5,-0.03591,0.05267,13.44864,-0.36693,0.00049,0.10599,284.22247,-6.26736,-1.36282,1018.40918
2018.03.30 20:35:58,35.16,4.86,-40.56,-0.61533,0.13169,9.76385,0.27326,0.19352,0.09744,284.04269,-5.88557,-1.87591,1018.41528
2018.03.30 20:35:58,34.92,3.78,-40.5,-0.53871,-0.21309,9.99131,-0.18061,-0.13757,0.0669,283.41901,-5.85025,-1.79539,-0.18061
2018.03.30 20:35:58,35.1,3.72,-40.02,-0.32562,1.11813,8.42066,0.03136,0.02798,0.1909,282.4425,-4.99497,-1.97582,0.03136
2018.03.30 20:35:58,35.22,2.88,-39.36,-0.33041,1.17319,9.64174,-0.08898,-0.07037,0.10294,281.60742,-4.84088,-1.75149,1018.40967
2018.03.30 20:35:58,34.92,3.18,-39.36,-0.45012,1.43896,9.83089,0.01181,-0.00562,-0.03084,281.57938,-5.09466,-2.10408,0.01181
2018.03.30 20:35:58,35.16,2.88,-40.44,-0.48843,1.55149,10.80057,0.1071,-0.24264,0.05407,281.63834,-6.20619,-1.76091,0.1071
2018.03.30 20:35:58,34.98,3.42,-39.42,-0.63927,-0.05507,11.51886,-0.13785,-0.17178,-0.08399,282.18042,-5.37571,-1.18787,-0.13785
2018.03.30 20:35:59,34.02,4.02,-40.56,0.69434,-0.09098,9.2826,0.17857,-0.14795,0.06262,282.32111,-5.35153,-0.49573,0.17857
2018.03.30 20:35:59,33.66,4.74,-39.18,-0.2083,0.25619,9.78301,0.04907,0.07623,-0.14385,283.43307,-4.77861,-0.8444,0.04907
2018.03.30 20:35:59,35.4,3.78,-39.78,0.11732,0.84518,8.84924,0.18896,0.03286,0.03208,283.36694,-5.27082,-1.25077,0.18896
2018.03.30 20:35:59,34.44,3.9,-38.52,-0.14845,1.13249,9.16768,-0.08593,0.04997,-0.07055,283.52682,-5.46523,-1.19727,-0.08593
2018.03.30 20:35:59,34.8,3.9,-39.18,-0.07901,1.76219,9.71836,-0.02423,0.08662,0.03941,283.41113,-5.91733,-1.39483,-0.02423
2018.03.30 20:35:59,36.3,3.9,-38.34,-0.09098,1.64008,10.12539,0.00998,0.02003,0.05346,283.06039,-6.98065,-1.09219,1018.41992
2018.03.30 20:35:59,35.4,3.84,-38.16,0.14366,0.56026,11.71758,-0.18122,-0.16995,-0.19455,283.3187,-6.44574,-0.64902,-0.18122
2018.03.30 20:35:59,35.88,4.86,-37.56,-0.83081,0.08141,8.86839,0.10649,-0.02456,0.10294,283.69434,-5.99703,-1.098,1018.41943
2018.03.30 20:35:59,35.76,5.04,-37.68,-0.71349,0.1269,10.36721,0.12115,0.05058,0.11882,283.35242,-4.51252,-1.19584,0.12115
2018.03.30 20:36:00,35.28,3.9,-37.98,-0.43815,1.17319,8.32489,0.12238,0.06035,0.13837,282.45865,-4.19843,-2.39384,1018.41577
2018.03.30 20:36:00,35.88,3.9,-37.26,-0.55308,1.31206,9.55555,-0.04073,0.01698,0.01314,282.20923,-4.47505,-2.59893,1018.42554
2018.03.30 20:36:00,35.58,4.02,-36.84,-0.53632,1.47727,10.27862,0.08695,-0.03494,0.02902,282.22635,-5.45432,-2.95154,0.08695
2018.03.30 20:36:00,35.46,3.3,-36.96,-0.35435,1.77895,9.23951,0.25249,-0.2292,0.1909,281.68442,-7.37001,-1.98493,0.25249
2018.03.30 20:36:00,34.62,3.18,-36.06,-0.25379,0.43336,10.41031,-0.19283,-0.01051,-0.01618,281.59494,-6.82422,-1.5807,1018.41089
2018.03.30 20:36:00,35.28,4.08,-36.66,0.89546,0.22506,9.77582,0.10588,-0.02639,0.00276,281.71106,-5.89259,-0.276,0.10588
2018.03.30 20:36:00,34.38,4.98,-36.3,-0.37111,0.55068,9.57471,-0.0334,0.0799,-0.27824,283.32401,-4.84726,0.26424,-0.0334
2018.03.30 20:36:00,34.5,4.86,-37.26,0.00479,1.2115,9.08148,0.1236,0.00965,-0.01618,283.9473,-5.24347,-0.02852,0.1236
2018.03.30 20:36:00,34.44,4.92,-36.6,-0.22027,1.34319,9.25387,0.02158,0.01331,-0.07482,284.26605,-5.74163,-0.21333,0.02158
2018.03.30 20:36:00,34.56,5.52,-36.6,-0.17239,1.95612,9.73752,0.06007,0.08356,0.1402,283.88016,-6.95166,-0.84675,0.06007
2018.03.30 20:36:01,33.78,4.8,-35.52,-0.01437,1.86993,10.09666,0.10955,0.13732,0.2636,282.87851,-8.44715,-1.19597,0.10955
2018.03.30 20:36:01,33.54,5.64,-35.22,-0.46688,0.06943,11.26267,-0.01629,0.01148,-0.12797,283.13239,-7.17137,-0.73299,1018.41602
2018.03.30 20:36:01,34.08,5.46,-34.62,-0.34238,0.92898,7.9897,0.05579,-0.0887,0.07973,283.14789,-8.07895,-0.68348,1018.42139
2018.03.30 20:36:01,33.72,6.24,-35.04,-0.24182,0.3759,10.68804,-0.23132,-0.05816,-0.05161,283.70779,-6.94265,-0.3286,1018.42017
2018.03.30 20:36:01,32.34,6.24,-34.08,-0.44055,1.22826,8.52841,0.03013,-0.00257,0.03574,284.30374,-6.47713,-1.19223,1018.41772
2018.03.30 20:36:01,31.86,6.54,-34.8,-0.24182,1.48684,9.99849,-0.11342,-0.02334,-0.01618,284.45743,-6.31396,-1.18009,1018.40918
2018.03.30 20:36:01,32.1,8.34,-33.24,-0.34956,1.69275,10.25947,0.03502,-0.01845,-0.05589,285.31958,-6.96852,-1.43836,0.03502
2018.03.30 20:36:01,31.32,7.38,-33.3,0.38787,1.69994,10.42946,0.17735,-0.09847,0.01742,286.10159,-8.29634,-0.81456,1018.41235
2018.03.30 20:36:01,29.94,9.06,-33.6,-0.03591,0.32323,10.05117,0.1407,-0.10397,-0.29168,288.4422,-7.66814,-0.49024,1018.41064
2018.03.30 20:36:02,29.82,8.28,-34.2,0.46688,0.39984,10.17327,-0.09998,0.01209,-0.13958,289.45636,-6.84548,0.04523,-0.09998
2018.03.30 20:36:02,29.52,9.78,-32.28,-0.07183,1.02714,9.02163,-0.02484,0.07929,-0.01007,290.29739,-5.90744,-0.29051,-0.02484
2018.03.30 20:36:02,29.1,9.96,-31.5,0.20591,1.48445,8.83966,-0.07005,0.03347,-0.00641,290.60791,-6.01059,-0.48247,-0.07005
2018.03.30 20:36:02,30.36,10.2,-31.92,-0.01197,1.81725,9.953,-0.17145,0.108,-0.04733,291.27222,-6.19882,-0.56368,-0.17145
2018.03.30 20:36:02,30.96,10.5,-32.28,-0.02394,1.58501,10.97775,0.13643,0.0292,0.13409,291.24832,-7.27514,-0.72186,0.13643
2018.03.30 20:36:02,30.42,9.6,-32.04,-0.48364,-0.15802,13.0464,-0.25209,-0.0606,-0.0962,291.31876,-7.42753,-0.97561,-0.25209
2018.03.30 20:36:02,30.12,9.72,-31.2,-0.42618,1.07742,7.70956,0.3374,0.12999,0.3259,291.25803,-7.33533,-1.36091,0.3374
2018.03.30 20:36:02,30.42,8.64,-30.36,-0.63448,0.28971,9.99849,-0.07066,-0.03861,0.09316,290.70789,-7.00957,-1.53884,-0.07066
2018.03.30 20:36:02,30.24,8.46,-29.16,-0.55547,1.22826,9.26105,-0.10853,0.01576,0.18968,289.98358,-5.78827,-1.60355,1018.39795
2018.03.30 20:36:03,30.66,8.58,-30.18,-0.23943,1.56346,9.62259,-0.03462,-0.01051,0.11699,289.10693,-6.0089,-1.23365,1018.39819
2018.03.30 20:36:03,30.66,8.22,-30.42,-0.31844,1.60895,10.00328,0.05885,0.03347,-0.06627,289.53006,-6.81203,-1.53804,1018.39746
2018.03.30 20:36:03,29.64,8.16,-30.9,0.77814,1.93697,10.04398,0.14498,-0.24875,0.12004,289.7403,-8.12715,-0.41374,0.14498
2018.03.30 20:36:03,29.7,7.62,-30.06,-0.64885,0.39745,10.51805,-0.16534,-0.09359,-0.23059,290.62244,-7.0452,0.15792,1018.40259
2018.03.30 20:36:03,29.16,9,-29.7,0.34956,0.52195,9.49809,0.02952,0.12449,0.01681,290.96008,-6.49369,-0.21115,1018.40137
2018.03.30 20:36:03,29.58,9.12,-29.4,-0.39745,0.46688,10.18524,-0.18489,0.18436,-0.321,292.65628,-5.15687,-0.71537,-0.18489
2018.03.30 20:36:03,30,10.38,-28.68,-0.01915,1.18995,9.25148,0.12848,0.03836,-0.04489,293.31009,-5.46695,-1.31189,0.12848
2018.03.30 20:36:03,30.3,10.2,-28.44,-0.24422,1.53952,9.59865,0.15414,0.01148,0.01009,293.59351,-6.47157,-1.51741,0.15414
2018.03.30 20:36:03,29.22,8.94,-28.38,-0.06465,1.5874,10.62579,0.14376,0.0744,0.10233,293.15387,-7.87717,-1.38937,0.14376
2018.03.30 20:36:03,30.12,6.6,-29.52,0.38308,1.57543,9.95539,0.04907,0.1135,0.17869,292.24091,-8.98044,-1.0278,0.04907
2018.03.30 20:36:04,30.96,8.04,-29.52,-0.85476,0.5004,9.37598,-0.03401,0.03042,-0.00519,292.367,-6.9078,-0.84764,-0.03401
2018.03.30 20:36:04,30.54,8.1,-29.28,-0.38069,0.81884,8.97853,-0.09021,0.00476,-0.0284,291.66431,-7.30466,-1.11687,-0.09021
2018.03.30 20:36:04,30.78,8.4,-28.38,-0.89785,1.10137,9.10782,-0.01812,0.01637,0.03513,292.01855,-5.91524,-1.74693,1018.41479
2018.03.30 20:36:04,30.12,8.1,-28.92,-0.27055,1.62092,9.51724,-0.08349,-0.05571,0.06445,291.69543,-6.09967,-2.37527,1018.40332
2018.03.30 20:36:04,30.24,8.22,-28.62,-0.60575,1.69515,10.14454,-0.08349,0.05669,-0.06749,291.98193,-6.60094,-2.53841,1018.40137
2018.03.30 20:36:04,31.14,8.52,-28.74,-0.00958,1.34558,10.54678,0.20057,-0.20049,0.18663,291.86749,-7.60595,-2.27525,1018.39551
2018.03.30 20:36:04,30.06,8.16,-29.16,-0.28492,0.15323,11.25549,-0.30767,-0.0044,-0.05955,291.74963,-6.68435,-1.29048,-0.30767
2018.03.30 20:36:04,30.36,8.16,-29.52,0.99362,0.82124,9.51006,-0.05416,-0.01662,0.09072,291.49176,-5.72358,-0.76425,1018.40039
2018.03.30 20:36:04,30,8.88,-29.52,-0.36872,0.19633,10.14694,-0.02118,0.10678,-0.36132,293.10934,-5.10585,-1.23056,1018.40112
2018.03.30 20:36:05,30.24,9.12,-28.02,0.30647,1.21869,9.30415,0.10344,0.03897,-0.05222,293.68716,-5.71089,-1.948,0.10344
2018.03.30 20:36:05,31.2,9.48,-28.44,-0.07422,1.47487,9.35922,0.09122,0.05363,-0.06933,293.9996,-6.48918,-1.52461,0.09122
2018.03.30 20:36:05,31.5,9.06,-28.14,0.00479,1.71909,9.7423,0.17735,-0.03678,0.03147,293.70898,-8.21034,-1.23264,0.17735
2018.03.30 20:36:05,31.26,7.86,-28.8,-0.54111,1.91542,9.61062,0.18652,-0.01417,0.15669,292.62738,-9.5277,-0.78909,0.18652
2018.03.30 20:36:05,31.98,7.02,-28.14,-0.88588,-0.63209,12.64656,-0.39442,-0.10947,-0.05405,291.65622,-7.96819,-0.60654,-0.39442
2018.03.30 20:36:05,33.18,5.88,-28.5,-0.01197,1.16362,9.05036,0.08756,0.03836,0.16036,289.75296,-8.12662,-1.07132,0.08756
2018.03.30 20:36:05,33.42,6,-28.8,-0.5842,0.85715,9.89793,0.01486,0.0854,0.05163,289.76501,-7.51436,-1.47321,0.01486
2018.03.30 20:36:05,32.28,5.88,-28.14,-0.30647,1.3384,9.34485,0.06007,-0.04533,0.11516,288.97012,-7.18028,-1.99366,1018.41699
2018.03.30 20:36:05,32.4,5.94,-28.02,-0.27055,1.76219,9.31373,0.07228,-0.0325,0.03086,288.49438,-7.77825,-1.95438,1018.41064
2018.03.30 20:36:06,32.94,5.58,-29.1,-0.19633,1.37192,10.26426,0.02769,-0.10642,-0.10476,288.83652,-8.61294,-1.77469,1018.40649
2018.03.30 20:36:06,33.06,5.58,-29.34,-0.25379,0.50998,12.16052,-0.326,-0.06854,-0.17256,289.32867,-7.98241,-0.96015,1018.40503
2018.03.30 20:36:06,33,6.48,-29.46,0.26816,0.60575,9.62977,0.04052,-0.09847,0.15547,289.13354,-6.79763,-0.73652,0.04052
2018.03.30 20:36:06,34.14,6.96,-30,-0.09338,0.67997,9.55316,-0.09815,0.20146,-0.27946,289.6066,-6.0643,-0.82517,-0.09815
2018.03.30 20:36:06,33.48,7.2,-29.58,-0.10295,1.07742,9.17247,-0.01935,0.07562,-0.18173,290.47699,-5.66486,-1.57554,1018.40601
2018.03.30 20:36:06,32.22,8.04,-28.62,-0.11493,1.1301,9.49091,-0.00041,0.02553,-0.11697,290.61255,-5.90126,-1.57503,-0.00041
2018.03.30 20:36:06,33.96,8.28,-30,-0.16281,1.69754,9.63696,0.00448,0.05241,0.04552,290.68756,-6.19177,-1.88044,0.00448
2018.03.30 20:36:06,34.32,7.98,-30,0.13887,1.48684,10.60903,0.00692,0.00904,0.084,290.18146,-6.71945,-1.41374,0.00692
2018.03.30 20:36:06,35.16,7.74,-30.3,0.13647,0.20591,11.9618,-0.23498,-0.07954,-0.04672,290.05396,-5.9575,-0.67726,-0.23498
2018.03.30 20:36:06,34.38,8.28,-31.38,-0.67758,0.59617,7.95857,0.25249,-0.02395,0.08156,290.05072,-5.17571,-0.44305,0.25249
2018.03.30 20:36:07,34.68,8.64,-30.78,-0.64885,-0.08859,10.86522,-0.20383,-0.0606,-0.05039,289.8819,-3.68517,-1.04042,-0.20383
2018.03.30 20:36:07,35.28,8.34,-31.14,-0.7518,1.02954,8.72234,-0.03889,0.04874,0.07789,289.52631,-2.76592,-2.48917,-0.03889
2018.03.30 20:36:07,35.94,7.86,-31.68,-0.3352,1.25939,9.72315,-0.1122,0.01576,0.01436,288.73691,-3.53576,-3.0697,1018.41309
2018.03.30 20:36:07,36.42,7.92,-31.5,-0.54829,1.09658,10.2882,-0.07982,0.11472,-0.00091,288.52377,-4.19884,-3.30165,1018.41748
2018.03.30 20:36:07,35.82,7.26,-31.92,1.30967,0.94813,11.18366,0.28059,-0.18033,0.25688,287.28525,-5.58165,-2.15952,1018.41821
2018.03.30 20:36:07,34.32,8.7,-32.22,0.14126,-0.03352,10.75029,0.01853,-0.14734,-0.24709,288.25781,-4.60117,-0.89417,1018.41528
2018.03.30 20:36:07,35.28,7.38,-32.52,0.05028,-0.12211,9.58428,0.05823,0.07929,-0.38514,289.35431,-5.15036,-0.47468,0.05823
2018.03.30 20:36:07,36.24,8.34,-33.9,-0.75659,0.78772,8.72713,0.04541,0.12877,-0.17134,290.22351,-4.99727,-1.31851,1018.41846
2018.03.30 20:36:07,36.6,7.62,-33.3,0.2107,1.03672,9.46217,-0.01079,0.09395,0.04796,289.67911,-5.16945,-1.76915,1018.41064
2018.03.30 20:36:08,36.9,7.44,-33,0.12211,1.70712,9.79019,-0.02729,0.07562,0.06934,289.11285,-5.49383,-1.66984,-0.02729
2018.03.30 20:36:08,37.92,6.96,-32.94,0.1269,1.44854,10.97536,0.15781,0.01698,0.14448,288.07047,-7.22647,-0.99619,0.15781
2018.03.30 20:36:08,38.28,5.04,-33.78,-0.14605,1.1708,10.76466,0.13704,0.17153,0.14509,287.12018,-7.892,-1.19798,1018.40625
2018.03.30 20:36:08,39.6,5.88,-33.72,-1.09179,0.36632,8.83009,-0.03828,0.12816,0.00703,286.73157,-6.6417,-1.66054,-0.03828
2018.03.30 20:36:08,38.82,4.14,-32.22,-0.50759,0.1269,9.87638,-0.06516,-0.09481,0.10599,285.28241,-6.40419,-1.59164,-0.06516
2018.03.30 20:36:08,39.12,4.74,-32.88,-0.31365,1.07024,8.73192,0.00937,0.03103,0.17013,284.51373,-5.4631,-1.8651,0.00937
2018.03.30 20:36:08,39.24,2.94,-32.82,-0.28013,1.34079,9.55795,-0.10609,-0.03617,0.00398,283.61517,-5.35155,-1.8805,-0.10609
2018.03.30 20:36:08,39.84,3.48,-33,-0.97926,1.35037,10.10384,-0.04806,0.01698,-0.07727,283.63391,-5.8369,-2.08538,-0.04806
2018.03.30 20:36:08,40.2,2.34,-32.16,-0.40703,1.40544,10.63776,0.14253,-0.18949,0.13837,282.716,-7.15049,-2.07564,1018.41724
2018.03.30 20:36:09,39.96,2.82,-33.72,-0.59139,-0.11732,10.86282,-0.32172,-0.03067,-0.17501,282.8768,-5.94855,-1.68121,1018.41162
2018.03.30 20:36:09,39.3,3.24,-34.56,0.57223,-0.23703,10.5372,0.05396,-0.11558,-0.19089,282.87433,-5.20056,-0.56895,1018.41113
2018.03.30 20:36:09,39.18,2.76,-34.74,-0.89785,0.43336,8.93064,0.01486,0.03408,-0.12125,283.98996,-4.62559,-1.11672,0.01486
2018.03.30 20:36:09,39.6,3.06,-34.38,0.35196,1.09418,8.79417,0.12238,0.01881,0.08889,283.20355,-5.03803,-1.13099,1018.41357
2018.03.30 20:36:09,39.24,2.46,-34.32,0.06704,1.45332,9.15571,0.00142,0.09578,-0.07543,282.90833,-5.35108,-0.79918,1018.40894
2018.03.30 20:36:09,40.02,1.62,-34.44,0.07422,1.53234,10.52763,0.06068,-0.02517,0.05529,282.31168,-6.46198,-0.37445,0.06068
2018.03.30 20:36:09,40.56,0.12,-33.96,0.02634,1.30009,10.43186,-0.08104,0.12388,0.14753,281.20755,-7.07437,-0.56222,-0.08104
2018.03.30 20:36:09,39.6,2.1,-33.12,-0.98165,0.25858,9.65132,0.20423,0.16542,0.14264,281.27252,-5.7592,-0.81686,0.20423
2018.03.30 20:36:09,40.74,-0.06,-32.94,-0.49083,-0.02634,9.68484,0.05457,0.01087,0.15792,279.94299,-6.17183,-1.19823,0.05457
2018.03.30 20:36:09,40.56,-0.06,-32.88,-1.00799,0.61293,9.37119,0.04968,0.1361,0.02597,279.44092,-4.61088,-2.15497,0.04968
2018.03.30 20:36:10,40.92,-0.96,-33.12,-0.62012,1.19953,9.21317,0.0057,0.01942,0.08095,278.29083,-4.67636,-3.36148,0.0057
2018.03.30 20:36:10,40.44,-0.66,-32.4,-0.74462,1.55149,9.60583,0.03013,0.05669,-0.02046,277.80826,-5.15523,-3.85704,0.03013
2018.03.30 20:36:10,40.38,-2.1,-32.88,-0.69673,1.10615,10.91789,0.02097,-0.01417,-0.03634,277.57227,-6.30073,-3.98813,0.02097
2018.03.30 20:36:10,39.24,-2.58,-32.28,0.66082,0.37111,12.30657,-0.16046,-0.18094,-0.08154,277.24564,-6.04536,-2.61314,-0.16046
2018.03.30 20:36:10,38.82,-1.44,-32.22,0.56505,0.50998,6.90988,0.2867,-0.12963,0.03025,277.56958,-5.29905,-1.65054,1018.39722
2018.03.30 20:36:10,37.68,-1.62,-32.28,-0.69434,-0.24661,10.01765,-0.1238,0.06341,-0.33505,278.32974,-4.90677,-1.29773,1018.4043
2018.03.30 20:36:10,38.82,-1.14,-32.94,0.15084,0.95532,8.96656,0.08206,-0.01356,0.08034,278.02271,-4.4886,-1.67307,0.08206
2018.03.30 20:36:10,37.5,-0.84,-32.04,0.06225,1.2953,8.83727,-0.02484,-0.00257,-0.01007,277.22308,-4.77142,-1.29256,1018.40039
2018.03.30 20:36:10,37.26,-1.44,-31.26,0.27295,1.86275,9.88117,-0.05661,0.07135,0.05773,276.54608,-5.49461,-0.86188,1018.40088
2018.03.30 20:36:11,37.56,-1.74,-31.26,-0.1245,1.34319,11.3752,0.12971,0.04264,0.08034,275.97272,-6.82897,-0.26297,0.12971
2018.03.30 20:36:11,37.02,-2.88,-31.32,-0.55547,-0.79011,13.67849,-0.18184,-0.00684,-0.21838,275.52719,-6.47182,-0.5643,-0.18184
2018.03.30 20:36:11,36.12,-3.42,-31.02,-0.38308,0.79729,7.41986,0.42231,0.03592,0.16097,274.64948,-7.0812,-1.25494,1018.41089
2018.03.30 20:36:11,35.52,-4.5,-31.74,-0.91701,0.0407,10.39115,-0.15557,-0.03617,-0.02718,273.79871,-6.21668,-1.08692,-0.15557
2018.03.30 20:36:11,34.56,-5.46,-31.08,-0.57702,1.13489,8.63375,-0.01507,0.01393,0.11638,272.63257,-5.45448,-2.13325,-0.01507
2018.03.30 20:36:11,34.38,-4.86,-30.06,-0.5004,1.64008,9.96737,-0.08776,0.04752,-0.03573,271.85025,-5.38771,-2.5945,-0.08776
2018.03.30 20:36:11,33.9,-4.44,-30.06,-0.62491,1.40065,10.6234,0.09366,-0.06976,0.00764,271.7326,-6.25005,-3.03618,0.09366
2018.03.30 20:36:11,33.3,-6.48,-29.7,0.67519,0.68237,11.24351,0.1743,-0.22676,0.08461,271.13113,-7.07893,-2.09368,0.1743
2018.03.30 20:36:11,32.28,-3.18,-30.24,0.59857,0.28252,9.84526,-0.1403,-0.04166,-0.10842,271.81058,-5.1939,-1.39594,1018.41016
2018.03.30 20:36:12,31.74,-3.72,-31.5,-0.21788,0.27774,9.01684,0.09,0.03531,-0.31673,272.41461,-5.36419,-0.71143,1018.40991
2018.03.30 20:36:12,32.16,-3.24,-29.76,-0.47885,0.70871,9.11022,0.05457,0.06951,-0.05467,273.22693,-5.22606,-1.29173,1018.41382
2018.03.30 20:36:12,31.44,-2.82,-29.34,0.11971,1.02954,9.22514,0.09733,0.04325,0.01681,273.05359,-5.69714,-1.59315,1018.41724
2018.03.30 20:36:12,31.26,-3.06,-30.18,-0.49322,1.65923,10.02004,-0.05355,0.07012,-0.06627,273.10794,-5.78438,-1.88184,1018.41089
2018.03.30 20:36:12,30.66,-2.34,-28.98,-0.01676,1.55867,10.98493,0.17491,-0.00012,0.16952,272.31213,-7.25249,-1.77474,1018.40796
2018.03.30 20:36:12,31.02,-3.18,-28.08,-0.40224,-0.36154,12.99612,-0.43046,0.01454,-0.11636,271.89563,-7.27286,-1.84564,-0.43046
2018.03.30 20:36:12,29.28,-3.18,-28.32,-0.68955,0.39745,8.5332,0.03197,-0.0215,0.15181,271.52606,-6.30883,-2.35164,0.03197
2018.03.30 20:36:12,28.26,-3.42,-28.56,-0.90743,-0.20112,10.621,-0.15068,0.00721,0.01131,271.00082,-4.56641,-2.54639,1018.40625
2018.03.30 20:36:12,28.8,-4.74,-28.62,-0.83321,0.89546,8.37278,0.04296,-0.00012,0.15669,269.84366,-3.77147,-3.47105,0.04296
2018.03.30 20:36:12,27.66,-4.74,-28.86,-0.78772,1.32164,10.07271,-0.09326,0.12022,0.05773,268.76294,-4.01245,-3.96388,-0.09326
2018.03.30 20:36:13,26.58,-4.62,-27.12,-0.80687,1.31925,10.39834,0.10099,-0.02761,0.0333,268.25665,-5.45226,-4.53466,0.10099
2018.03.30 20:36:13,25.62,-5.4,-27.66,-0.32802,1.39586,10.27623,0.11627,-0.14246,0.13898,267.45605,-6.46022,-3.77263,0.11627
2018.03.30 20:36:13,24.42,-4.8,-27.66,-0.67997,0.06943,10.61621,-0.2191,0.05913,-0.11453,267.88428,-4.99653,-3.25266,-0.2191
2018.03.30 20:36:13,24.06,-5.64,-27.78,0.1676,-0.01915,10.38158,-0.04011,-0.08015,-0.23976,268.01404,-4.92042,-2.76765,-0.04011
2018.03.30 20:36:13,23.52,-3.9,-27.06,-0.64885,0.71589,9.02402,0.20973,0.11716,-0.06994,269.09479,-4.58987,-3.09833,0.20973
2018.03.30 20:36:13,24.12,-4.62,-27.18,-0.12929,1.0463,8.83966,0.07412,0.01087,-0.01679,269.00333,-5.53412,-3.29012,1018.40967
2018.03.30 20:36:13,23.52,-5.04,-26.4,-0.58899,1.43417,9.30894,-0.00163,0.0573,-0.04489,268.71695,-6.02275,-3.14254,1018.40356
2018.03.30 20:36:13,21.84,-4.62,-25.56,-0.03591,1.64487,10.73353,-0.01996,-0.05694,0.16891,267.646,-6.94123,-2.69,1018.40967
2018.03.30 20:36:13,21.12,-5.22,-25.38,0.1652,0.70392,11.2914,-0.45795,-0.13024,-0.15179,267.19775,-6.55283,-1.87544,1018.41357
2018.03.30 20:36:14,21.06,-4.14,-25.08,-1.21629,0.44773,8.27701,0.39604,-0.00257,0.33323,267.25281,-5.49155,-1.2513,0.39604
2018.03.30 20:36:14,20.52,-4.8,-24.6,0.06943,-0.14366,10.3289,0.13948,-0.11802,0.30697,265.46198,-6.12026,-0.84475,1018.41504
2018.03.30 20:36:14,20.34,-4.14,-24.96,-0.94334,0.70152,8.91628,0.03136,0.15015,0.02841,265.10159,-4.74665,-1.40347,1018.41553
2018.03.30 20:36:14,19.68,-4.38,-24.48,-0.5435,1.03912,9.38316,-0.0169,0.01515,0.10172,264.31107,-4.8482,-2.13859,-0.0169
2018.03.30 20:36:14,19.68,-5.28,-23.88,-0.53871,1.21869,9.85723,0.12971,-0.01112,0.02108,263.99225,-5.62828,-2.44413,0.12971
2018.03.30 20:36:14,19.08,-5.34,-23.76,0.61533,0.5866,10.89156,-0.18,-0.16995,-0.09681,263.43225,-6.32512,-1.60005,-0.18
2018.03.30 20:36:14,19.02,-4.92,-23.7,-0.23703,0.2083,10.06314,-0.23498,-0.09237,-0.20249,264.01776,-4.6553,-0.95215,-0.23498
2018.03.30 20:36:14,18.24,-4.98,-24.18,0.5435,0.10056,9.95779,0.09977,-0.05877,-0.14385,264.0408,-5.12768,-0.36587,0.09977
2018.03.30 20:36:14,18.84,-4.56,-23.1,-0.31365,0.64406,9.38795,0.05457,0.1251,-0.07605,264.97449,-4.9898,-1.0374,0.05457
2018.03.30 20:36:14,18.54,-3.54,-22.26,0.23943,1.2546,9.08627,0.02586,0.0573,-0.02534,264.83148,-5.43829,-1.24781,0.02586
2018.03.30 20:36:15,19.08,-3.6,-23.58,-0.13408,1.83162,9.64174,-0.01812,0.05058,-0.02412,264.96432,-6.1889,-1.06469,-0.01812
2018.03.30 20:36:15,18.66,-4.14,-24.06,-0.11971,1.68078,10.51565,0.05335,0.02126,0.0785,265.31851,-7.94609,-1.11104,1018.40845
2018.03.30 20:36:15,18.12,-4.26,-22.74,0.2921,0.60815,12.63938,-0.14885,0.01942,0.09255,264.97073,-8.22719,-1.33172,1018.40503
2018.03.30 20:36:15,17.94,-3.6,-22.38,-0.41421,-0.19394,10.92029,0.38627,-0.02945,0.17319,265.24411,-6.38542,-1.11202,1018.40918
2018.03.30 20:36:15,17.34,-3.54,-22.62,-0.81645,-0.3352,10.73593,-0.24781,-0.01234,-0.03267,265.04623,-5.48477,-0.64268,-0.24781
2018.03.30 20:36:15,16.92,-3.18,-23.88,-0.76138,1.05827,8.71037,0.05701,0.01759,0.18479,264.43271,-4.85923,-1.12872,1018.41162
2018.03.30 20:36:15,15.72,-2.76,-23.64,-0.20591,1.20911,9.68724,-0.08043,-0.0551,0.14875,263.73169,-5.09747,-1.83786,1018.41504
2018.03.30 20:36:15,16.32,-2.04,-23.46,-0.13169,1.50839,9.69442,0.0167,0.03958,0.02536,264.24829,-5.51425,-2.11179,0.0167
2018.03.30 20:36:15,15.3,-1.98,-23.04,0.05267,1.09179,10.97775,0.05823,-0.16323,0.01742,265.04202,-6.04938,-1.25255,0.05823
2018.03.30 20:36:16,14.4,-0.3,-24.48,-0.18915,-0.11732,11.32492,-0.11403,-0.03372,-0.21044,267.59567,-4.52112,-0.35823,-0.11403
2018.03.30 20:36:16,14.28,0.6,-24.36,0.44773,-0.0838,9.79258,0.16819,0.00965,-0.20188,269.86038,-4.69841,-0.28411,0.16819
2018.03.30 20:36:16,14.22,1.92,-25.08,-0.668,0.3783,9.26105,0.0112,0.07318,-0.19089,272.89822,-4.26805,-0.8076,0.0112
2018.03.30 20:36:16,14.82,1.26,-24.96,0.27055,1.15883,8.6553,0.06618,-0.01356,0.10294,273.47577,-4.62813,-0.85828,0.06618
2018.03.30 20:36:16,14.4,2.1,-24.6,-0.0407,1.506,9.52921,-0.09509,0.08906,-0.02901,274.50165,-4.942,-0.82089,-0.09509
2018.03.30 20:36:16,14.52,2.94,-24.3,0.06465,1.4222,10.97057,0.079,-0.03128,0.19029,275.36102,-6.27741,-0.78172,0.079
2018.03.30 20:36:16,15.12,3.48,-24.72,0.29689,0.67997,10.25707,-0.02973,0.11533,0.12737,275.995,-6.93154,-0.69419,-0.02973
2018.03.30 20:36:16,14.46,3.54,-25.44,-0.26816,0.53632,8.61221,0.26349,0.10922,0.27337,277.4917,-6.19822,-0.70758,1018.4043
2018.03.30 20:36:16,14.16,3.54,-25.5,-0.35435,-0.03352,10.00567,-0.1574,-0.19682,0.05529,277.9686,-6.33132,0.12793,1018.40161
2018.03.30 20:36:17,12.84,4.56,-24.72,-0.44773,0.93616,8.60981,-0.01568,0.06096,0.1176,279.36584,-5.33653,-0.07617,-0.01568
2018.03.30 20:36:17,14.16,5.58,-26.7,-0.22267,0.99841,9.48612,-0.05416,-0.00868,0.13776,280.66217,-4.83605,-0.82574,1018.40186
2018.03.30 20:36:17,15.12,5.82,-26.28,-0.38069,1.16122,10.07271,0.02708,-0.04105,-0.0229,282.57242,-4.51831,-1.38095,1018.39746
2018.03.30 20:36:17,13.98,6.6,-26.28,-0.18196,1.05827,10.30496,0.09672,-0.07893,0.0388,284.45001,-5.004,-1.17174,0.09672
2018.03.30 20:36:17,14.28,7.86,-26.58,-0.28971,-0.38787,12.18686,-0.2191,-0.16078,-0.23243,287.36746,-3.8927,-0.83227,-0.2191
2018.03.30 20:36:17,14.46,7.92,-27.42,0.76856,0.34717,8.9905,0.32946,-0.1058,0.04246,289.54782,-4.34313,-0.42267,1018.40332
2018.03.30 20:36:17,15.12,8.7,-27.48,-0.56026,0.35675,9.02881,-0.00163,0.10922,-0.23426,292.42905,-4.416,-0.68146,-0.00163
2018.03.30 20:36:17,15.24,8.88,-27,0.06225,1.18995,8.67446,0.10099,0.1196,0.02475,294.3045,-4.71761,-1.38889,0.10099
2018.03.30 20:36:17,15.36,9.96,-26.52,-0.26098,1.19474,9.88836,-0.06272,0.11472,-0.05467,295.95496,-4.99888,-1.52783,-0.06272
2018.03.30 20:36:17,16.02,9.9,-27.06,0.04789,1.27615,10.9586,0.06801,0.0799,0.09988,296.86172,-6.06629,-1.5252,0.06801
2018.03.30 20:36:18,15.66,9.24,-27.24,0.2083,1.29051,10.10384,0.13276,0.02492,0.12004,297.71429,-6.80111,-0.82933,0.13276
2018.03.30 20:36:18,15.6,10.5,-27.3,-0.65843,0.31844,9.28979,0.07167,0.0799,0.03025,299.09882,-5.93015,-0.55242,1018.39819
2018.03.30 20:36:18,17.04,9.84,-27.48,-0.66321,0.15802,9.55316,-0.07005,-0.16689,0.03147,299.59317,-6.23082,-0.29937,1018.4021
2018.03.30 20:36:18,17.04,10.32,-29.16,-0.47167,0.8787,9.00487,-0.00652,0.01454,0.17074,299.9144,-5.0838,-0.33874,1018.4021
2018.03.30 20:36:18,17.28,10.08,-28.32,-0.25858,1.07264,9.65132,-0.07005,-0.00257,0.12493,299.94608,-4.54121,-1.22519,1018.39185
2018.03.30 20:36:18,18.18,10.5,-28.8,-0.56744,1.29051,10.57072,0.16819,-0.00868,0.09866,300.41861,-4.56585,-1.95309,0.16819
2018.03.30 20:36:18,18.24,10.14,-28.32,0.06465,1.24742,11.18605,0.23294,-0.04044,0.14264,300.46317,-6.16847,-1.9224,1018.39575
2018.03.30 20:36:18,19.02,10.92,-29.1,0.249,-0.06943,10.73114,-0.06272,-0.01173,-0.0791,301.73361,-4.98853,-1.65725,-0.06272
2018.03.30 20:36:18,18.78,10.2,-29.52,-0.16999,-0.16999,9.68963,0.01364,-0.027,-0.4896,303.3241,-5.49704,-0.6019,0.01364
2018.03.30 20:36:19,18.48,11.28,-28.38,-0.5435,0.66321,8.75826,0.10466,0.108,-0.09743,305.55396,-4.88201,-0.96098,0.10466
2018.03.30 20:36:19,18.78,11.58,-28.14,0.11014,0.91461,9.48851,0.04052,0.01942,-0.05405,306.0661,-5.13514,-1.14834,0.04052
2018.03.30 20:36:19,19.32,10.38,-29.22,-0.16042,1.43896,9.5364,-0.05478,0.07807,-0.10476,306.60739,-5.16734,-1.29032,-0.05478
2018.03.30 20:36:19,20.16,10.98,-29.16,-0.03831,1.34798,11.11183,-0.01446,-0.01845,0.00642,306.53641,-6.01995,-1.08974,-0.01446
2018.03.30 20:36:19,21.06,10.98,-29.4,0.10535,1.44375,10.3313,-0.34127,-0.06732,-0.12553,306.29968,-6.32075,-0.93101,-0.34127
2018.03.30 20:36:19,20.52,12.42,-29.76,-0.78772,0.82363,8.0711,0.45835,-0.0496,0.30575,306.37531,-6.26495,-0.70298,1018.38916
2018.03.30 20:36:19,21.36,10.86,-30.18,-0.4597,0.25619,9.80455,0.08878,-0.05144,0.31308,304.66608,-7.08379,-0.19476,1018.39551
2018.03.30 20:36:19,21.12,10.44,-29.94,-0.55787,0.99123,8.69601,0.09061,0.01454,0.19396,303.40887,-6.24605,-0.28771,1018.3999
2018.03.30 20:36:19,21.72,9.42,-30,-0.43336,1.13967,9.34246,-0.14213,0.0799,0.06629,302.53445,-5.70504,-1.01702,1018.39648
2018.03.30 20:36:20,23.1,10.08,-30.18,-0.28252,1.20193,10.16848,-0.05661,0.097,-0.02351,302.54639,-4.92529,-1.54004,-0.05661
2018.03.30 20:36:20,22.68,9.3,-29.94,0.1269,1.34319,10.30735,0.08145,-0.05999,-0.02168,302.43329,-5.72266,-0.97241,0.08145
2018.03.30 20:36:20,22.14,12.3,-28.68,-0.73265,-0.1269,11.36323,-0.41885,0.04569,-0.19028,303.03857,-4.271,-0.8355,1018.40332
2018.03.30 20:36:20,23.16,11.28,-30.48,0.50998,-0.09338,9.66569,0.16452,0.04141,0.01314,302.97769,-4.00032,-1.01451,0.16452
2018.03.30 20:36:20,22.74,10.74,-29.64,-0.11971,0.40703,9.04318,0.03991,0.03714,-0.0455,303.14618,-3.09144,-0.74018,0.03991
2018.03.30 20:36:20,23.76,10.86,-28.38,0.18675,0.95292,9.17247,0.02036,-0.04227,0.01009,302.36902,-3.31342,-0.41742,0.02036
2018.03.30 20:36:20,23.88,9.9,-29.34,-0.09098,1.40544,9.38077,-0.00713,0.00232,-0.0284,302.01349,-3.82687,-0.27487,-0.00713
2018.03.30 20:36:20,23.4,9.96,-28.2,0.13169,1.43896,10.30975,0.05946,0.06035,-0.00335,301.64828,-5.59292,-0.42762,0.05946
2018.03.30 20:36:20,23.82,10.26,-29.16,0.45012,0.95771,10.26665,0.13581,0.07684,0.14814,300.68402,-6.53193,-0.67958,1018.40161
2018.03.30 20:36:21,24.12,10.14,-27.9,-1.28094,-0.51477,10.96338,-0.16901,0.08051,-0.17684,300.99023,-4.59328,-0.76158,1018.39648
2018.03.30 20:36:21,24.66,9.66,-27.24,-0.47646,-0.22027,9.38316,0.02403,-0.06549,0.21961,299.84589,-4.86259,-1.59174,1018.40576
2018.03.30 20:36:21,24.3,9.24,-27.42,-0.54829,0.57941,9.36161,0.08572,0.09639,0.12371,298.56689,-4.36775,-2.1035,0.08572
2018.03.30 20:36:21,24.12,8.4,-28.14,-0.52674,1.14446,9.06712,0.06923,0.06157,0.05896,297.92636,-4.57489,-2.64379,1018.41162
2018.03.30 20:36:21,25.32,9,-27.24,-0.63927,1.20911,10.0799,-0.10487,-0.02456,-0.1017,298.10794,-4.60607,-2.7661,1018.41357
2018.03.30 20:36:21,24,9.6,-27.96,-0.23224,1.37192,10.07511,0.1181,-0.16811,-0.00213,298.30194,-5.76281,-2.19367,0.1181
2018.03.30 20:36:21,23.76,8.82,-27.36,0.46449,0.82363,10.77424,-0.3822,-0.0606,-0.26175,298.58014,-6.27385,-1.29544,-0.3822
2018.03.30 20:36:21,23.64,10.2,-27.6,-0.29928,0.16281,10.2044,-0.33211,-0.19071,-0.34422,299.94836,-4.46449,-0.61618,1018.40601
2018.03.30 20:36:21,23.46,10.62,-28.14,-0.35675,0.26816,11.67927,0.13337,-0.00074,-0.22815,300.76465,-5.11614,-0.38998,0.13337
2018.03.30 20:36:21,23.04,10.62,-27.6,0.01915,0.93377,9.06233,0.10283,0.06829,-0.00152,301.24234,-5.31178,-0.79347,0.10283
2018.03.30 20:36:22,24.12,10.38,-27.84,0.13647,0.97926,8.91867,0.10955,0.0463,0.02536,300.8544,-6.00874,-0.901,0.10955
2018.03.30 20:36:22,23.64,10.32,-27.06,-0.09577,1.48684,9.45739,0.05274,0.05852,0.15364,300.23392,-6.19847,-0.99495,0.05274
2018.03.30 20:36:22,22.86,9.42,-27.96,-0.1245,1.51558,10.61861,0.03808,0.01393,0.20495,299.05875,-6.79464,-1.01518,0.03808
2018.03.30 20:36:22,22.5,10.92,-25.56,0.05507,0.04549,12.63219,-0.38525,-0.00074,-0.05344,298.71677,-5.62989,-1.37167,1018.39966
2018.03.30 20:36:22,24.72,9.84,-26.88,-0.44055,0.87152,7.68323,0.35695,0.03408,0.32224,297.64069,-6.37396,-1.91378,1018.3938
2018.03.30 20:36:22,24.6,9.06,-27.9,-0.59378,0.03352,10.75269,-0.03767,0.01637,0.08583,297.03528,-6.01467,-1.78362,1018.39624
2018.03.30 20:36:22,24.6,8.94,-26.82,-0.49561,1.28094,8.55235,0.03624,0.01576,0.09927,296.43851,-5.82201,-2.32147,0.03624
2018.03.30 20:36:22,24.9,9.9,-26.7,-0.48125,1.10376,10.1613,-0.20261,0.14099,-0.04062,296.51328,-5.6146,-2.6097,1018.39038
2018.03.30 20:36:22,25.32,9.12,-28.14,-0.82842,1.23784,9.99131,0.05151,-0.03861,-0.08215,297.10052,-6.04276,-2.73653,1018.39893
2018.03.30 20:36:23,24.72,8.64,-28.02,0.06704,0.89306,10.74311,0.00692,-0.07648,-0.04917,297.01526,-6.68326,-2.00997,0.00692
2018.03.30 20:36:23,24.6,10.32,-27.6,-0.07662,0.30168,10.8317,-0.09448,-0.13818,-0.07177,298.3067,-4.80917,-1.45061,-0.09448
2018.03.30 20:36:23,24.66,10.62,-28.56,0.05746,0.05986,10.01286,-0.10303,0.05119,-0.32345,299.15833,-4.81081,-0.95264,-0.10303
2018.03.30 20:36:23,24.54,11.1,-27.6,-0.33041,0.91461,9.13895,0.00753,0.05546,-0.13835,300.13321,-4.4044,-1.26135,0.00753
2018.03.30 20:36:23,23.94,10.56,-27.9,0.30168,1.0463,9.37837,0.09,-0.00501,0.01497,299.90973,-5.06584,-1.06156,0.09
2018.03.30 20:36:23,24.78,10.86,-28.68,-0.2107,1.34319,10.19722,0.01242,0.04752,-0.01007,299.95215,-5.86389,-0.7651,0.01242
2018.03.30 20:36:23,24.6,10.62,-29.04,0.28971,1.36234,10.25468,0.15719,0.02309,0.23061,298.97363,-7.25484,-0.4394,1018.41528
2018.03.30 20:36:23,25.86,10.08,-29.16,0,0.24182,11.97856,-0.13358,-0.0215,-0.04611,298.23376,-6.68322,-0.30335,1018.41382
2018.03.30 20:36:23,25.68,10.08,-27.96,-0.4621,0.64645,9.51964,0.16452,-0.04044,0.08156,297.86209,-6.77112,-0.2487,1018.40796
2018.03.30 20:36:24,24.84,9.84,-28.32,-0.20112,0.80208,9.6202,-0.05416,-0.16261,0.14631,296.72485,-7.15715,0.021,1018.4082
2018.03.30 20:36:24,26.28,10.32,-29.22,-0.44294,1.13489,8.80375,-0.01568,0.19108,0.01131,296.71399,-6.26647,-0.35942,1018.41016
2018.03.30 20:36:24,26.1,10.2,-27.84,-0.66082,1.0463,10.21877,-0.1293,-0.01173,-0.10598,297.04166,-5.88542,-1.16944,-0.1293
2018.03.30 20:36:24,26.46,11.28,-27.9,-0.31604,1.43178,9.81413,0.02403,0.11655,0.03025,297.2757,-6.02723,-1.82275,1018.4187
2018.03.30 20:36:24,26.28,10.8,-28.8,0.10535,1.73345,10.65452,0.11932,-0.16017,0.0785,297.06186,-6.95226,-1.23666,1018.40894
2018.03.30 20:36:24,25.26,12.12,-26.16,-0.57941,-0.56265,12.43586,-0.56546,-0.09664,-0.36315,298.49448,-5.22658,-0.3058,-0.56546
2018.03.30 20:36:24,26.1,12.78,-28.38,0.67758,0.57223,9.09106,0.14681,-0.09175,-0.15607,298.78088,-5.01149,0.23394,0.14681
2018.03.30 20:36:24,25.62,13.14,-28.32,-0.70392,0.26337,9.72554,-0.04073,0.0744,-0.34727,300.58115,-4.78455,-0.16455,1018.41309
2018.03.30 20:36:24,27.6,12.54,-28.5,-0.08141,1.02954,8.75586,0.15475,0.14709,0.02536,300.74429,-5.39066,-1.32809,0.15475
2018.03.30 20:36:24,28.08,12.42,-27.18,-0.13887,1.17319,9.75188,-0.08654,0.08967,-0.03084,300.7673,-5.39121,-1.72345,-0.08654
2018.03.30 20:36:25,26.82,13.14,-26.94,0.28492,1.20193,10.40552,-0.0615,-0.027,0.15364,300.19232,-5.79689,-1.40221,-0.0615
2018.03.30 20:36:25,26.94,12.42,-26.28,0.40942,0.84278,11.77983,-0.40663,-0.07832,-0.08338,299.32333,-5.97303,-0.8249,-0.40663
2018.03.30 20:36:25,27,13.5,-26.46,-0.51956,-0.38069,12.22996,-0.25025,-0.04044,-0.15424,300.13638,-4.3579,-0.49026,-0.25025
2018.03.30 20:36:25,26.4,13.14,-25.56,-0.2945,0.11971,10.05595,0.12176,0.00659,0.21473,298.99399,-5.17788,-0.36126,1018.41357
2018.03.30 20:36:25,27.3,12.9,-26.04,-0.45491,0.54111,9.37598,-0.00285,0.07501,-0.00946,298.81036,-4.36068,-0.35272,1018.41235
2018.03.30 20:36:25,27.84,12.72,-25.2,-0.35435,1.18517,8.97614,-0.06821,0.01331,-0.01985,298.67535,-4.37246,-1.11526,1018.41431
2018.03.30 20:36:25,27.06,12.6,-25.14,-0.44773,1.31925,9.96976,-0.07432,0.11716,-0.07788,299.0296,-4.55136,-1.75259,-0.07432
2018.03.30 20:36:25,27.3,12.66,-24.6,-0.2514,1.10137,10.33369,0.09122,-0.04411,-0.01374,299.35907,-5.47433,-1.71485,1018.39844
2018.03.30 20:36:25,27,12.3,-25.68,0.32083,0.37111,11.14056,-0.1965,-0.10336,-0.20799,299.89752,-5.53859,-1.29589,1018.3999
2018.03.30 20:36:26,27.18,13.26,-23.94,0.64167,-0.03113,9.96976,0.1407,-0.0887,-0.0736,301.29703,-4.40552,-1.08239,0.1407
2018.03.30 20:36:26,26.7,14.1,-24.66,-0.60815,0.11014,9.41429,0.0228,0.04203,-0.26114,302.6463,-4.5852,-1.06507,0.0228
2018.03.30 20:36:26,27.06,14.22,-23.88,-0.3759,0.91461,8.9905,0.04052,0.03531,-0.0339,302.79938,-4.64222,-1.38352,1018.40503
2018.03.30 20:36:26,26.34,12.96,-23.34,-0.17239,0.85715,9.56273,0.0002,0.0011,-0.00824,302.47476,-4.89202,-1.51751,0.0002
2018.03.30 20:36:26,27.6,12.84,-24,-0.14126,1.35516,10.13736,0.05579,0.00476,0.1964,301.5275,-5.19597,-1.80708,0.05579
2018.03.30 20:36:26,27.96,11.76,-24.42,0.15084,1.61614,9.99131,0.09733,0.14954,0.22572,299.71988,-6.27659,-1.56145,0.09733
2018.03.30 20:36:26,27.66,11.64,-23.58,-0.22985,-0.24422,12.31376,-0.31012,-0.05755,-0.12858,299.42477,-5.25372,-1.44264,-0.31012
2018.03.30 20:36:26,28.08,10.68,-23.46,0.1269,0.84997,8.97614,0.38016,-0.07954,0.24222,298.34558,-6.24806,-1.23723,0.38016
2018.03.30 20:36:26,28.5,10.5,-23.4,-0.58899,0.30647,10.42946,-0.14213,-0.09053,-0.09193,298.1564,-5.5224,-0.54945,-0.14213
2018.03.30 20:36:26,27.54,10.44,-23.22,-0.419,1.0463,8.81811,-0.01079,-0.08503,-0.01618,298.04529,-5.13382,-0.85697,-0.01079
2018.03.30 20:36:27,28.2,11.52,-22.68,-0.34238,1.1277,9.73752,-0.08532,-0.10947,-0.14813,298.2655,-4.70209,-1.0976,1018.40869
2018.03.30 20:36:27,27.78,11.58,-23.16,-0.26098,1.10137,10.74551,-0.1122,-0.05327,-0.13835,298.89273,-5.09637,-0.91215,1018.40503
2018.03.30 20:36:27,27.3,11.46,-23.58,0.14845,0.05507,12.1677,-0.03523,-0.02761,-0.14813,299.43314,-5.26332,-0.53938,1018.41504
2018.03.30 20:36:27,26.46,12.42,-22.68,-0.50759,-0.13169,10.68565,-0.00774,0.0744,0.03452,300.33774,-3.6033,-0.5894,1018.42065
2018.03.30 20:36:27,27.66,12.42,-22.86,0.39745,0.2514,10.15412,0.07839,0.14954,-0.25014,300.2283,-4.31664,-0.97917,0.07839
2018.03.30 20:36:27,28.08,11.82,-22.08,-0.249,0.84518,9.20359,0.2024,0.09028,0.07973,300.52502,-5.06186,-1.85107,0.2024
2018.03.30 20:36:27,28.5,11.52,-23.1,0.17478,1.02954,8.78938,0.17674,0.0011,0.09255,299.64163,-6.05683,-1.89891,1018.40894
2018.03.30 20:36:27,27.9,10.92,-22.32,-0.09098,1.56107,9.22514,-0.01079,-0.07832,0.06568,298.79257,-6.33922,-1.50648,-0.01079
2018.03.30 20:36:27,28.8,10.56,-21.66,-0.09338,1.65205,10.01525,-0.0114,0.0744,0.14753,297.5152,-6.79709,-1.50398,-0.0114
2018.03.30 20:36:28,29.34,10.14,-21.66,-0.28492,-0.51477,12.5867,-0.41458,-0.08198,-0.13408,296.8176,-5.25136,-1.5586,-0.41458
2018.03.30 20:36:28,29.16,10.62,-21.84,-0.419,1.20671,7.28817,0.19262,0.02675,0.30758,295.60144,-6.08954,-1.75089,0.19262
2018.03.30 20:36:28,29.82,8.76,-21.48,-0.60815,-0.1652,11.37999,-0.12441,-0.18277,0.12126,294.23517,-5.7215,-1.13059,-0.12441
2018.03.30 20:36:28,29.22,9.06,-20.58,-0.71828,0.98165,8.26743,0.10649,0.00476,0.14142,293.21021,-5.61504,-1.62823,1018.39233
2018.03.30 20:36:28,29.94,7.74,-21.06,-0.43336,1.01278,11.6697,-0.06699,-0.07893,0.08461,292.36871,-5.33269,-2.08324,1018.39087
2018.03.30 20:36:28,29.82,8.1,-21.9,-0.3759,1.20193,9.97215,0.08817,0.02798,-0.00457,291.89886,-5.67997,-2.40006,1018.39478
2018.03.30 20:36:28,29.52,8.04,-20.82,0.43815,0.71828,10.57551,0.03869,-0.05266,-0.09132,291.60297,-6.46394,-1.88417,0.03869
2018.03.30 20:36:28,29.76,8.76,-21.72,-0.52195,0.35196,10.17806,-0.3993,0.00232,-0.24098,292.37555,-4.54239,-1.35392,1018.39722
2018.03.30 20:36:28,29.1,9,-21.42,0.35435,0.40463,9.59386,0.0002,-0.07221,-0.12919,292.46167,-4.39277,-0.8539,1018.39844
2018.03.30 20:36:29,29.52,9.06,-21.72,-0.49801,0.62969,9.4095,-0.04073,0.04997,-0.17501,293.59912,-4.08658,-1.42151,-0.04073
2018.03.30 20:36:29,29.4,9.9,-21.84,0.11971,0.93856,9.17247,-0.02301,0.03225,-0.01313,293.45279,-4.19773,-1.62502,-0.02301
2018.03.30 20:36:29,28.68,9.3,-21.78,-0.17478,1.49882,9.85005,-0.05722,-0.01479,-0.03695,293.33865,-4.97945,-1.3478,-0.05722
2018.03.30 20:36:29,28.74,9.72,-20.46,-0.23464,1.49882,10.55396,0.04968,0.02675,0.07056,293.00488,-6.113,-1.23702,0.04968
2018.03.30 20:36:29,28.86,10.02,-20.52,-0.01197,1.01996,11.21478,-0.29546,0.04386,0.0443,292.48804,-6.39678,-1.23661,-0.29546
2018.03.30 20:36:29,29.46,10.38,-21.96,-1.02954,0.61293,8.14053,0.15231,0.26071,0.21656,292.56537,-6.0607,-1.04453,0.15231
2018.03.30 20:36:29,29.76,9.72,-20.88,-0.51237,-0.35196,12.03602,-0.26919,-0.0154,0.11882,291.43091,-5.42798,-0.93907,1018.41113
2018.03.30 20:36:29,28.92,9.18,-21.18,-0.51237,1.09418,8.17645,0.09733,-0.00684,0.21045,290.49991,-4.97342,-1.27968,1018.41064
2018.03.30 20:36:29,28.74,8.46,-20.88,-0.26816,1.0032,9.39035,-0.07493,-0.08198,0.14692,289.60953,-4.87538,-1.0251,1018.40674
2018.03.30 20:36:30,29.28,9.42,-20.58,-0.42379,0.98165,10.34087,0.16575,-0.09786,0.05773,289.4566,-5.12279,-1.20874,1018.41699
2018.03.30 20:36:30,29.22,9,-20.58,0.22746,0.8356,9.62977,0.30319,0.1025,-0.03512,289.58136,-6.26826,-2.23028,1018.40845
2018.03.30 20:36:30,29.28,9.36,-19.68,-0.70152,0.30647,10.77424,0.01059,0.00782,-0.22876,291.76321,-4.63557,-2.38077,0.01059
2018.03.30 20:36:30,28.8,10.5,-20.28,0.1652,-0.02155,9.93385,0.13093,-0.12047,-0.16523,293.03345,-4.9406,-2.05357,1018.40552
2018.03.30 20:36:30,28.68,11.76,-19.5,-0.73025,0.68476,8.91149,0.05762,0.12694,-0.06627,294.27615,-4.54252,-2.37994,1018.40942
2018.03.30 20:36:30,28.8,10.74,-19.62,-0.02634,0.92898,9.39035,0.04968,-0.0154,0.10294,293.72491,-5.01201,-2.30732,0.04968
2018.03.30 20:36:30,27.72,10.92,-19.68,-0.15802,1.12291,9.69442,0.00326,0.1306,0.05285,293.48047,-5.13374,-2.35282,0.00326
2018.03.30 20:36:30,28.5,10.44,-18.9,-0.02873,1.35755,10.87719,0.05518,-0.00562,0.13898,292.80356,-5.98854,-2.03144,0.05518
2018.03.30 20:36:30,28.38,9.66,-19.14,0.03352,0.91222,12.20601,0.07717,-0.02456,0.07911,292.38721,-6.51137,-1.53106,0.07717
2018.03.30 20:36:30,28.08,10.2,-17.52,-0.8787,-0.11732,11.46858,0.19934,-0.19255,0.00215,293.0553,-6.21674,-0.77607,0.19934
2018.03.30 20:36:31,27.96,8.4,-18.66,0,0.69195,8.83727,0.01975,-0.1504,0.27765,291.17218,-7.69137,0.37344,0.01975
2018.03.30 20:36:31,28.08,8.82,-19.68,-0.68716,0.53153,9.73512,0.00509,0.06829,-0.04,291.1868,-6.08435,0.87776,0.00509
2018.03.30 20:36:31,28.08,8.94,-19.86,-0.52674,1.19953,8.33686,-0.10487,0.01026,0.04857,290.90839,-5.46265,0.31924,-0.10487
2018.03.30 20:36:31,27.3,9.6,-19.38,-0.11971,1.35755,10.40791,-0.191,0.15931,0.07056,290.46234,-4.83723,-0.50472,1018.40088
2018.03.30 20:36:31,28.8,8.4,-19.32,0.14845,1.42699,10.47256,0.08023,-0.07037,0.00092,290.25247,-6.02181,-0.56026,1018.40137
2018.03.30 20:36:31,28.02,9.42,-19.62,-0.0838,-0.18436,12.11982,-0.59173,-0.06549,-0.43585,291.21478,-5.86943,0.36164,1018.40601
2018.03.30 20:36:31,28.26,10.5,-19.02,0.2921,0.21788,9.83808,0.17308,-0.11252,0.08644,292.60895,-3.71296,0.52758,0.17308
2018.03.30 20:36:31,28.8,10.92,-19.32,-0.04549,-0.26576,9.61062,0.11016,0.05546,-0.19333,293.24838,-4.05617,0.36959,1018.41626
2018.03.30 20:36:31,28.14,11.64,-19.02,0.09338,0.54111,8.77262,0.07412,0.1196,-0.04245,293.99139,-3.88079,-0.49584,1018.41309
2018.03.30 20:36:32,27.84,11.88,-18.72,0.06465,0.63688,9.44063,-0.10426,0.08356,-0.10109,294.26849,-3.6647,-0.52881,-0.10426
2018.03.30 20:36:32,29.34,11.76,-19.26,-0.55308,1.14686,10.48932,-0.06944,0.03836,-0.01862,294.68472,-3.16342,-0.79798,-0.06944
2018.03.30 20:36:32,28.74,11.52,-18.54,-0.04549,1.08221,11.15493,0.34778,-0.05816,0.1683,293.99493,-4.93745,-0.29414,0.34778
2018.03.30 20:36:32,28.98,10.92,-18.54,-0.20112,-0.50998,11.708,-0.22887,-0.10275,0.05346,293.45068,-4.60754,0.25563,-0.22887
2018.03.30 20:36:32,30.54,10.98,-18.66,-0.47646,0.43815,7.86998,0.35389,0.1361,0.32651,292.05753,-4.92536,-0.08881,0.35389
2018.03.30 20:36:32,30.36,10.2,-19.32,-0.23464,-0.28971,11.83011,-0.19955,-0.03739,0.18724,290.65262,-3.76369,0.13633,-0.19955
2018.03.30 20:36:32,30.96,10.14,-18.66,-0.15323,1.14686,8.52601,0.20606,0.06768,0.15731,289.49475,-4.58765,-0.17748,0.20606
2018.03.30 20:36:32,32.28,8.46,-18.84,-0.11493,1.18038,10.63537,-0.09204,0.03714,-0.09681,289.23749,-4.79775,-0.51514,-0.09204
2018.03.30 20:36:32,30.72,9.66,-17.22,-0.0838,1.17798,10.60664,-0.01018,-0.07465,-0.12308,289.86664,-5.32573,-0.30008,1018.40186
2018.03.30 20:36:32,31.26,8.7,-19.98,0.10535,1.45332,10.20919,0.1914,-0.20476,0.02536,289.85559,-6.54785,0.53581,1018.40405
2018.03.30 20:36:33,32.76,10.08,-19.44,-0.4597,-0.36632,12.01926,-0.0615,-0.15834,-0.05283,290.96286,-4.93161,0.27396,-0.0615
2018.03.30 20:36:33,31.26,9.12,-19.38,0.53153,0.26816,8.51883,0.10527,0.1587,-0.40347,291.43488,-6.42134,0.12608,0.10527
2018.03.30 20:36:33,31.8,11.28,-19.32,-0.20591,0.61054,9.34964,-0.12564,0.10067,-0.40041,293.50366,-5.45534,-0.51043,1018.42236
2018.03.30 20:36:33,32.64,11.16,-18.66,0.33759,1.43178,9.05036,0.02097,0.06096,-0.03328,293.92279,-5.29846,-0.82702,0.02097
2018.03.30 20:36:33,32.52,10.74,-18.78,-0.17957,1.47966,9.7854,-0.08837,0.00721,-0.07421,294.10901,-5.9774,-0.5661,-0.08837
2018.03.30 20:36:33,33.24,10.56,-18.18,0.1269,1.31446,10.75987,0.09061,0.0011,0.18663,293.42456,-6.93121,-0.69307,0.09061
2018.03.30 20:36:33,32.58,9.48,-19.14,0.11253,0.81884,11.92828,-0.30645,-0.06671,-0.17745,292.65958,-6.41919,-0.5862,-0.30645
2018.03.30 20:36:33,34.32,9,-18.84,-0.44294,0.96968,7.53239,0.31052,0.1196,0.18663,291.70636,-7.23836,-1.00057,0.31052
2018.03.30 20:36:33,33,8.52,-18.3,-0.67519,0.14366,10.61382,-0.12258,-0.10519,-0.00396,290.7843,-6.92542,-1.18158,-0.12258
2018.03.30 20:36:34,34.98,8.04,-17.34,-0.49801,1.19714,8.70798,0.02219,0.17031,0.07606,290.30624,-6.20043,-1.95481,0.02219
2018.03.30 20:36:34,34.02,7.14,-17.34,-0.68476,1.24263,9.60344,-0.10364,-0.05877,-0.01252,289.84845,-5.99627,-2.4739,-0.10364
2018.03.30 20:36:34,33.66,8.76,-17.82,-0.75659,1.13967,10.15651,-0.05172,-0.05388,-0.02534,289.6217,-5.99206,-2.61797,-0.05172
2018.03.30 20:36:34,33.6,5.76,-18.78,0.55068,0.87391,9.78301,0.1688,-0.15223,0.09866,288.87695,-6.57614,-2.13521,1018.41187
2018.03.30 20:36:34,33.66,7.68,-17.76,-0.4621,-0.32323,11.05916,-0.20932,-0.14307,-0.08826,289.39853,-4.3278,-1.84434,1018.41284
2018.03.30 20:36:34,32.88,6.9,-18.6,0.4166,0.27055,9.73752,-0.0224,-0.02212,-0.09437,288.41556,-4.48318,-1.11238,1018.41089
2018.03.30 20:36:34,33.3,6.66,-18.48,-0.21548,0.56984,9.4502,0.04968,0.06218,-0.09071,288.86462,-3.94632,-1.23872,0.04968
2018.03.30 20:36:34,32.88,6.72,-18.3,0.0431,0.668,9.23232,0.01731,0.0408,-0.14019,289.11557,-3.98667,-1.41438,1018.41724
2018.03.30 20:36:34,33.36,7.08,-18.06,-0.18196,1.20193,9.78061,-0.06027,0.04936,0.01864,289.01743,-3.82032,-1.73779,1018.41528
2018.03.30 20:36:35,32.88,7.32,-17.7,-0.16042,1.37671,10.77424,0.08023,0.01942,0.08278,288.159,-4.96545,-1.38405,0.08023
2018.03.30 20:36:35,32.1,6,-17.7,-0.18436,0.9194,11.459,-0.33211,-0.1394,-0.09681,287.30408,-5.4413,-1.31443,-0.33211
2018.03.30 20:36:35,33.06,6.36,-17.7,-0.50759,0.69673,7.62098,0.35573,-0.10275,0.20434,286.88321,-5.44573,-1.55647,0.35573
2018.03.30 20:36:35,32.94,5.64,-17.94,-0.67279,-0.22746,9.96737,-0.03584,-0.03739,0.0669,285.95377,-5.24158,-1.26838,-0.03584
2018.03.30 20:36:35,32.7,5.76,-17.64,-0.89306,0.76377,8.62897,0.04602,0.07318,0.08583,285.37326,-4.06921,-1.70925,0.04602
2018.03.30 20:36:35,32.7,4.8,-17.04,-0.73025,0.86194,8.94501,-0.10914,-0.08381,0.15853,284.32297,-3.67363,-2.75148,-0.10914
2018.03.30 20:36:35,32.16,4.14,-17.88,-0.22027,1.03912,9.83089,0.13581,0.0011,0.07973,283.34927,-3.63068,-2.98326,0.13581
2018.03.30 20:36:35,31.2,3.96,-18.06,-0.02155,1.02475,11.04,0.1633,-0.13329,0.01253,282.82141,-4.95368,-2.05631,0.1633
2018.03.30 20:36:35,31.74,3.72,-17.88,-0.47646,0.0838,11.4566,-0.12625,-0.05632,-0.24587,283.28589,-5.03541,-1.96911,-0.12625
2018.03.30 20:36:35,31.62,4.32,-17.94,0.68955,0.1652,9.16289,0.04235,-0.00562,-0.18417,283.72205,-5.22994,-1.86689,0.04235
2018.03.30 20:36:36,32.58,5.1,-18.78,-0.3759,0.63209,9.89554,-0.03523,-0.02395,-0.15424,285.0769,-4.17803,-1.71154,1018.41846
2018.03.30 20:36:36,30.48,4.86,-18.96,0.02634,0.7949,9.41429,0.02708,-0.02395,-0.06322,285.05637,-4.61811,-1.55492,0.02708
2018.03.30 20:36:36,30.3,4.98,-18.12,-0.1245,1.10615,9.49809,-0.03584,0.0854,-0.05283,285.10712,-4.61826,-1.53205,1018.41919
2018.03.30 20:36:36,31.14,5.1,-18.06,-0.07901,1.29291,10.51087,0.0393,-0.00562,0.10416,284.32349,-5.2696,-1.61722,1018.41992
2018.03.30 20:36:36,30.78,4.5,-18.36,0.43336,0.90743,11.48534,-0.10181,0.01881,0.16464,283.07263,-5.90824,-1.23209,-0.10181
2018.03.30 20:36:36,30.48,4.74,-18.54,-0.43097,-0.15563,10.22595,0.1407,-0.11313,0.0388,283.24902,-4.90142,-0.37706,0.1407
2018.03.30 20:36:36,30.24,4.5,-18.6,-0.40703,0.06943,9.85962,-0.11586,-0.14918,-0.02046,282.55579,-4.86899,-0.09374,-0.11586
2018.03.30 20:36:36,29.76,4.44,-19.08,-0.79011,0.2921,9.46457,-0.1122,0.0011,-0.08276,282.59686,-2.71194,-0.85338,-0.1122
2018.03.30 20:36:36,30.3,3.84,-18.6,-0.57463,0.88828,9.39513,-0.0395,0.05485,0.07423,281.95413,-2.77213,-2.09483,-0.0395
2018.03.30 20:36:37,29.34,4.5,-18,-0.60336,0.97686,10.44862,-0.06088,0.08601,0.01375,281.44016,-2.99203,-2.88411,-0.06088
2018.03.30 20:36:37,31.08,4.68,-17.82,-0.59857,0.90982,10.82691,0.20301,-0.11008,0.10721,281.1698,-4.21172,-2.92452,0.20301
2018.03.30 20:36:37,30.18,3.96,-19.5,-0.76617,-0.46449,11.7535,-0.25636,-0.07648,-0.2141,281.40677,-3.40497,-2.36506,1018.40991
2018.03.30 20:36:37,30,4.56,-19.8,0.86673,0.17239,9.22514,0.11688,-0.07648,0.05957,281.5705,-3.20823,-1.91191,1018.40942
2018.03.30 20:36:37,30.12,5.16,-20.34,-0.12211,0.07183,9.52921,-0.02545,0.13243,-0.25381,282.9321,-2.93925,-1.85638,1018.41113
2018.03.30 20:36:37,30.12,5.46,-20.46,0.24422,0.78772,9.17007,0.06984,-0.05266,0.06323,282.93115,-3.06519,-1.69936,1018.40869
2018.03.30 20:36:37,29.34,5.4,-20.34,-0.10295,0.98884,9.71357,-0.02301,0.07318,-0.11331,283.07251,-3.49193,-0.95434,-0.02301
2018.03.30 20:36:37,29.52,5.7,-20.1,-0.13887,1.28812,10.24031,0.02647,0.04508,0.00825,283.37094,-4.24424,-1.11989,0.02647
2018.03.30 20:36:37,29.34,5.1,-19.8,0.0838,1.12052,10.35045,-0.11159,0.02431,0.14509,282.62207,-5.44096,-1.1287,-0.11159
2018.03.30 20:36:38,29.22,5.58,-21.06,-0.53392,-0.36632,11.5835,-0.14579,-0.02517,-0.10292,282.93372,-3.91107,-0.78513,-0.14579
2018.03.30 20:36:38,28.26,5.28,-18.54,-0.57463,0.05267,9.14374,0.29158,0.09089,0.28437,281.69122,-4.47658,-1.40151,0.29158
2018.03.30 20:36:38,30.24,4.14,-21.24,-0.7542,0.10774,10.38636,-0.08654,-0.00684,0.00886,281.49881,-3.50761,-1.20837,-0.08654
2018.03.30 20:36:38,30.12,3.78,-20.94,-0.4597,0.82602,8.47813,0.03685,0.00293,0.12798,280.77933,-3.58012,-1.91624,0.03685
2018.03.30 20:36:38,29.22,3.54,-20.52,-0.44534,1.11094,9.38795,-0.0676,-0.02395,0.03086,280.49536,-3.56072,-2.22079,-0.0676
2018.03.30 20:36:38,29.52,4.2,-21.06,-0.39027,0.91222,11.01127,-0.05416,0.02064,-0.02901,280.82251,-3.68377,-2.73189,1018.42334
2018.03.30 20:36:38,27.96,3.96,-21.3,0.22027,0.61293,12.0863,-0.14274,0.05546,-0.21716,281.28922,-3.57945,-2.42495,1018.41187
2018.03.30 20:36:38,28.14,4.56,-20.94,0.02394,-0.07183,10.11581,0.3038,-0.0606,-0.04062,282.46939,-3.43784,-1.49388,1018.41382
2018.03.30 20:36:38,27.78,5.16,-21.54,-0.24422,-0.2921,9.37837,-0.04683,-0.01295,-0.16829,283.41113,-4.12393,-1.42286,-0.04683
2018.03.30 20:36:39,27.78,4.92,-21.84,-0.38069,0.49322,9.44063,-0.00591,0.09822,0.00276,283.52359,-3.43135,-1.74348,1018.40991
2018.03.30 20:36:39,27,5.76,-20.82,0.12211,1.22108,8.9067,-0.00591,0.06279,0.09744,282.8891,-3.43784,-1.66283,1018.40161
2018.03.30 20:36:39,27.24,4.38,-21.66,0.11732,1.38389,9.87399,0.03624,0.05546,0.09378,282.51483,-4.11324,-0.98954,0.03624
2018.03.30 20:36:39,26.76,4.32,-20.94,0.28252,1.19474,10.88198,0.06434,-0.03678,0.10538,281.95547,-5.32941,-0.32593,1018.40698
2018.03.30 20:36:39,26.34,4.38,-20.94,0,0.79729,11.43266,-0.04378,0.06463,0.0614,281.68961,-5.87223,0.09634,1018.41382
2018.03.30 20:36:39,25.86,3.54,-22.14,-0.65843,0.23943,8.75347,-0.03217,0.04936,-0.00763,281.68433,-4.21497,-0.47866,-0.03217
2018.03.30 20:36:39,26.4,2.64,-20.7,-0.41421,0.25619,10.45101,-0.06394,-0.18216,0.09133,280.7392,-4.33554,-0.31307,-0.06394
2018.03.30 20:36:39,24.84,3,-21.18,-0.26337,0.79969,9.11979,0.04418,0.1025,0.084,280.3544,-4.10672,-0.92171,0.04418
2018.03.30 20:36:39,24.72,2.64,-20.88,-0.35914,1.18277,9.59625,-0.03156,0.00904,-0.00396,279.99152,-4.34202,-1.35178,-0.03156
2018.03.30 20:36:39,25.2,2.52,-21,-0.65124,0.88109,10.10863,0.0002,0.03103,-0.05772,280.27261,-4.85634,-2.00742,0.0002
2018.03.30 20:36:40,25.14,3.72,-21.48,-0.15323,1.15404,9.86202,0.18774,-0.00257,0.08217,280.49503,-5.68582,-2.37381,1018.40942
2018.03.30 20:36:40,24.42,4.32,-22.02,-0.65364,-0.42618,10.57312,-0.25209,-0.00868,-0.21105,282.26035,-3.80924,-2.07876,1018.41504
2018.03.30 20:36:40,23.34,4.68,-21.78,0.20351,-0.0838,9.63217,-0.04806,-0.10825,-0.24953,282.73889,-3.98681,-1.15726,1018.40625
2018.03.30 20:36:40,23.04,5.94,-21.12,-0.58899,0.39506,9.40471,-0.00285,0.0854,-0.03328,284.50934,-2.79828,-1.29306,-0.00285
2018.03.30 20:36:40,23.22,6.3,-22.8,0.22985,0.82363,9.59865,0.01792,-0.01906,0.0614,284.7052,-2.91704,-1.35615,1018.40527
2018.03.30 20:36:40,23.46,5.76,-22.14,0.05028,0.90025,9.96497,-0.03278,0.08662,-0.09254,285.32294,-3.32808,-1.15009,1018.40161
2018.03.30 20:36:40,22.8,6.36,-22.2,-0.32323,1.0439,10.59227,0.10527,0.07379,-0.01862,285.94449,-4.63417,-1.17891,0.10527
2018.03.30 20:36:40,23.22,6.18,-23.58,0.21309,1.2546,10.43904,-0.18978,0.11105,0.11516,285.52313,-5.937,-1.23608,-0.18978
2018.03.30 20:36:40,23.76,6.66,-22.14,-0.9625,-0.49083,10.85085,-0.14641,-0.12963,-0.16034,286.33511,-4.65897,-0.99896,1018.40625
2018.03.30 20:36:41,23.82,7.44,-23.04,-0.40942,0.31126,8.55235,0.1969,0.00843,0.24893,285.59848,-5.28851,-1.15463,0.1969
2018.03.30 20:36:41,24.48,7.32,-23.4,-0.31126,0.52674,9.77822,0.04235,-0.04411,0.02475,285.97424,-4.35744,-0.70954,0.04235
2018.03.30 20:36:41,23.82,7.02,-23.46,-0.50998,1.14207,9.12937,-0.05294,0.01881,-0.01557,286.60944,-4.48418,-1.43602,-0.05294
2018.03.30 20:36:41,24.06,7.86,-23.82,-0.6704,1.09418,10.32172,-0.07493,0.04997,-0.05833,287.57303,-4.42168,-1.81824,-0.07493
2018.03.30 20:36:41,24.48,8.34,-23.58,-0.45012,1.19953,9.98413,0.00692,-0.02761,0.00581,288.16388,-4.92303,-2.09713,0.00692
2018.03.30 20:36:41,23.52,9.12,-23.16,1.13249,0.74223,10.33369,0.03991,-0.13207,0.1683,288.19891,-5.4986,-1.16495,0.03991
2018.03.30 20:36:41,22.92,10.38,-23.64,-0.40463,-0.26337,11.17647,-0.1238,-0.0887,0.00031,289.87106,-3.31294,-0.34429,-0.1238
2018.03.30 20:36:41,24.36,10.32,-24.6,0.36872,-0.19394,10.2858,-0.01935,0.07807,-0.28985,290.64484,-3.43328,0.38907,1018.41846
2018.03.30 20:36:41,24.48,10.98,-24.12,-0.11971,0.42858,9.38795,0.06068,0.14587,-0.19516,292.50198,-3.44659,-0.19785,1018.42334
2018.03.30 20:36:41,25.08,11.4,-25.02,0.19872,1.0439,9.31852,0.16269,0.03653,-0.06688,293.40143,-4.48195,-0.44599,1018.4187
2018.03.30 20:36:42,25.38,11.04,-24.84,-0.13887,1.36953,9.71118,0.09489,0.06524,-0.01801,293.97635,-5.30782,-0.4532,1018.40625
2018.03.30 20:36:42,25.26,10.68,-24.72,0.1652,1.19714,9.98413,0.16208,0.02981,0.17013,293.69162,-6.57209,-0.52317,0.16208
2018.03.30 20:36:42,27.12,10.86,-24.36,0.19154,-0.33041,11.68885,-0.24353,-0.26891,0.01192,293.33939,-5.5336,-0.20717,-0.24353
2018.03.30 20:36:42,26.64,11.16,-24.72,-0.52435,0.45731,9.43823,-0.02668,0.02553,0.11088,292.90607,-4.8497,0.11297,1018.40039
2018.03.30 20:36:42,26.88,10.14,-24.6,-0.5004,-0.20112,11.75589,-0.26369,0.02981,0.00276,292.66534,-3.75559,0.00503,-0.26369
2018.03.30 20:36:42,27.84,10.8,-24.06,-0.25379,1.02475,8.54038,0.11382,0.07562,0.17746,291.99942,-3.89696,-0.66319,0.11382
2018.03.30 20:36:42,28.2,10.2,-23.1,-0.09338,1.03912,10.12539,-0.01202,-0.02578,0.01742,291.4765,-4.30304,-0.74676,-0.01202
2018.03.30 20:36:42,28.74,9.66,-22.68,-0.27774,0.89785,10.67368,0.06251,0.09028,-0.06566,291.8244,-4.92725,-1.01038,0.06251
2018.03.30 20:36:42,27.66,9.54,-24.48,0.56984,0.57941,10.37918,0.18102,-0.09298,-0.01435,292.36734,-5.74275,-0.60176,0.18102
2018.03.30 20:36:43,29.04,10.32,-24.24,-0.09338,0.28013,9.3257,0.01364,-0.02945,-0.03573,293.38159,-4.54419,-0.25313,0.01364
2018.03.30 20:36:43,29.28,10.44,-24.36,0.31604,-0.43576,10.31214,-0.13236,0.09151,-0.31184,294.09686,-4.34356,-0.1445,-0.13236
2018.03.30 20:36:43,29.52,10.8,-24.3,-0.12929,0.57463,9.08148,0.11138,-0.05449,0.09072,294.72272,-3.66261,-0.7778,1018.40283
2018.03.30 20:36:43,29.16,10.02,-24.66,0.64406,0.85954,9.38077,0.07167,-0.01967,0.07484,294.02405,-4.2444,-0.20849,1018.41187
2018.03.30 20:36:43,29.4,10.68,-24.54,-0.02634,1.4653,9.80934,-0.02179,0.05852,-0.051,294.08942,-4.58363,0.26425,1018.40576
2018.03.30 20:36:43,30.18,9.84,-24.78,-0.03113,1.09658,10.4534,0.079,0.03714,0.05712,293.81888,-5.63676,0.14916,1018.40527
2018.03.30 20:36:43,29.76,10.14,-23.4,0.1676,-0.14605,12.3353,-0.23987,-0.04289,-0.08704,293.35638,-5.05103,0.13196,-0.23987
2018.03.30 20:36:43,30.78,10.62,-24.06,-0.3783,0.52674,8.58587,0.15353,0.03714,0.16097,293.10095,-3.81866,0.13177,1018.40503
2018.03.30 20:36:43,30.72,9.78,-22.68,-0.62969,-0.38069,10.92986,-0.08532,-0.10336,0.00153,292.53723,-2.9729,-0.32974,1018.39966
2018.03.30 20:36:44,30.48,9.6,-24.6,-0.40224,0.67519,8.75107,0.07351,0.05119,0.20373,291.47641,-2.0938,-1.55499,0.07351
2018.03.30 20:36:44,31.2,8.16,-24.24,-0.05267,1.03672,9.27542,-0.10548,-0.03372,0.04246,290.30145,-2.65656,-1.47317,-0.10548
2018.03.30 20:36:44,31.2,8.76,-23.82,-0.56265,0.93856,10.21877,-0.13358,0.0689,-0.06383,290.29773,-2.92456,-1.87844,1018.41626
2018.03.30 20:36:44,31.32,8.82,-24.18,-0.35435,1.19714,10.6641,0.01059,-0.06488,0.0223,290.11337,-3.67306,-1.75862,0.01059
2018.03.30 20:36:44,31.02,10.14,-23.88,-0.1676,-0.33041,12.46699,-0.35776,0.05363,-0.18906,290.59479,-2.90494,-1.14723,-0.35776
2018.03.30 20:36:44,30.42,9.9,-24.24,1.18038,-0.45012,10.22595,0.21339,-0.1168,-0.14385,291.06509,-3.24299,-0.32856,0.21339
2018.03.30 20:36:44,30.78,11.28,-25.44,-0.2921,0.07662,9.30415,0.06129,0.11044,-0.21716,292.79276,-3.18356,-0.62219,0.06129
2018.03.30 20:36:44,30.84,11.4,-24,0.02634,0.81405,8.94262,0.14986,-0.01417,-0.02168,293.07126,-3.77125,-0.63031,0.14986
2018.03.30 20:36:44,32.1,10.62,-24.9,-0.15323,0.85236,9.2419,-0.03462,-0.0044,-0.08582,293.42752,-3.78997,-0.58291,1018.40649
2018.03.30 20:36:44,32.16,11.46,-23.94,0.01197,1.31685,9.99849,0.0002,0.00904,0.08522,293.10278,-4.1144,-0.83258,1018.41016
2018.03.30 20:36:45,32.4,10.98,-24.66,0.02394,1.49403,9.73273,0.09733,0.03225,0.16647,292.36841,-5.36113,-0.64054,1018.41431
2018.03.30 20:36:45,31.68,11.7,-23.82,-0.12211,-0.27774,11.46858,0.00509,-0.23286,-0.06505,292.2598,-4.51929,-0.01177,0.00509
2018.03.30 20:36:45,32.1,11.7,-24.72,0.13408,0.67997,8.35123,0.14253,0.03714,0.09866,291.80634,-4.97576,0.74434,1018.40747
2018.03.30 20:36:45,32.76,11.22,-24.96,-0.35914,-0.30886,11.29858,-0.26186,0.07929,0.04002,291.32492,-4.03511,0.63323,1018.41357
2018.03.30 20:36:45,33.84,11.34,-24.54,-0.22746,1.03433,8.68164,0.0564,0.04569,0.16219,290.70749,-3.66272,-0.21054,0.0564
2018.03.30 20:36:45,33.66,11.1,-23.64,-0.2945,1.0056,9.81413,-0.05233,-0.01173,0.084,289.97772,-3.94267,-0.6899,-0.05233
2018.03.30 20:36:45,35.82,10.92,-23.94,-0.31365,1.10615,10.1206,-0.04317,0.07929,0.05101,289.64822,-4.19691,-1.33864,1018.40942
2018.03.30 20:36:45,35.52,10.56,-23.1,0.28013,1.34558,10.60664,0.12176,-0.08015,0.14509,289.08112,-5.13232,-0.97847,0.12176
2018.03.30 20:36:45,35.34,11.76,-23.88,0.00239,-0.11971,11.51167,-0.36815,-0.03006,-0.24159,289.48755,-4.743,-0.43905,-0.36815
2018.03.30 20:36:46,36.42,12,-23.64,1.19953,0.23224,8.74389,0.18163,-0.09114,-0.03756,290.03052,-4.1114,0.12974,0.18163
2018.03.30 20:36:46,36.6,12,-24.54,-0.44534,-0.08141,9.65611,-0.0676,0.05363,-0.3656,291.53955,-3.51206,0.38752,-0.0676
2018.03.30 20:36:46,37.08,12.54,-23.82,0.06704,1.0463,8.96656,0.09733,0.04752,0.02108,291.74731,-3.63002,0.07506,0.09733
2018.03.30 20:36:46,37.44,12.66,-25.14,-0.10056,0.99841,9.50767,0.00509,0.06646,-0.06933,291.88333,-4.31077,-0.2853,0.00509
2018.03.30 20:36:46,38.94,13.56,-23.7,0.01676,1.38389,10.18764,0.05946,0.06524,0.04491,291.82822,-5.09175,-0.84327,1018.40698
2018.03.30 20:36:46,39.18,12.9,-23.1,0.30886,1.52994,10.85085,0.05946,0.08723,0.13043,290.97943,-6.38108,-0.65672,1018.41211
2018.03.30 20:36:46,40.14,13.68,-23.58,-0.69673,-0.70871,11.70561,0.09305,0.04264,-0.06261,291.62067,-4.75223,-0.11476,0.09305
2018.03.30 20:36:46,41.34,12.12,-24.3,-0.48604,0.21548,8.81572,-0.01446,-0.17361,0.12187,290.5509,-5.60274,-0.47088,-0.01446
2018.03.30 20:36:46,41.64,13.14,-24.24,-0.50759,0.39745,9.76146,-0.17878,-0.03739,0.01925,290.11942,-4.51662,-0.19963,1018.42554
2018.03.30 20:36:47,41.82,12.42,-24.72,-0.43097,1.11573,8.866,0.00631,0.0573,0.12982,289.33331,-4.67528,-1.21609,0.00631
2018.03.30 20:36:47,42.6,12.12,-24.66,-0.52195,1.2115,9.94342,-0.07921,0.15748,0.03941,288.94128,-4.94686,-1.87803,-0.07921
2018.03.30 20:36:47,43.62,11.7,-24.12,-0.249,0.96968,11.21718,0.02219,-0.04289,0.01375,288.70438,-5.42016,-2.25262,0.02219
2018.03.30 20:36:47,43.38,12.72,-25.44,-0.28013,-0.51237,12.7136,-0.28324,-0.04655,-0.25625,289.58264,-4.71983,-1.26332,-0.28324
2018.03.30 20:36:47,42.78,13.08,-24.96,0.66321,0.46688,8.62657,0.25554,-0.13574,0.08706,289.69586,-4.91675,-0.58419,0.25554
2018.03.30 20:36:47,42.48,12.12,-26.04,-0.42139,-0.08619,9.77582,-0.03217,-0.01662,-0.2251,290.42328,-4.87641,0.10631,-0.03217
2018.03.30 20:36:47,42.54,13.74,-27.06,0.30168,1.15883,9.09585,-0.01751,0.02614,0.07301,290.38141,-4.24515,0.04242,1018.40649
2018.03.30 20:36:47,42.36,13.02,-27.06,0.26337,1.35995,9.50048,-0.07921,0.10494,-0.07177,290.4859,-4.45976,0.15074,1018.39844
2018.03.30 20:36:47,42.84,13.26,-25.98,-0.1245,1.80768,10.06793,0.06434,0.15626,0.06934,290.56281,-5.67375,-0.15671,0.06434
2018.03.30 20:36:47,43.44,12.42,-26.22,0.09577,2.07105,9.61541,0.21339,-0.00196,0.19762,289.72363,-7.6826,-0.17894,1018.40552
2018.03.30 20:36:48,43.26,12.78,-26.22,-0.1676,-0.64645,12.10067,-0.191,-0.027,-0.18111,289.98413,-6.82962,-0.5295,1018.40991
2018.03.30 20:36:48,44.1,11.94,-26.7,-0.84997,0.47167,8.10223,0.21156,-0.01234,0.2581,289.34634,-7.08588,-0.80211,0.21156
2018.03.30 20:36:48,43.74,10.14,-27.54,-0.68476,0.11971,10.36721,0.04785,-0.01173,0.04491,288.2309,-6.06845,-0.42202,0.04785
2018.03.30 20:36:48,44.04,8.88,-28.14,-0.6273,1.2115,8.53798,0.02647,0.12144,0.12676,287.47052,-5.71645,-1.46865,1018.40771
2018.03.30 20:36:48,44.46,7.8,-28.44,-0.05028,1.27136,10.12778,-0.08959,0.00659,0.04307,286.54132,-5.54411,-1.91731,-0.08959
2018.03.30 20:36:48,44.28,8.46,-27.24,-0.42858,1.45811,9.7854,-0.00468,-0.02578,-0.0681,286.7532,-6.0885,-2.11889,-0.00468
2018.03.30 20:36:48,43.56,7.74,-28.38,0.70871,1.43656,10.44862,-0.12686,-0.18705,-0.03145,286.4845,-6.57469,-1.16616,-0.12686
2018.03.30 20:36:48,43.86,9.18,-29.94,-0.08859,-0.05746,11.84927,-0.30401,-0.14795,-0.39736,288.06677,-4.91624,-0.10169,-0.30401
2018.03.30 20:36:48,43.26,9.96,-30.06,0.46928,-0.2945,10.00567,0.18346,0.02309,-0.28863,289.43979,-5.46264,0.52316,0.18346
2018.03.30 20:36:49,42.3,11.28,-29.88,-0.31604,0.5866,8.92107,0.07839,0.06157,-0.22265,291.31714,-5.03833,0.29037,0.07839
2018.03.30 20:36:49,43.26,9.9,-31.14,-0.01676,1.33601,8.42545,0.04174,0.13854,-0.07605,291.28851,-5.51248,-0.15636,1018.41626
2018.03.30 20:36:49,44.1,11.88,-29.76,-0.39745,1.12531,10.31214,-0.1348,0.10189,0.01131,291.50992,-5.30384,-0.76186,-0.1348
2018.03.30 20:36:49,44.04,10.08,-30.48,0.45731,1.79092,11.05197,-0.00407,0.05302,0.21534,290.05096,-6.03283,-0.9116,1018.4021
2018.03.30 20:36:49,44.82,9.3,-30.24,-0.05267,0.81645,11.97377,-0.11098,0.21368,0.01558,289.09213,-6.23558,-1.27431,1018.40015
2018.03.30 20:36:49,45.6,8.82,-28.5,-0.90743,0.39984,8.40151,0.23294,0.1697,0.14387,288.48285,-6.051,-2.03353,0.23294
2018.03.30 20:36:49,45.18,7.2,-29.28,-0.62012,-0.11253,10.16609,-0.01812,-0.01356,0.10294,286.99207,-5.88121,-1.68802,-0.01812
2018.03.30 20:36:49,45.72,6.42,-29.64,-1.02714,0.90025,8.4063,-0.04378,-0.01906,0.24283,285.88348,-5.03361,-2.61303,-0.04378
2018.03.30 20:36:49,45,4.62,-30.36,-0.05986,1.22347,9.85484,-0.05172,-0.11436,0.21473,284.03964,-4.75912,-2.66699,-0.05172
2018.03.30 20:36:50,44.16,5.58,-30.12,-0.51477,1.56346,9.59865,-0.00041,0.02553,-0.04795,283.71545,-5.22884,-2.49394,-0.00041
2018.03.30 20:36:50,44.88,3.72,-31.32,0.10056,1.27136,10.44143,0.13948,-0.03617,-0.01435,283.56857,-5.97006,-1.72034,0.13948
2018.03.30 20:36:50,44.94,5.76,-32.7,-0.10774,0.23703,11.23633,-0.01385,0.01515,-0.16706,284.28973,-4.91558,-0.88842,-0.01385
2018.03.30 20:36:50,44.04,5.1,-32.76,0.61533,-0.32562,11.14535,0.08389,0.11289,-0.28618,284.76086,-5.19159,-0.61518,0.11932
2018.03.30 20:36:50,45.24,6.42,-32.28,-0.56744,0.64406,8.88276,0.04113,0.16053,-0.20494,285.71063,-4.81839,-1.56982,0.04113
2018.03.30 20:36:50,44.88,4.38,-31.86,-0.05028,0.78772,9.43584,0.03624,0.08417,-0.00213,285.2139,-5.01018,-2.32215,0.03624
2018.03.30 20:36:50,45.84,5.04,-31.86,-0.26098,1.27375,9.14613,-0.04989,0.11838,0.01864,284.70096,-4.85886,-2.68476,1018.4021
2018.03.30 20:36:50,45.48,5.34,-30.6,-0.23224,1.56586,10.46059,-0.00652,0.00049,0.14264,283.66672,-5.72821,-2.46354,1018.39771
2018.03.30 20:36:50,45.66,4.44,-30.84,-0.31844,1.91063,10.53002,0.09061,0.03286,0.20373,282.26453,-6.93046,-2.07826,1018.39746
2018.03.30 20:36:50,45.9,4.14,-32.52,-0.249,-0.73744,12.28981,-0.23376,-0.162,-0.0003,281.53058,-6.37413,-1.48203,1018.39795
2018.03.30 20:36:51,44.94,3.24,-32.34,-1.05348,0.31365,8.29856,0.30686,-0.09114,0.19335,280.52246,-7.11881,-1.38114,1018.40356
2018.03.30 20:36:51,44.94,1.92,-32.52,-0.26098,0.3328,10.33848,-0.04867,-0.00501,0.03208,279.58823,-6.70915,-1.0678,-0.04867
2018.03.30 20:36:51,45.12,2.58,-32.58,-0.97447,1.20671,8.84924,-0.05416,0.06035,0.06018,279.48544,-6.12605,-2.5364,-0.05416
2018.03.30 20:36:51,44.82,1.56,-32.52,-0.40224,1.62571,9.42387,-0.07921,0.00354,0.07117,278.90561,-5.9864,-3.1872,1018.41064
2018.03.30 20:36:51,44.46,2.34,-32.52,-0.71828,1.93936,10.25229,-0.15374,0.03286,-0.02107,278.94168,-6.68348,-3.51624,-0.15374
2018.03.30 20:36:51,44.1,2.82,-33.18,-0.46928,1.65923,11.03282,0.29403,-0.14185,0.14264,278.70557,-8.43435,-2.78954,0.29403
2018.03.30 20:36:51,42.72,1.98,-34.02,-0.5004,0.5435,10.26665,-0.29973,-0.15834,-0.44134,279.78741,-8.08502,-2.06631,-0.29973
2018.03.30 20:36:51,41.88,3.9,-34.8,0.4597,0.42618,9.29936,0.00448,-0.11558,-0.15851,281.11206,-7.28676,-1.74147,0.00448
2018.03.30 20:36:51,41.52,5.1,-35.28,-0.56026,0.1676,9.75428,-0.08471,0.09212,-0.37537,282.97809,-6.38694,-1.80875,-0.08471
2018.03.30 20:36:52,42.06,5.94,-34.98,-0.249,0.85715,8.88515,0.10771,0.09028,-0.01374,283.64539,-6.35706,-2.45077,0.10771
2018.03.30 20:36:52,41.22,4.68,-34.98,-0.53632,0.79969,9.26824,-0.15984,0.07684,-0.00213,283.71997,-5.89359,-2.96301,-0.15984
2018.03.30 20:36:52,40.68,5.7,-33.78,-0.28731,1.70472,9.79737,-0.08532,0.08601,0.18296,282.83948,-5.53751,-3.1823,-0.08532
2018.03.30 20:36:52,40.32,4.38,-34.08,0.44773,1.89387,11.95222,-0.07188,-0.09725,0.27459,281.2023,-5.93648,-2.30856,1018.4187
2018.03.30 20:36:52,39.06,4.74,-33.72,0.42379,-1.14925,14.25072,-0.32417,-0.25363,-0.09193,280.9216,-5.34577,-1.61249,1018.42065
2018.03.30 20:36:52,38.1,5.4,-34.2,-1.3384,0.14126,8.9474,0.17186,-0.04777,0.02719,281.46475,-4.53479,-1.51154,1018.41919
2018.03.30 20:36:52,36.84,4.8,-33.36,-0.3352,-0.91461,11.6673,-0.02118,-0.07832,-0.04917,281.16391,-3.81635,-1.83634,-0.02118
2018.03.30 20:36:52,37.02,4.44,-33.18,-1.24502,0.59378,7.97054,0.20973,0.232,0.0669,280.95023,-1.81,-3.4002,1018.41895
2018.03.30 20:36:52,36.48,3.3,-32.4,-0.24422,0.89306,10.07271,-0.05478,-0.06304,0.22572,279.25015,-1.83225,-3.88723,1018.42017
2018.03.30 20:36:53,35.7,3.3,-32.7,-0.61293,1.24981,9.76146,0.0228,0.06157,0.06751,278.64749,-2.85946,-3.98041,0.0228
2018.03.30 20:36:53,35.7,2.04,-32.46,-0.10535,1.3384,10.24271,0.25799,-0.07954,0.12432,277.98608,-4.98822,-2.99272,0.25799
2018.03.30 20:36:53,35.58,1.44,-32.82,0.30647,-0.42139,12.13179,-0.1965,-0.20293,-0.20982,278.90408,-4.7562,-2.03545,1018.4187
2018.03.30 20:36:53,34.5,4.08,-33.18,0.38308,0.2107,9.41668,-0.0395,0.01576,-0.19333,280.77899,-3.40034,-1.57753,-0.0395
2018.03.30 20:36:53,34.56,4.2,-32.34,-0.4597,0.09338,9.28979,0.05457,0.03836,-0.3436,282.5166,-3.59545,-1.74849,0.05457
2018.03.30 20:36:53,34.62,5.7,-33.06,-0.32323,0.72786,9.16289,0.02952,0.09517,-0.01252,283.22986,-3.47537,-2.35427,0.02952
2018.03.30 20:36:53,34.26,4.98,-31.62,-0.09577,1.30249,9.50767,-0.03767,0.06951,0.05346,282.90686,-3.77197,-2.52572,-0.03767
2018.03.30 20:36:53,33.9,4.44,-31.38,0.21309,1.59459,10.06553,0.04663,0.0237,0.11577,282.17981,-5.76952,-1.64366,0.04663
2018.03.30 20:36:53,33.84,4.02,-31.98,0.11971,1.77416,10.6234,0.12482,-0.04655,0.07667,281.79938,-7.28412,-0.41392,0.12482
2018.03.30 20:36:53,33.06,4.5,-31.32,-0.25619,0.43336,11.13098,-0.30279,-0.06854,-0.17928,282.43817,-6.93746,-0.61476,1018.40405
2018.03.30 20:36:54,34.26,5.22,-30.6,-1.06785,0.39984,7.99209,0.32885,0.07074,0.40226,282.38263,-6.11596,-1.34131,1018.40576
2018.03.30 20:36:54,33.96,3.48,-31.26,-0.38787,-0.08859,10.89156,-0.00468,-0.16261,0.28864,280.92639,-5.50472,-1.59714,1018.41577
2018.03.30 20:36:54,33.84,3.54,-30.66,-0.90504,1.11094,8.36799,0.04235,0.21246,0.12982,280.24731,-5.1336,-2.77036,1018.41431
2018.03.30 20:36:54,34.62,3.54,-29.94,-0.49561,1.08221,10.14454,-0.13052,-0.01845,0.07301,279.6994,-4.98178,-3.02779,-0.13052
2018.03.30 20:36:54,33.3,3.9,-30.3,-0.51477,1.26657,9.81892,0.09916,-0.09175,-0.02534,279.97385,-5.42554,-2.90061,0.09916
2018.03.30 20:36:54,33.96,3.84,-31.08,-0.26337,1.02954,10.09426,0.1798,-0.27868,0.26787,279.92877,-6.3755,-2.08499,0.1798
2018.03.30 20:36:54,33.6,4.62,-30.72,-1.39347,-0.09817,11.33929,-0.44634,0.26316,-0.28985,280.96246,-4.63562,-2.34343,-0.44634
2018.03.30 20:36:54,33.3,6.66,-30.9,0.32323,0.33041,9.19402,0.07473,-0.08259,0.04857,281.51346,-3.76764,-1.92908,0.07473
2018.03.30 20:36:54,34.32,7.14,-31.92,-0.7949,-0.03113,10.00567,-0.09815,0.05241,-0.22082,283.01587,-3.52686,-2.3779,-0.09815
2018.03.30 20:36:55,34.26,7.38,-30.96,0.09577,0.82363,8.93543,0.14253,-0.04105,0.13776,282.95297,-3.32736,-2.45732,0.14253
2018.03.30 20:36:55,33.78,8.04,-31.68,-0.10056,0.85236,9.34246,0.06923,-0.00623,0.04185,282.99643,-3.90612,-1.75218,0.06923
2018.03.30 20:36:55,34.08,7.98,-30.9,0.1652,1.36474,10.27383,0.03197,0.0182,0.1176,282.84186,-4.30594,-1.32927,0.03197
2018.03.30 20:36:55,34.56,7.56,-31.98,0.00718,1.26418,10.82212,0.18224,0.07318,0.11149,282.51746,-5.82629,-0.85518,0.18224
2018.03.30 20:36:55,34.68,8.46,-31.44,-0.46688,-0.21548,10.82212,0.1071,-0.32999,-0.19455,283.82858,-4.82851,-0.52624,1018.43188
2018.03.30 20:36:55,34.62,9,-32.58,-0.65124,0.0838,8.98811,0.04174,-0.03006,0.07301,284.18759,-5.78062,-0.42436,1018.43774
2018.03.30 20:36:55,34.08,8.94,-33.18,-0.83081,-0.49083,11.00409,-0.17084,-0.15345,-0.05344,284.69876,-4.51031,-0.29251,1018.43823
2018.03.30 20:36:55,35.1,8.94,-32.16,-0.63927,0.87152,9.33049,0.0002,0.06524,0.11454,284.55334,-3.20372,-1.91153,1018.4353
2018.03.30 20:36:55,34.68,9.36,-31.74,-0.12211,0.9601,11.16211,-0.22521,0.08417,0.03758,284.51755,-2.71853,-2.36448,1018.43408
2018.03.30 20:36:55,34.8,10.2,-31.26,-0.21548,1.36474,9.98891,0.10894,0.04386,-0.00335,284.97858,-3.78368,-2.41812,0.10894
2018.03.30 20:36:56,34.92,10.08,-32.28,0.52913,0.41421,9.58428,-0.25758,-0.11497,-0.31489,285.77191,-5.77316,-1.27513,-0.25758
2018.03.30 20:36:56,33.96,13.2,-32.82,-0.45252,-0.30647,10.8748,-0.46161,-0.17972,-0.37903,288.28094,-3.07242,-0.43699,1018.42969
2018.03.30 20:36:56,33.54,12.18,-32.64,0.16999,0.09338,10.13257,0.02769,-0.10214,-0.10292,288.70251,-3.27644,0.40894,0.02769
2018.03.30 20:36:56,33.54,13.32,-32.52,-0.14605,0.90982,8.99529,0.17552,0.09028,0.04918,289.84814,-3.47688,0.07333,0.17552
2018.03.30 20:36:56,33.78,12.66,-32.34,0.48125,1.14207,8.94022,0.0393,0.08112,-0.13041,290.02954,-4.46023,-0.50765,0.0393
2018.03.30 20:36:56,34.2,12.84,-31.98,-0.15802,1.19714,9.83329,-0.06883,0.10861,-0.24526,291.63596,-4.50171,-0.83414,-0.06883
2018.03.30 20:36:56,35.34,13.68,-32.64,-0.11732,1.15165,10.85564,-0.01324,-0.01479,0.03208,292.14951,-5.17242,-1.10095,-0.01324
2018.03.30 20:36:56,35.64,12.9,-30.78,0.10535,-0.14845,13.24513,-0.30523,0.02431,0.07239,291.57916,-5.41708,-1.45449,-0.30523
2018.03.30 20:36:56,35.58,14.46,-30.06,-0.75899,-0.54111,10.98972,0.27265,0.09884,0.18785,291.95343,-4.38699,-1.82521,0.27265
2018.03.30 20:36:57,36.84,13.74,-29.4,-0.9218,-0.40703,10.22116,-0.1067,0.02309,0.10416,291.49539,-3.50179,-1.94543,-0.1067
2018.03.30 20:36:57,36.36,12.42,-29.88,-0.54829,0.82363,8.81093,0.12176,0.0463,0.26421,290.46826,-3.15763,-2.4017,0.12176
2018.03.30 20:36:57,37.14,11.82,-29.88,-0.2083,0.90264,9.50048,-0.0615,-0.00135,0.05651,289.65564,-3.39771,-2.5965,1018.42041
2018.03.30 20:36:57,36.96,12.84,-27.6,-0.55547,1.00081,10.05595,0.01608,-0.10214,-0.0846,290.0762,-3.85153,-2.55939,1018.4248
2018.03.30 20:36:57,36.72,11.76,-29.34,-0.21548,0.8787,10.89395,0.05029,-0.18644,-0.0174,290.44684,-4.58543,-1.3725,0.05029
2018.03.30 20:36:57,37.32,13.08,-29.64,-0.8356,-1.10137,12.34488,-0.38892,-0.12657,-0.35032,291.96472,-2.91944,-0.90709,1018.43188
2018.03.30 20:36:57,37.8,14.4,-29.16,0.79969,-0.1676,9.59865,0.2476,-0.02761,0.13348,291.84384,-3.03586,-0.70631,1018.42505
2018.03.30 20:36:57,37.08,14.88,-28.86,-0.74941,0.09817,9.40232,0.00509,0.18375,-0.17562,293.25546,-2.54327,-1.12987,0.00509
2018.03.30 20:36:57,38.58,14.04,-28.98,0.31844,0.89546,8.76783,0.08633,0.08417,0.06629,293.04456,-2.86812,-1.94235,0.08633
2018.03.30 20:36:58,39,14.52,-28.08,-0.14605,0.95292,9.51245,-0.00713,0.04447,-0.03145,293.14169,-3.21327,-1.76472,-0.00713
2018.03.30 20:36:58,39.48,14.82,-27.42,0.29928,1.54191,9.93624,0.11382,0.0127,0.02902,293.06171,-4.54328,-1.27636,0.11382
2018.03.30 20:36:58,41.28,15.66,-27,-0.14845,1.45811,9.68005,0.02219,0.13243,0.01558,293.20081,-5.87755,-1.33098,0.02219
2018.03.30 20:36:58,42.12,17.22,-26.7,-1.05588,-1.05348,12.47896,-0.16962,0.01209,-0.09498,294.17902,-3.86735,-1.16154,-0.16962
2018.03.30 20:36:58,42.72,17.64,-25.02,-0.94813,-0.04789,8.97614,0.09672,0.03042,0.11332,293.64288,-4.41381,-1.91408,0.09672
2018.03.30 20:36:58,44.34,17.82,-25.8,-1.25939,-0.35196,10.4534,-0.09082,-0.0606,0.02597,293.41284,-3.38348,-2.21329,-0.09082
2018.03.30 20:36:58,45.3,17.1,-25.44,-0.80926,0.62969,8.54756,0.00753,0.01942,0.27093,292.21094,-2.49211,-3.83444,0.00753
2018.03.30 20:36:58,46.5,17.04,-24.9,-0.60096,1.09179,10.44622,-0.28446,0.17825,0.11332,291.02771,-1.69511,-3.99088,1018.40405
2018.03.30 20:36:58,47.1,16.68,-24.66,-0.32323,1.19235,10.20919,0.04418,-0.07098,0.00642,290.75195,-2.12321,-3.858,1018.39722
2018.03.30 20:36:58,47.16,17.16,-23.76,0.08859,0.76617,10.43664,0.11321,-0.26891,-0.07971,291.414,-3.59155,-2.11539,1018.4021
2018.03.30 20:36:59,46.68,19.44,-24.36,-0.14126,-0.45012,10.33369,-0.10792,-0.2292,-0.21471,293.0741,-1.69254,-1.44216,1018.39941
2018.03.30 20:36:59,46.74,19.02,-25.68,-0.2107,-0.54589,9.115,0.13398,0.09273,-0.29718,293.88031,-2.72723,-1.32448,1018.4104
2018.03.30 20:36:59,47.76,19.68,-24.24,-0.70871,0.24422,9.06233,0.03502,0.03714,0.06995,294.67584,-2.2208,-2.04606,0.03502
2018.03.30 20:36:59,48,18.6,-23.7,0.42618,0.95053,9.27303,0.0729,0.00415,0.13776,293.93417,-2.61995,-2.03257,1018.41577
2018.03.30 20:36:59,48.24,17.16,-23.64,-0.26098,1.087,10.01525,-0.02668,0.0292,-0.10109,294.07263,-3.32618,-1.63181,1018.41626
2018.03.30 20:36:59,48.12,17.7,-23.28,-0.5028,1.10137,10.60903,0.1352,0.0408,0.08644,293.67877,-4.80578,-2.01799,0.1352
2018.03.30 20:36:59,47.64,14.94,-23.28,0.16999,0.47885,11.72716,-0.17878,-0.09603,0.05285,292.51007,-5.53054,-2.22583,-0.17878
2018.03.30 20:36:59,48.12,15.96,-22.2,-0.69195,-0.44294,10.02722,0.2702,0.0237,0.09866,292.56131,-4.39661,-2.27537,0.2702
2018.03.30 20:36:59,47.04,14.64,-23.52,-0.64885,-0.35675,9.74949,-0.00774,-0.09053,0.16158,291.54901,-3.90059,-2.08707,-0.00774
2018.03.30 20:37:00,47.94,13.26,-22.86,-0.66082,0.82602,8.84445,0.07412,0.0408,0.08156,290.84244,-2.53402,-2.60668,0.07412
2018.03.30 20:37:00,46.56,12.84,-22.56,-0.74941,1.02954,9.58907,-0.04195,-0.0661,0.04735,290.21655,-2.61018,-2.92717,1018.42041
2018.03.30 20:37:00,46.26,12.96,-22.68,-0.57463,1.32882,10.02243,0.03075,-0.04411,0.04063,289.77945,-3.57498,-3.13581,1018.42188
2018.03.30 20:37:00,45.12,11.94,-22.38,-0.63448,1.04151,10.49171,0.14376,-0.03555,0.02047,289.46878,-5.00647,-3.04572,1018.42334
2018.03.30 20:37:00,44.04,11.28,-23.22,0.19872,-0.26816,11.82772,-0.04745,-0.17483,-0.051,289.71024,-4.7458,-2.00247,1018.42749
2018.03.30 20:37:00,42.42,13.8,-22.68,-0.18675,-0.28492,10.16848,0.03502,0.00415,0.00092,290.54694,-3.0031,-1.81009,1018.42798
2018.03.30 20:37:00,41.52,12.84,-23.82,-0.32323,-0.17478,10.18524,-0.03034,0.06463,-0.19333,291.03168,-2.7211,-1.87662,1018.42529
2018.03.30 20:37:00,41.76,12.9,-24.66,-0.16281,0.64885,9.35204,0.16575,0.11227,0.13165,290.69519,-2.31231,-2.32468,0.16575
2018.03.30 20:37:00,41.82,11.58,-23.76,0.27534,1.00081,9.29936,0.14803,0.13121,0.0669,290.0799,-3.44973,-2.29274,1018.42627
2018.03.30 20:37:00,40.98,11.52,-23.16,-0.39745,1.44614,9.93624,0.0845,0.09212,-0.03023,290.10471,-4.72826,-2.04862,1018.42236
2018.03.30 20:37:01,41.4,11.94,-24.6,-0.04789,1.32164,10.69283,0.14925,0.06646,0.04857,289.8584,-6.02545,-2.08542,0.14925
2018.03.30 20:37:01,40.08,11.34,-22.92,-0.249,0.34478,12.46938,-0.26675,-0.01173,-0.26908,290.34531,-5.52132,-2.18769,-0.26675
2018.03.30 20:37:01,40.5,12.36,-23.4,-1.26657,0.34238,7.8197,0.13765,0.10922,0.03513,290.37091,-5.68825,-2.35163,1018.42041
2018.03.30 20:37:01,40.2,11.76,-25.5,-0.62491,-0.01437,10.53002,-0.03095,-0.24508,0.16525,289.27972,-5.08105,-2.10175,-0.03095
2018.03.30 20:37:01,39.3,11.1,-26.94,-0.64645,1.06066,8.45897,0.04602,0.0463,0.1854,288.32715,-4.89339,-2.41662,0.04602
2018.03.30 20:37:01,38.76,10.2,-25.98,-0.71349,1.17319,10.12778,-0.13052,0.02064,0.03696,287.76205,-4.66132,-2.58767,-0.13052
2018.03.30 20:37:01,38.76,11.88,-25.92,-0.30407,1.12052,10.1613,0.03746,-0.0887,-0.07421,288.09174,-5.07802,-2.76479,0.03746
2018.03.30 20:37:01,39.42,11.64,-27.72,0.03831,1.09179,10.69762,0.11993,-0.1394,-0.06994,288.85208,-5.69482,-1.89294,0.11993
2018.03.30 20:37:01,38.52,13.68,-27.84,-1.05348,-0.13647,10.13018,-0.26125,-0.18522,-0.34299,291.01343,-3.8005,-1.75978,1018.43701
2018.03.30 20:37:02,38.46,13.02,-30,0.57223,-0.23943,10.01046,0.1126,-0.11252,-0.06749,290.86938,-4.44688,-0.98218,1018.43457
2018.03.30 20:37:02,38.88,14.58,-29.52,-0.62491,0.35675,8.63615,0.08389,0.18069,-0.07788,292.3205,-3.8368,-1.48904,0.08389
2018.03.30 20:37:02,38.88,13.92,-29.16,0.05267,0.85715,9.61541,-0.07982,0.02431,-0.02962,292.41226,-3.87689,-2.01523,-0.07982
2018.03.30 20:37:02,38.22,15,-29.76,-0.05028,1.44614,9.63217,-0.06272,0.08417,-0.01374,292.60919,-4.03544,-1.92687,1018.42969
2018.03.30 20:37:02,38.76,14.52,-29.16,0.05986,1.26657,10.5827,0.10099,-0.03617,0.06812,292.48236,-5.80825,-1.31949,0.10099
2018.03.30 20:37:02,40.2,14.94,-29.52,0.03352,0.29689,12.30178,-0.22887,0.02614,0.05834,292.18918,-6.01852,-1.05674,-0.22887
2018.03.30 20:37:02,40.32,15.78,-30.18,-1.10615,-0.39984,10.18764,0.44125,-0.04838,0.20617,292.58551,-4.66621,-1.09445,0.44125
2018.03.30 20:37:02,41.28,14.28,-31.38,-0.44773,-0.07422,9.35922,0.10405,0.06096,0.18907,291.66104,-5.02853,-1.13917,1018.41455
2018.03.30 20:37:02,40.38,14.58,-31.62,-0.50759,0.73265,8.92346,0.01486,-0.08931,0.12798,291.17969,-3.77999,-1.08775,0.01486
2018.03.30 20:37:03,41.4,14.22,-30.96,-0.24182,1.1277,9.56992,-0.0334,-0.09725,0.12371,290.38806,-3.78539,-1.1862,-0.0334
2018.03.30 20:37:03,41.58,13.32,-31.38,-0.39027,1.13489,9.89793,0.07351,0.0011,-0.01252,290.38297,-4.40261,-1.60889,0.07351
2018.03.30 20:37:03,41.52,13.08,-31.98,0.11971,0.93377,10.85085,0.05823,-0.11191,-0.01679,290.57156,-5.14289,-1.38335,0.05823
2018.03.30 20:37:03,40.92,14.1,-31.38,-0.53871,-0.57463,12.07672,-0.43473,-0.07832,-0.31184,291.81155,-3.39578,-0.79068,-0.43473
2018.03.30 20:37:03,40.8,14.88,-30.9,0.33999,-0.16281,10.4127,0.27387,-0.08198,0.15792,291.65881,-3.09653,-0.40424,0.27387
2018.03.30 20:37:03,41.28,15.42,-31.92,-0.50998,-0.31126,9.6202,-0.02118,0.16298,-0.23609,292.81909,-2.83543,-0.58853,-0.02118
2018.03.30 20:37:03,41.46,15.72,-31.98,-0.06704,0.79729,9.01205,0.03746,0.11411,0.02963,293.14728,-2.74995,-1.58222,1018.43628
2018.03.30 20:37:03,41.82,15.48,-31.08,-0.15323,0.97208,9.60344,-0.01385,0.09334,-0.051,293.38318,-3.14822,-1.93733,-0.01385
2018.03.30 20:37:03,42.48,16.26,-30.36,-0.04549,1.35755,10.4965,-0.01629,0.08723,-0.00763,293.42459,-4.16433,-1.97569,1018.42529
2018.03.30 20:37:03,43.02,15.84,-30.06,-0.01437,1.83641,10.69523,0.04968,0.09456,0.10966,292.763,-5.67099,-1.49873,1018.42773
2018.03.30 20:37:04,43.44,16.2,-28.92,-0.63927,-0.30407,13.15175,0.17308,0.11594,-0.04428,293.52213,-5.3584,-1.17815,0.17308
2018.03.30 20:37:04,43.56,14.76,-30.18,-1.02236,0.09098,7.98491,0.46812,-0.10764,0.2471,292.61795,-6.57747,-1.33701,1018.43774
2018.03.30 20:37:04,43.56,13.56,-30.12,-0.55308,0.0431,9.7016,-0.08776,-0.15712,0.16158,291.50345,-5.06903,-0.69989,1018.44287
2018.03.30 20:37:04,44.4,12.54,-31.26,-0.28492,0.88828,8.29137,-0.0114,0.00904,0.19884,289.92142,-4.96102,-0.9594,-0.0114
2018.03.30 20:37:04,44.34,12.78,-29.64,-0.33999,1.13249,9.91709,-0.20261,0.21612,0.00092,289.28207,-4.0903,-1.20765,-0.20261
2018.03.30 20:37:04,45.24,12.24,-30.18,-0.30168,1.0463,9.82131,-0.07371,-0.08565,0.02108,289.24606,-4.46702,-1.29853,-0.07371
2018.03.30 20:37:04,43.56,14.46,-29.76,-0.42139,-0.8763,12.57234,-0.42007,0.00537,-0.40225,289.40533,-3.81124,-0.05459,-0.42007
2018.03.30 20:37:04,44.34,15,-29.4,0.66082,-0.18436,10.05835,-0.05355,-0.11436,-0.0565,290.42731,-2.33485,0.32429,-0.05355
2018.03.30 20:37:04,43.32,16.08,-29.82,-0.14126,-0.41421,9.58668,0.06556,0.11899,-0.35216,291.79932,-2.49334,0.26643,0.06556
2018.03.30 20:37:05,43.68,16.2,-28.62,0.00958,0.67997,8.64333,0.07656,0.04141,-0.01985,292.6217,-2.6905,-0.31061,1018.43213
2018.03.30 20:37:05,43.26,17.4,-28.92,-0.10056,0.78532,9.54119,-0.00652,0.05363,-0.03878,292.84027,-2.90868,-0.32199,1018.42993
2018.03.30 20:37:05,44.1,17.22,-28.56,0.13408,1.38629,9.87638,0.07656,0.06585,0.05346,292.59592,-3.83222,-0.63485,1018.43457
2018.03.30 20:37:05,44.22,16.38,-26.88,-0.13408,1.4222,9.84765,0.17674,0.13854,0.084,292.12125,-5.78967,-0.85627,1018.42798
2018.03.30 20:37:05,44.28,16.44,-25.86,-0.48843,-1.67839,14.71282,-0.51537,-0.19255,-0.23243,292.50888,-4.3556,-1.0868,1018.42896
2018.03.30 20:37:05,44.4,16.14,-26.58,-0.66561,-0.06704,8.56193,0.12726,-0.01906,0.25871,291.63837,-4.42324,-1.87668,0.12726
2018.03.30 20:37:05,44.7,16.5,-25.62,-0.69913,-0.27295,10.84606,-0.15007,-0.08503,0.06079,291.19232,-3.18894,-1.5746,1018.42114
2018.03.30 20:37:05,45.36,16.02,-25.86,-0.53153,0.78532,8.63615,0.11077,0.03714,0.095,290.5379,-3.42522,-1.87496,1018.42139
2018.03.30 20:37:05,45.42,15.66,-26.28,-0.60575,0.97686,9.59146,-0.04745,0.0011,-0.00885,290.48904,-3.77967,-2.31182,-0.04745
2018.03.30 20:37:06,46.08,15.9,-25.38,-0.77096,0.94813,10.02722,0.04052,-0.05022,-0.00763,290.7648,-4.08419,-2.86787,0.04052
2018.03.30 20:37:06,45.48,16.56,-25.86,-0.19394,1.00799,10.17806,-0.25086,-0.12657,-0.01923,290.55438,-4.32665,-2.21772,-0.25086
2018.03.30 20:37:06,46.5,17.88,-26.34,-0.1676,-0.09338,10.91789,-0.43657,-0.03739,-0.09254,290.94568,-1.98767,-1.79785,-0.43657
2018.03.30 20:37:06,46.5,17.88,-25.98,-0.06943,-0.64167,9.71597,0.06373,-0.00929,-0.2141,291.48044,-1.87076,-1.33603,0.06373
2018.03.30 20:37:06,48.12,18.78,-26.28,-0.90504,0.01676,9.13655,0.06556,0.05119,-0.0901,292.51642,-1.99247,-1.65597,0.06556
2018.03.30 20:37:06,48.12,19.08,-25.92,-0.07183,0.56744,9.47415,0.06373,0.08112,0.0107,292.38095,-2.50158,-2.00303,0.06373
2018.03.30 20:37:06,48.12,18.96,-25.08,0.16042,1.40065,9.76864,0.0057,0.0292,-0.08643,292.6022,-3.30127,-1.77555,1018.43579
2018.03.30 20:37:06,49.02,18.42,-25.14,0.06704,1.26657,10.52763,0.08267,-0.03433,-0.03512,292.93182,-5.21625,-0.99783,1018.43799
2018.03.30 20:37:06,50.28,18.84,-24.48,-0.35914,-0.03113,12.25629,-0.12319,0.1758,0.00948,292.99481,-5.11547,-1.40239,1018.43677
2018.03.30 20:37:06,51.18,19.86,-23.16,-1.11094,-0.67279,10.99451,0.18163,0.1361,0.1347,293.08133,-3.6932,-1.96408,1018.43237
2018.03.30 20:37:07,52.5,17.22,-23.94,-1.03672,-0.31844,10.06553,-0.03462,-0.18644,0.16219,291.66431,-3.53176,-1.92082,-0.03462
2018.03.30 20:37:07,53.52,15,-24.9,-0.47646,0.52435,8.55953,0.10038,-0.0154,0.27093,290.06207,-3.27267,-2.00904,0.10038
2018.03.30 20:37:07,54.12,12.84,-23.88,-0.25379,0.82124,9.38556,-0.03767,-0.04289,0.17074,288.53091,-3.24948,-1.72948,1018.42822
2018.03.30 20:37:07,53.34,11.4,-24.36,-0.39266,1.14925,9.74709,-0.04256,0.00598,-0.00457,287.93661,-3.37505,-1.56282,-0.04256
2018.03.30 20:37:07,53.4,11.16,-23.22,-0.17239,0.65843,11.30816,-0.03584,-0.00135,-0.02962,287.72369,-3.9282,-1.34528,-0.03584
2018.03.30 20:37:07,53.4,10.74,-24.42,-1.21869,-1.17319,12.32812,-0.46161,0.00965,-0.28313,288.37354,-1.99093,-1.17104,-0.46161
2018.03.30 20:37:07,52.68,10.68,-24.3,1.35755,-0.27055,9.40711,0.11504,-0.13574,0.14387,287.65302,-1.64401,-0.53175,0.11504
2018.03.30 20:37:07,52.68,11.28,-23.82,-0.81884,-0.39266,9.2012,-0.00224,0.13121,-0.3656,288.77853,-1.34908,-0.63294,-0.00224
2018.03.30 20:37:07,52.08,10.92,-24.06,0.13887,0.66561,9.17486,0.0674,0.02003,0.07239,288.50793,-1.2006,-1.05753,0.0674
2018.03.30 20:37:08,52.62,10.02,-24.96,0.14126,0.91222,9.58189,-0.01324,0.01942,-0.08704,287.89978,-2.06363,-0.7194,-0.01324
2018.03.30 20:37:08,51.84,9.9,-23.94,-0.03352,1.43178,9.68005,0.07106,0.09151,-0.05833,287.65741,-3.51438,-0.5265,0.07106
2018.03.30 20:37:08,50.94,8.34,-23.88,-0.42379,1.52276,10.16848,0.12421,0.02492,0.09805,286.75983,-5.23012,-0.55674,1018.43481
2018.03.30 20:37:08,50.04,8.76,-23.94,-0.70392,-1.31206,13.27865,-0.11464,-0.27746,-0.02351,286.01511,-4.6014,-0.20576,1018.43823
2018.03.30 20:37:08,50.16,5.94,-23.7,-0.18915,0.31844,9.90033,0.24088,-0.01234,0.30758,283.67346,-5.66159,-0.56168,1018.43359
2018.03.30 20:37:08,48.78,4.02,-24.6,-0.15084,0.25858,9.54358,0.21217,-0.08015,0.22694,281.82413,-5.1412,-0.18846,0.21217
2018.03.30 20:37:08,49.74,3,-24.84,-0.02394,0.99841,8.44221,0.09183,-0.01662,0.13654,280.54437,-5.3509,-0.1739,1018.42529
2018.03.30 20:37:08,47.46,3.3,-26.94,-0.49801,1.20911,10.18524,-0.11525,-0.04044,-0.10353,280.45044,-4.93154,-0.06931,1018.43188
2018.03.30 20:37:08,46.98,4.32,-25.02,-0.14605,0.93856,10.97775,-0.00468,-0.07587,-0.08948,280.70984,-5.19228,-0.44515,-0.00468
2018.03.30 20:37:09,45.9,5.04,-26.22,-0.34956,-0.01676,11.34168,-0.30218,-0.08442,-0.3827,281.53345,-4.90622,-0.07459,-0.30218
2018.03.30 20:37:09,45.9,6,-27.06,0.84278,0.16042,10.2451,0.16208,-0.0215,-0.0681,282.25488,-4.30172,-0.20415,0.16208
2018.03.30 20:37:09,45.6,7.02,-27.18,-0.13647,0.32323,9.42147,0.04907,0.097,-0.21227,283.16449,-4.48349,-0.37615,0.04907
2018.03.30 20:37:09,45.78,7.08,-27.6,0.07422,1.02475,8.52122,0.08878,0.04936,0.00031,283.1857,-4.60565,-0.57766,0.08878
2018.03.30 20:37:09,45.42,7.44,-27.84,0.02394,1.45332,9.52682,-0.10975,0.03286,-0.11209,283.34521,-4.98146,-0.26794,-0.10975
2018.03.30 20:37:09,44.64,7.68,-27.24,0.18915,1.76458,10.08469,0.10405,-0.04655,0.12371,283.31009,-6.09679,-0.07049,0.10405
2018.03.30 20:37:09,45.18,7.62,-27.78,0.22506,1.56107,10.8293,0.12482,-0.01662,0.14753,282.55164,-7.42337,0.23816,0.12482
2018.03.30 20:37:09,44.16,8.58,-27.54,-0.2921,-0.36632,10.79818,-0.2191,-0.12963,-0.12736,282.91949,-6.12368,0.54035,1018.42358
2018.03.30 20:37:09,43.56,7.98,-28.86,-0.44055,0.01915,9.87638,-0.05783,-0.08381,0.14753,282.272,-5.67019,0.73253,1018.42456
2018.03.30 20:37:09,43.56,8.46,-27.84,-0.0407,1.07742,8.83248,0.18774,0.00293,0.21961,281.44812,-4.52563,0.21173,1018.41846
2018.03.30 20:37:10,44.04,7.56,-27.72,-0.23943,1.0056,9.06233,-0.07127,0.0292,-0.01435,281.00861,-5.12179,-0.11042,-0.07127
2018.03.30 20:37:10,44.94,7.38,-29.76,-0.43097,1.03433,9.90033,-0.07677,0.04691,-0.05161,281.35007,-5.07847,-0.37874,1018.41968
2018.03.30 20:37:10,45.18,7.14,-29.94,0.34238,1.1301,10.8724,0.0674,-0.14612,0.03574,281.33575,-5.66415,-0.05902,1018.42383
2018.03.30 20:37:10,45.06,6.78,-29.64,-0.34238,-0.78772,12.58431,-0.47566,0.09884,-0.41813,282.64368,-4.68904,0.09732,-0.47566
2018.03.30 20:37:10,45.24,8.1,-29.28,1.27854,0.35675,8.91867,0.1798,-0.03433,-0.00702,283.01096,-4.30842,0.2038,0.1798
2018.03.30 20:37:10,45.6,8.16,-30.54,-0.15323,0.37111,8.92107,0.02036,0.0744,-0.0791,283.80518,-3.67606,0.55079,0.02036
2018.03.30 20:37:10,45.24,8.46,-29.88,0.43576,0.72547,9.06233,0.03685,0.06585,-0.00885,283.82205,-3.62429,0.35171,0.03685
2018.03.30 20:37:10,45.18,8.82,-29.64,0.01676,1.15883,9.7423,-0.08654,0.10006,-0.10353,284.23627,-3.36869,0.31641,-0.08654
2018.03.30 20:37:10,45.96,9.84,-27.96,-0.14126,1.40783,10.56833,-0.05661,0.07623,0.07056,284.19531,-4.31998,-0.25323,-0.05661
2018.03.30 20:37:11,45.96,7.98,-28.2,0.2921,1.59938,10.55875,-0.01507,0.00782,0.28498,282.63501,-5.31638,-0.47997,-0.01507
2018.03.30 20:37:11,46.2,6.66,-28.44,0.17239,-0.14366,12.127,0.44797,0.05546,0.16402,282.0274,-5.13966,-0.1168,-0.08165
2018.03.30 20:37:11,46.86,4.56,-30.48,-0.43336,0.17718,9.50767,0.12971,0.01454,0.07789,281.289,-6.40392,0.04614,1018.42871
2018.03.30 20:37:11,46.08,4.62,-30.12,-0.5435,0.62491,9.04796,0.12726,0.09151,-0.04,281.46918,-5.81132,-0.61875,1018.43994
2018.03.30 20:37:11,46.62,4.5,-29.46,-0.51956,0.77096,9.00487,-0.09815,0.06585,-0.02901,281.47302,-5.24216,-1.74201,1018.43994
2018.03.30 20:37:11,45.42,3.84,-29.1,-0.55308,1.34079,9.03599,-0.06883,-0.00379,-0.01252,281.31924,-4.92947,-2.12623,-0.06883
2018.03.30 20:37:11,45.6,5.04,-29.7,-0.38069,1.06066,11.34407,-0.15068,-0.03372,-0.01862,281.211,-4.95247,-2.02397,1018.42432
2018.03.30 20:37:11,44.7,6.36,-30.12,0.40224,-0.18196,11.4159,-0.47383,-0.04411,-0.22876,281.75778,-3.45675,-1.83169,1018.41821
2018.03.30 20:37:11,45.36,7.92,-30.78,1.45332,1.14686,7.86759,0.27753,0.12694,0.30147,281.38446,-2.51222,-1.8913,0.27753
2018.03.30 20:37:11,45.36,7.98,-30.66,-0.249,-0.11732,10.94662,-0.11464,0.09273,-0.46944,283.15686,-2.15312,-1.68083,-0.11464
2018.03.30 20:37:12,45.42,9.12,-30,-0.30168,0.54829,8.38236,0.03869,-0.04777,-0.1243,284.48431,-2.57722,-2.18788,0.03869
2018.03.30 20:37:12,45.54,9.9,-31.2,-0.47646,0.99123,9.46217,-0.05294,-0.00684,-0.07055,284.90027,-2.54684,-1.99416,-0.05294
2018.03.30 20:37:12,44.7,8.88,-32.28,0.19872,1.21869,10.05835,0.25554,-0.07465,0.07239,284.70032,-3.87563,-1.11779,0.25554
2018.03.30 20:37:12,44.64,7.44,-33.36,0.19154,1.11573,9.90512,0.21156,0.1196,0.05651,284.3194,-5.66366,-0.42208,0.21156
2018.03.30 20:37:12,44.88,7.68,-33.36,-0.31126,-0.82363,12.45262,-0.22826,-0.06793,0.02475,284.22586,-4.36257,-0.36315,-0.22826
2018.03.30 20:37:12,44.52,6.6,-32.76,-0.18436,-0.22027,9.26345,0.1407,0.02736,0.21656,283.27863,-4.10179,-0.46565,0.1407
2018.03.30 20:37:12,44.22,7.2,-33.42,-0.13408,0.07901,10.0799,-0.0841,-0.03555,-0.00519,283.01285,-2.38153,-0.26977,1018.43408
2018.03.30 20:37:12,44.82,6.06,-33.24,-0.42858,1.08221,8.03519,0.09061,0.108,-0.04123,282.69873,-2.98209,-1.16149,1018.42871
2018.03.30 20:37:12,43.68,6.6,-33.96,-0.77814,0.94813,10.50608,-0.11525,-0.00929,-0.09437,283.11447,-3.26147,-1.7601,1018.43237
2018.03.30 20:37:13,44.22,7.26,-34.02,-0.60096,1.09179,10.87001,0.01731,-0.01906,0.01131,283.02084,-4.0565,-2.23402,1018.42676
2018.03.30 20:37:13,42.96,6.54,-33.48,-0.13647,0.10535,11.0831,0.01547,0.00476,0.06812,282.5513,-4.59548,-2.06138,1018.42749
2018.03.30 20:37:13,42.18,7.62,-34.08,0.43576,-0.0431,11.18366,0.02525,-0.03861,0.01192,282.80154,-3.51248,-1.61837,1018.42432
2018.03.30 20:37:13,41.46,6.24,-33.36,0.01676,-0.22267,9.34485,0.03624,0.14587,-0.19822,283.54233,-4.01972,-1.75576,0.03624
2018.03.30 20:37:13,42.06,7.74,-34.62,-0.09338,0.70392,8.62657,0.20667,0.02553,0.17807,283.53064,-4.1425,-1.99517,0.20667
2018.03.30 20:37:13,42.84,6.36,-34.38,0.26816,0.85236,9.0767,0.12421,-0.00807,0.12371,282.78967,-4.86077,-1.72389,0.12421
2018.03.30 20:37:13,42.96,6.78,-33.9,-0.07901,1.43178,9.64653,0.01364,0.09761,0.06018,282.45044,-5.02611,-1.34923,0.01364
2018.03.30 20:37:13,43.02,5.22,-33,0.07422,1.59938,9.96258,0.11749,0.03836,0.18174,281.58807,-6.28227,-1.16799,0.11749
2018.03.30 20:37:13,42.84,5.22,-33.96,-0.02155,-0.61293,11.97137,-0.03584,-0.10153,-0.06872,281.4201,-5.66039,-0.66804,-0.03584
