Time,X-cord,Y-cord,Mag_x,Mag_y,Mag_z,Acc_x,Acc_y,Acc_z,Gyro_x,Gyro_y,Gyro_z,Orn_x,Orn_y,Orn_z,Pressure,
2021.05.19 17:57:15,87.0,84.0,7.951912,7.179103,-23.433138,0.29524544,0.43431962,10.5184765,-0.08372335,0.08017728,0.05865223,-0.041251443326473236,-0.028061851859092712,-0.8138607740402222,1001.77814,
2021.05.19 17:57:15,87.0,84.0,7.0583344,6.858488,-22.505404,0.012526716,0.94942826,9.103589,-0.054045133,-0.033272397,0.0066867354,-0.10391587764024734,-0.0013760185102000833,-0.6589151620864868,1001.77814,
2021.05.19 17:57:15,87.0,84.0,9.11956,6.887433,-21.971327,-0.10486486,0.78060055,9.48191,-0.09607551,-0.012292737,0.05304711,-0.08213501423597336,0.011059015057981014,-0.7968535423278809,1001.77814,
2021.05.19 17:57:15,87.0,84.0,6.87854,8.247048,-21.53346,0.027678525,0.6176227,9.810449,-0.03380603,-0.031614583,0.02257158,-0.06287237256765366,-0.0028213236946612597,-0.626757800579071,1001.77924,
2021.05.19 17:57:15,87.0,84.0,8.264046,7.218397,-22.811071,-0.11745306,0.8093977,9.519584,-0.06555151,-0.032972418,0.056821063,-0.08481405675411224,0.012337420135736465,-0.7182305455207825,1001.77954,
2021.05.19 17:57:15,87.0,84.0,7.687973,8.035862,-23.70323,-0.1600769,0.90390515,9.619723,-0.11637991,-0.04919902,0.10901902,-0.09367576241493225,0.016638953238725662,-0.6193279027938843,1001.77954,
2021.05.19 17:57:15,87.0,84.0,7.6914444,6.8067017,-22.252111,0.19186658,0.61455894,9.699758,-0.13152716,-0.02705213,0.09398937,-0.0632612556219101,-0.019777974113821983,-0.7817255258560181,1001.77966,
2021.05.19 17:57:15,87.0,84.0,6.969139,7.3209667,-23.805655,0.26024172,0.5792693,9.281152,-0.026616974,-0.079488136,0.030113045,-0.06230822578072548,-0.028032463043928146,-0.7158761024475098,1001.77966,
2021.05.19 17:57:15,87.0,84.0,8.127182,7.9092245,-23.516802,0.26771796,0.22550344,9.87477,-0.10100255,-0.07113942,-0.012484127,-0.02282397262752056,-0.02710467018187046,-0.8041685819625854,1001.77954,
2021.05.19 17:57:16,87.0,84.0,7.499199,8.38176,-23.900991,-0.0080612255,0.24385042,9.653071,-0.089158066,-0.069960475,-0.051804442,-0.02525605447590351,8.350941934622824E-4,-0.6943143010139465,1001.77924,
2021.05.19 17:57:16,87.0,84.0,7.439125,7.540902,-23.847815,-0.10289693,0.48898768,10.111899,-0.117918804,0.018800944,-0.05506725,-0.04831750690937042,0.010175474919378757,-0.6917749643325806,1001.779,
2021.05.19 17:57:16,87.0,84.0,7.568756,8.267488,-24.277365,-0.11092901,0.55726653,9.836808,-0.06241541,-0.0023297814,0.005019896,-0.05658707395195961,0.011276453733444214,-0.6481679081916809,1001.77814,
2021.05.19 17:57:16,87.0,84.0,5.9293747,8.025258,-23.903002,0.1481018,0.5133796,9.8643675,-0.02149075,-0.03576535,0.08376447,-0.05199108272790909,-0.015012688003480434,-0.5969028472900391,1001.77856,
2021.05.19 17:57:16,87.0,84.0,6.399727,8.238656,-25.074648,0.31337613,0.47420225,10.129772,0.0754977,-0.03630695,0.07351498,-0.04675624147057533,-0.030926285311579704,-0.6521766781806946,1001.77856,
2021.05.19 17:57:16,87.0,84.0,5.494156,9.039149,-24.831854,0.18382545,0.49859986,9.887618,0.08071794,-0.06351464,0.10314209,-0.0503753237426281,-0.018589338287711143,-0.5253373980522156,1001.77856,
2021.05.19 17:57:16,87.0,84.0,6.765213,8.213742,-24.27865,0.26806113,0.36268607,9.746791,0.085795954,-0.008109771,0.038215604,-0.0371796116232872,-0.027495572343468666,-0.6845436096191406,1001.77856,
2021.05.19 17:57:16,87.0,84.0,6.520424,7.9294167,-22.533903,0.2950047,0.41510487,9.637378,0.08144432,0.026249312,-0.0149043165,-0.04302565008401871,-0.03060091845691204,-0.6816359162330627,1001.77856,
2021.05.19 17:57:16,87.0,84.0,6.681862,5.8162575,-24.009993,0.14742546,0.6165602,9.468456,0.0476588,0.027235802,-0.045963224,-0.06501762568950653,-0.015568911097943783,-0.7644360661506653,1001.7784,
2021.05.19 17:57:16,87.0,84.0,7.282158,7.6378517,-24.30007,0.050563414,0.5606151,9.584029,0.024288433,-6.7798106E-4,-0.024543067,-0.05842733010649681,-0.005275750067085028,-0.6865660548210144,1001.77814,
2021.05.19 17:57:16,87.0,84.0,6.574188,7.2587366,-23.879797,0.14064892,0.5044902,10.007885,-0.0014669714,0.035274472,-0.010303732,-0.050361670553684235,-0.01405288465321064,-0.6855892539024353,1001.77814,
2021.05.19 17:57:16,87.0,84.0,6.0578537,8.126203,-23.23678,0.21626894,0.6514712,9.591335,0.034636535,0.018564608,-0.028143488,-0.06780154258012772,-0.02254454605281353,-0.5973931550979614,1001.77814,
2021.05.19 17:57:16,87.0,84.0,7.329895,6.724002,-23.691107,0.19165152,0.67494583,9.962932,0.055850238,0.018449426,-0.020807978,-0.067629873752594,-0.01923408731818199,-0.7533509135246277,1001.7776,
2021.05.19 17:57:17,87.0,84.0,7.0924225,6.5481224,-23.1924,0.07907457,0.7986472,9.612835,0.04549975,0.015292216,3.8703438E-4,-0.08288818597793579,-0.008225751109421253,-0.7118871212005615,1001.7772,
2021.05.19 17:57:17,87.0,84.0,6.097534,6.3358736,-22.941145,0.15831482,0.72693235,9.718603,0.03529402,0.003403007,0.0029247473,-0.0746491327881813,-0.016288433223962784,-0.6787681579589844,1001.7772,
2021.05.19 17:57:17,87.0,84.0,6.631508,7.011449,-24.871477,0.12571782,0.77235365,9.623336,-0.0036370659,0.035843145,0.017425762,-0.08007995039224625,-0.013063107617199421,-0.6595155000686646,1001.7772,
2021.05.19 17:57:17,87.0,84.0,5.75206,7.2948074,-23.122957,0.118459046,0.69221693,9.830162,0.039413184,0.010103698,-0.02598573,-0.0702965185046196,-0.01204998604953289,-0.5957174897193909,1001.7771,
2021.05.19 17:57:17,87.0,84.0,7.1207123,6.255906,-22.719702,0.08145687,0.70161605,9.676998,0.035550565,-0.0058242693,-0.03460625,-0.07237427681684494,-0.00841737724840641,-0.7481319904327393,1001.7769,
2021.05.19 17:57:17,87.0,84.0,6.425743,6.091831,-22.8147,0.060886677,0.70492107,9.5789175,0.045927245,0.02536051,-0.03938854,-0.07345699518918991,-0.006356235593557358,-0.7034347653388977,1001.7769,
2021.05.19 17:57:17,87.0,84.0,7.159378,7.2283697,-23.073633,-0.026874093,0.7287572,9.528847,0.031378247,0.008539024,-0.014583781,-0.07633016258478165,0.002820280846208334,-0.6692497730255127,1001.7769,
2021.05.19 17:57:17,87.0,84.0,7.23275,8.064539,-22.98955,-0.021158246,0.75643826,9.727328,-0.017462183,-0.001497272,-0.0044931434,-0.07760786265134811,0.002175130881369114,-0.6313283443450928,1001.7769,
2021.05.19 17:57:17,87.0,84.0,8.073181,6.992364,-23.715002,0.013471797,0.8015544,9.806082,-0.015504644,0.0052141617,4.531918E-4,-0.08155912905931473,-0.0013738196576014161,-0.7387137413024902,1001.7769,
2021.05.19 17:57:17,87.0,84.0,7.7705917,7.190754,-23.528006,0.13236082,0.8395236,9.693996,-0.010189269,0.0030926608,-0.0139922965,-0.08637887984514236,-0.013653047382831573,-0.7221955060958862,1001.7769,
2021.05.19 17:57:17,87.0,84.0,7.5931168,6.8481827,-24.128508,-0.018467633,0.84242606,9.796004,5.4783945E-4,0.0057941605,-0.030139772,-0.08578569442033768,0.0018852187786251307,-0.7038267850875854,1001.7769,
2021.05.19 17:57:17,87.0,84.0,7.7337265,6.231022,-22.722456,-0.024838367,0.8087962,9.639368,0.018297426,-0.012713255,-0.027235111,-0.08370916545391083,0.0025767572224140167,-0.7578127384185791,1001.7769,
2021.05.19 17:57:17,87.0,84.0,7.355339,5.6713266,-23.483656,0.005969186,0.7636528,9.695252,-7.970189E-4,0.0072184145,-0.01631143,-0.0786033421754837,-6.156812887638807E-4,-0.7768118381500244,1001.7769,
2021.05.19 17:57:18,87.0,84.0,7.043686,7.59418,-22.711851,-0.007881125,0.75989825,9.740552,-0.0068865744,0.006169335,-0.022829581,-0.0778561607003212,8.091044146567583E-4,-0.6449894309043884,1001.77686,
2021.05.19 17:57:18,87.0,84.0,7.0709763,6.943492,-24.293959,-0.06944112,0.7355516,9.751733,-0.00872202,0.008737432,-0.015167393,-0.07528332620859146,0.00712077971547842,-0.6673139333724976,1001.77686,
2021.05.19 17:57:18,87.0,84.0,6.8586044,7.5972652,-25.221682,-0.1435206,0.75681883,9.638631,-0.01411627,0.018336944,0.0043747653,-0.07834991067647934,0.014889043755829334,-0.5960572957992554,1001.7763,
2021.05.19 17:57:18,87.0,84.0,7.7103424,6.929078,-23.585691,-0.057662845,0.80845135,9.70143,-0.007091675,0.010251371,0.0153008625,-0.08313965052366257,0.005943676456809044,-0.7066239714622498,1001.77625,
2021.05.19 17:57:18,87.0,84.0,7.1057434,7.7091,-23.567884,0.06327407,0.7915011,9.795808,-0.0068282187,0.01745924,0.009298334,-0.08062314987182617,-0.006459210999310017,-0.6484296917915344,1001.77625,
2021.05.19 17:57:18,87.0,84.0,7.6079407,5.0949287,-24.357454,0.10392811,0.7978839,9.820958,0.022954853,0.012033581,-0.02530256,-0.08106041699647903,-0.01058188360184431,-0.8404380679130554,1001.77563,
2021.05.19 17:57:18,87.0,84.0,7.3680725,7.551483,-22.551344,-0.12222917,0.8557938,9.60176,0.031612147,0.0095016435,-0.01783019,-0.0888867899775505,0.01272918377071619,-0.6388952732086182,1001.7753,
2021.05.19 17:57:18,87.0,84.0,7.128044,5.7871428,-22.382547,-0.041379165,0.784513,9.730765,0.010041198,0.008107048,0.003277182,-0.08044719696044922,0.004252380691468716,-0.7486591339111328,1001.77515,
2021.05.19 17:57:18,87.0,84.0,8.421539,6.616685,-22.52283,-6.4013404E-4,0.7855029,9.679153,-2.580844E-4,-0.013156944,0.009609239,-0.08097663521766663,6.613533332711086E-5,-0.7855864763259888,1001.775,
2021.05.19 17:57:18,87.0,84.0,7.8467636,7.6921186,-22.584726,-0.022711763,0.7958541,9.67373,-0.005455413,-0.009752449,-0.011208698,-0.0820845365524292,0.002347772940993309,-0.6860463619232178,1001.775,
2021.05.19 17:57:18,87.0,84.0,7.685219,7.5689144,-23.752596,-0.0680375,0.819249,9.721848,-0.016858032,-0.013393343,-0.005774536,-0.0840681791305542,0.006998298689723015,-0.6674060225486755,1001.7749,
2021.05.19 17:57:18,87.0,84.0,6.870102,6.9176674,-23.494795,-0.0078269355,0.8134082,9.730954,-0.013187129,-0.017579269,-0.0072813905,-0.08339586853981018,8.043336565606296E-4,-0.6587122678756714,1001.7747,
2021.05.19 17:57:18,87.0,84.0,8.631531,5.9345274,-22.737532,-0.04843848,0.8511115,9.647925,-0.0040391795,-0.013840359,-0.01751508,-0.08798815310001373,0.005020568612962961,-0.8221337199211121,1001.7744,
2021.05.19 17:57:18,87.0,84.0,7.625305,8.714122,-21.790213,-0.023310358,0.7560406,9.766709,-0.008970727,-0.0115568265,-0.011975116,-0.07725567370653152,0.002386711072176695,-0.6307191252708435,1001.7744,
2021.05.19 17:57:19,87.0,84.0,6.907425,6.6071177,-22.96969,-0.06456005,0.77272266,9.685208,-0.0050781537,-0.012104855,-0.009559764,-0.07961338758468628,0.0066657415591180325,-0.6762534976005554,1001.7744,
2021.05.19 17:57:19,87.0,84.0,7.424141,5.7610016,-20.98453,-0.058831166,0.82212305,9.629256,-0.023335952,-0.0011940841,0.016720265,-0.08516950160264969,0.006109551060944796,-0.7696670293807983,1001.77423,
2021.05.19 17:57:19,87.0,84.0,7.6464233,7.894558,-23.285513,0.08821258,0.75845355,9.806375,-0.0050936444,-0.0026125025,-0.0012773629,-0.07718612998723984,-0.008995190262794495,-0.6826801896095276,1001.774,
2021.05.19 17:57:19,87.0,84.0,6.76548,7.894246,-23.474188,0.100642405,0.79596907,9.765143,-0.0014906358,0.0057651205,-0.019422382,-0.0813271552324295,-0.010305926203727722,-0.6222065091133118,1001.7725,
2021.05.19 17:57:19,87.0,84.0,6.7833176,7.407688,-23.847052,0.047097135,0.7667573,9.72614,0.0020861784,0.001712805,-0.03052638,-0.07867106795310974,-0.004842287395149469,-0.6404851675033569,1001.7725,
2021.05.19 17:57:19,87.0,84.0,7.82283,6.430825,-23.677038,0.022889467,0.73341084,9.703307,-0.004438853,0.008392796,-0.03556991,-0.0754399523139,-0.0023589301854372025,-0.7656810879707336,1001.7725,
2021.05.19 17:57:19,87.0,84.0,6.7785797,7.1376104,-22.796515,-0.028688604,0.75357753,9.70467,-0.006208918,0.012358552,-0.03287307,-0.07749518007040024,0.002956156386062503,-0.6470382213592529,1001.7725,
2021.05.19 17:57:19,87.0,84.0,6.7211227,6.505247,-22.534563,-0.014095638,0.7180039,9.735245,-0.01066252,0.009652797,-0.032664634,-0.07361967116594315,0.0014478967059403658,-0.6874712109565735,1001.7725,
2021.05.19 17:57:19,87.0,84.0,8.010895,8.050757,-22.798468,-0.077537276,0.7386885,9.699529,-0.008486761,7.6586E-5,-0.025334222,-0.07600801438093185,0.007993752136826515,-0.6758379340171814,1001.7725,
2021.05.19 17:57:19,87.0,84.0,7.014702,7.609164,-24.678614,0.025787907,0.6971905,9.846267,-0.01392728,0.012521173,-0.007292282,-0.0706893801689148,-0.002619048347696662,-0.6489903330802917,1001.7725,
2021.05.19 17:57:19,87.0,84.0,8.143379,7.8521223,-22.83898,-0.048840906,0.70055217,9.712948,0.007314291,4.8770622E-4,-0.02239173,-0.07200001180171967,0.005028390791267157,-0.7028007507324219,1001.7725,
2021.05.19 17:57:19,87.0,84.0,8.033981,8.793312,-23.150171,-0.091398716,0.70186776,9.625789,-0.007965728,0.006521615,-0.005910763,-0.07278327643871307,0.009494907222688198,-0.6416378617286682,1001.7733,
2021.05.19 17:57:19,87.0,84.0,6.2034683,7.6711206,-22.758936,-0.07767075,0.6832202,9.786277,0.0011324588,1.6080386E-4,-0.0076098023,-0.06969882547855377,0.007936534471809864,-0.5775981545448303,1001.7734,
2021.05.19 17:57:20,87.0,84.0,8.873245,9.077236,-23.320356,-0.05267623,0.7306004,9.678538,-0.0062399628,0.0057535633,0.0018017818,-0.07534264028072357,0.005442527122795582,-0.6802347898483276,1001.7741,
2021.05.19 17:57:20,87.0,84.0,7.097145,7.9080496,-22.769598,-0.012845493,0.69443065,9.754131,-0.002950975,-0.009147104,-0.0073062154,-0.0710735097527504,0.0013169277226552367,-0.6393054723739624,1001.7741,
2021.05.19 17:57:20,87.0,84.0,6.5130234,6.6041327,-23.56811,-0.06799582,0.74575263,9.794724,0.0066831345,-0.014600214,-0.008780476,-0.0759897530078888,0.00694197416305542,-0.6485242247581482,1001.77423,
2021.05.19 17:57:20,87.0,84.0,7.9327545,8.076091,-23.54867,0.013862525,0.6768859,9.829805,8.918799E-4,-0.010157281,0.025200583,-0.06875196099281311,-0.0014102533459663391,-0.6888718008995056,1001.7744,
2021.05.19 17:57:20,87.0,84.0,7.788025,9.141244,-23.275942,-0.07141075,0.75741965,9.663703,0.01956357,-0.00822767,0.0027511711,-0.07821576297283173,0.007389450445771217,-0.608286440372467,1001.7744,
2021.05.19 17:57:20,87.0,84.0,6.704033,7.5560226,-23.035204,-0.095859826,0.76200104,9.659752,0.0058219754,-0.02854187,0.026292466,-0.07871724665164948,0.009923307225108147,-0.6057344079017639,1001.7749,
2021.05.19 17:57:20,87.0,84.0,6.7953568,7.655986,-23.364317,0.050322462,0.71610194,9.553061,-0.040494703,0.0030676725,0.009397382,-0.07481950521469116,-0.00526763079687953,-0.635577917098999,1001.7749,
2021.05.19 17:57:20,87.0,84.0,8.179802,6.7923813,-23.886251,0.11055067,0.73254377,9.809649,-0.026212577,-0.010943778,-0.027085634,-0.07453276962041855,-0.011269107460975647,-0.7797046303749084,1001.7749,
2021.05.19 17:57:20,87.0,84.0,6.521675,9.274417,-22.473177,0.059690174,0.7905448,9.655175,-0.046219733,0.0051910677,-0.028260289,-0.08169402927160263,-0.006182115990668535,-0.5414848923683167,1001.7749,
2021.05.19 17:57:20,87.0,84.0,8.044235,8.259544,-22.627703,-0.0016253926,0.7342663,9.82653,-0.024492614,5.195788E-4,-0.04476516,-0.0745842382311821,1.654085936024785E-4,-0.6809934377670288,1001.77515,
2021.05.19 17:57:20,87.0,84.0,6.907173,7.709508,-23.319807,-0.040080085,0.7317205,9.72923,-0.024892572,0.0094812345,-0.035060924,-0.07506652176380157,0.0041195303201675415,-0.6250762343406677,1001.7754,
2021.05.19 17:57:20,87.0,84.0,7.656601,8.698797,-23.039877,-0.044812992,0.7118167,9.756865,-0.0076040924,0.006095654,-0.030931802,-0.07282569259405136,0.004592938348650932,-0.6300593018531799,1001.7754,
2021.05.19 17:57:20,87.0,84.0,8.171463,7.5224466,-22.620375,-0.025524274,0.6686757,9.722309,0.003923172,-0.0055579827,-0.016481094,-0.06866908818483353,0.002625324297696352,-0.7303451299667358,1001.7754,
2021.05.19 17:57:21,87.0,84.0,8.767151,8.288484,-22.318281,-0.05573946,0.6566422,9.746331,-0.0033247431,0.0024684216,-0.016041666,-0.06727050989866257,0.005718957167118788,-0.723891019821167,1001.7749,
2021.05.19 17:57:21,87.0,84.0,8.093292,8.17488,-22.90838,-0.012060683,0.6891015,9.6675415,0.008209563,-0.007392603,-0.01797579,-0.07115950435400009,0.001247543259523809,-0.6893845200538635,1001.7749,
2021.05.19 17:57:21,87.0,84.0,7.4991226,8.336278,-23.45049,0.021260783,0.7249365,9.755164,-7.08041E-4,0.005275709,-0.011767039,-0.07417657971382141,-0.002179435221478343,-0.6443092226982117,1001.7744,
2021.05.19 17:57:21,87.0,84.0,8.0457535,8.830416,-22.692007,-0.020304209,0.6647951,9.795429,0.005276926,0.0142678805,-0.01672081,-0.06776382774114609,0.0020728218369185925,-0.658050537109375,1001.7744,
2021.05.19 17:57:21,87.0,84.0,7.6216965,8.046512,-23.14786,-0.092481196,0.6653894,9.6704445,0.0019765722,0.008773085,-0.009451179,-0.06869509071111679,0.009562991559505463,-0.655626654624939,1001.77454,
2021.05.19 17:57:21,87.0,84.0,9.216621,9.3823185,-23.616262,0.026951827,0.65828145,9.789078,-0.023939926,0.016781442,0.0075812493,-0.06714517623186111,-0.0027532479725778103,-0.7033903002738953,1001.7753,
2021.05.19 17:57:21,87.0,84.0,8.01889,7.9067383,-22.31219,-0.018514061,0.68326235,9.767464,-0.013089737,0.0017377335,-0.022675166,-0.0698389932513237,0.0018954806728288531,-0.701282799243927,1001.7754,
2021.05.19 17:57:21,87.0,84.0,7.792877,8.376801,-23.363604,-0.05635296,0.66816443,9.726443,1.15259085E-4,-0.0088599585,-0.02769264,-0.06858675926923752,0.005793724209070206,-0.6553680896759033,1001.7754,
2021.05.19 17:57:21,87.0,84.0,6.977844,10.068397,-22.872103,-0.028921215,0.6247917,9.700762,-0.0077616926,-4.5522378E-4,-0.03603712,-0.06431733071804047,0.00298132561147213,-0.5403072834014893,1001.7754,
2021.05.19 17:57:21,87.0,84.0,7.6783524,8.513925,-23.1504,-0.10081592,0.65426016,9.7156725,-0.008206436,-8.4624987E-4,-0.03281126,-0.06723558157682419,0.010376255959272385,-0.6368643641471863,1001.7754,
2021.05.19 17:57:21,87.0,84.0,7.733238,7.9993086,-23.24198,-0.094012745,0.648298,9.7259865,-0.0074895266,-0.0044437475,-0.019826565,-0.0665547177195549,0.009665838442742825,-0.6671761870384216,1001.7754,
2021.05.19 17:57:21,87.0,84.0,7.5511017,9.650596,-23.289988,-0.04359143,0.5984814,9.775848,0.0028295845,-0.019990705,-0.017482657,-0.06114348769187927,0.004459064919501543,-0.5927048921585083,1001.7754,
2021.05.19 17:57:21,87.0,84.0,8.043098,8.185323,-23.25236,0.009107528,0.6259682,9.660354,-0.009045091,-9.455383E-4,-0.02516652,-0.06470715999603271,-9.427735349163413E-4,-0.6950826048851013,1001.7754,
2021.05.19 17:57:21,87.0,84.0,6.773247,11.153775,-24.586683,-0.10702381,0.65370667,9.676577,0.010045448,-0.025953911,-0.025020404,-0.06744897365570068,0.011059639975428581,-0.47023648023605347,1001.7754,
2021.05.19 17:57:22,87.0,84.0,8.043343,8.443142,-23.930002,-0.04176092,0.5731865,9.666612,0.008794202,-0.01608076,0.0040727085,-0.059225596487522125,0.004320092964917421,-0.6785950064659119,1001.7754,
2021.05.19 17:57:22,87.0,84.0,7.645363,9.724867,-24.151033,0.01397789,0.5835572,9.785089,0.019003514,-0.007580081,0.0040574106,-0.05956678465008736,-0.0014284878270700574,-0.6033748388290405,1001.7755,
2021.05.19 17:57:22,87.0,84.0,8.552681,8.71101,-23.886713,-0.07667321,0.68187875,9.923623,0.072928905,0.0055033546,0.01946962,-0.06860280781984329,0.007726178504526615,-0.6807282567024231,1001.7756,
2021.05.19 17:57:22,87.0,84.0,9.1623535,8.505007,-24.15351,-0.10752851,0.82156664,9.622415,0.019328512,-0.09682889,0.07878176,-0.08516864478588104,0.011174329556524754,-0.7009076476097107,1001.7758,
2021.05.19 17:57:22,87.0,84.0,7.1536713,9.159445,-23.569921,0.17435674,0.6261353,9.958751,0.086541645,-0.18573543,0.047045525,-0.06278062611818314,-0.017506103962659836,-0.6193200945854187,1001.77594,
2021.05.19 17:57:22,87.0,84.0,7.2896194,8.306976,-23.796934,0.23913033,0.8292778,9.529752,0.06163893,-0.11929533,0.037560232,-0.08677403628826141,-0.025087762624025345,-0.6523141860961914,1001.77594,
2021.05.19 17:57:22,87.0,84.0,7.7123566,7.7501516,-24.238737,0.2804833,0.8132985,10.080868,0.19669378,-0.15753607,0.05936651,-0.08047205954790115,-0.027816152200102806,-0.715001106262207,1001.77594,
2021.05.19 17:57:22,87.0,84.0,7.381729,6.544636,-24.56013,0.35325527,1.0528318,8.960838,-0.06515695,0.04631599,0.10512656,-0.11686639487743378,-0.03940172120928764,-0.729763925075531,1001.77594,
