Time,X-cord,Y-cord,Mag_x,Mag_y,Mag_z,Acc_x,Acc_y,Acc_z,Gyro_x,Gyro_y,Gyro_z,Orn_x,Orn_y,Orn_z,Pressure,
2021.05.19 18:10:43,17.0,26.0,1.279747,49.755783,-27.404451,0.22411013,0.8290236,9.7827215,-0.019328324,-0.020309214,0.023093969,-0.08451960235834122,-0.022904764860868454,-0.03673625364899635,1001.5994,
2021.05.19 18:10:43,17.0,26.0,-0.3718338,47.653107,-28.642374,0.13280515,1.2210358,9.3024,0.14626643,-0.09240011,0.02336706,-0.13050101697444916,-0.014275471679866314,-7.272823131643236E-4,1001.5956,
2021.05.19 18:10:43,17.0,26.0,1.4474411,48.658333,-27.94584,0.37064514,0.85637075,9.96469,-0.08200167,0.008403069,0.05246472,-0.08567092567682266,-0.03717871382832527,-0.04881991073489189,1001.5958,
2021.05.19 18:10:43,17.0,26.0,1.4040298,47.970337,-29.229212,0.2991778,0.90118665,9.78024,0.0018810631,-0.017720804,0.008576831,-0.0918414294719696,-0.030580488964915276,-0.04550605267286301,1001.596,
2021.05.19 18:10:43,17.0,26.0,-0.70155334,49.203827,-28.277243,0.13357377,1.0590949,9.765334,0.02289414,0.0053227497,-0.04811087,-0.10802227258682251,-0.013677509501576424,0.006056483369320631,1001.5965,
2021.05.19 18:10:43,17.0,26.0,2.6873322,48.63813,-29.827127,0.2490608,0.95597315,9.760252,0.025178777,0.0044949795,-0.023204766,-0.09760255366563797,-0.0255123283714056,-0.06709132343530655,1001.597,
2021.05.19 18:10:43,17.0,26.0,0.7955475,48.737602,-30.347883,0.29052034,0.8582781,9.537692,0.03857302,-0.009540668,-0.02750847,-0.08970492333173752,-0.030450820922851562,-0.03352736681699753,1001.5976,
2021.05.19 18:10:43,17.0,26.0,0.4073105,48.288956,-27.944082,0.23482162,0.8133817,9.457745,-0.027619869,-0.0021929184,-0.059970234,-0.08576425164937973,-0.024823399260640144,-0.021792666986584663,1001.5976,
2021.05.19 18:10:44,17.0,26.0,0.16970825,49.22032,-28.092928,-0.17153744,1.1843343,9.840463,-0.057412483,0.02875219,-0.06312175,-0.11975938826799393,0.017430083826184273,0.006126512307673693,1001.5976,
2021.05.19 18:10:44,17.0,26.0,-0.35949707,49.164124,-26.821238,0.0123450905,1.0942096,9.918125,-0.04569435,0.03241254,0.008852247,-0.10987978428602219,-0.0012446993496268988,0.006294447463005781,1001.5976,
2021.05.19 18:10:44,17.0,26.0,-0.31468964,49.03161,-28.160467,0.20653087,0.9089505,9.852924,-0.005817903,0.027684443,0.069608375,-0.09197138994932175,-0.0209583081305027,-0.005359375383704901,1001.5976,
2021.05.19 18:10:44,17.0,26.0,1.0497055,48.028183,-27.547052,0.28594777,0.834084,9.631003,0.027731486,0.012404827,0.049967594,-0.08635064959526062,-0.029681621119379997,-0.0371536985039711,1001.59924,
2021.05.19 18:10:44,17.0,26.0,1.1233902,48.902435,-27.49323,-0.03951371,1.0388384,9.527457,0.009366504,0.0047363774,0.019233027,-0.10860628634691238,0.00414732750505209,-0.019560644403100014,1001.6007,
2021.05.19 18:10:44,17.0,26.0,1.1410141,48.552284,-28.176332,-0.08898193,1.080478,9.727048,-0.011447245,0.01285243,0.06586811,-0.11062164604663849,0.00914763007313013,-0.017192643135786057,1001.6007,
2021.05.19 18:10:44,17.0,26.0,1.6130753,49.091316,-27.418638,0.04232097,0.9942805,9.743535,0.014586556,0.01972929,0.062181458,-0.10169219225645065,-0.004343464970588684,-0.03354296833276749,1001.6008,
2021.05.19 18:10:44,17.0,26.0,0.7463989,47.907837,-27.850286,0.083167754,0.9303352,9.6999445,0.009868714,0.013981633,0.05562904,-0.09561542421579361,-0.008573833853006363,-0.019564690068364143,1001.60114,
2021.05.19 18:10:44,17.0,26.0,1.4698792,48.50123,-28.087126,0.09614881,1.0368041,9.591064,-0.010121142,0.019398816,0.041704856,-0.10767751187086105,-0.010024496354162693,-0.03416817635297775,1001.60114,
2021.05.19 18:10:44,17.0,26.0,1.0968018,48.444805,-27.401182,0.13700722,1.0498508,9.869884,-0.027998935,0.022139207,0.036478363,-0.10596051812171936,-0.013880450278520584,-0.02891395054757595,1001.60114,
2021.05.19 18:10:44,17.0,26.0,2.0295029,48.111744,-28.442606,0.055871964,1.1270308,9.818139,-0.005025848,0.024124056,0.007753462,-0.11428860574960709,-0.005690626334398985,-0.04290705919265747,1001.60126,
2021.05.19 18:10:44,17.0,26.0,2.3276138,48.663383,-29.293718,0.085757226,1.0255042,9.776772,0.024248645,0.00811809,0.008414146,-0.104505755007267,-0.008771303109824657,-0.05018897354602814,1001.60126,
2021.05.19 18:10:44,17.0,26.0,3.547966,47.97433,-29.071863,0.09683711,0.9620183,9.532613,0.006797999,-0.0034580051,-0.015306734,-0.10057295858860016,-0.010158156976103783,-0.07573479413986206,1001.60114,
2021.05.19 18:10:45,17.0,26.0,2.234909,47.261253,-27.83327,-0.051146477,1.0978165,9.514545,-0.04082933,0.03900839,0.040193062,-0.11487332731485367,0.005375557113438845,-0.04156362637877464,1001.60114,
2021.05.19 18:10:45,17.0,26.0,2.5834808,48.73448,-29.23792,-0.0614204,1.0509332,9.841899,-0.02988538,-0.0074268985,0.045596667,-0.10637639462947845,0.006240624934434891,-0.04652836173772812,1001.6008,
2021.05.19 18:10:45,17.0,26.0,3.1927261,48.5578,-28.158247,0.074333005,0.95602053,9.681992,-0.0040623145,-0.030689403,0.018044828,-0.09842021018266678,-0.007677298970520496,-0.06662656366825104,1001.6008,
2021.05.19 18:10:45,17.0,26.0,2.4147873,48.186783,-28.838606,0.112899035,0.96818113,9.706458,0.0017675975,-0.036677584,-0.0024155146,-0.09941055625677109,-0.011630808003246784,-0.05407317355275154,1001.6007,
2021.05.19 18:10:45,17.0,26.0,2.241394,48.07345,-28.250261,0.13502555,0.98642707,9.650203,0.014239962,-0.0045853024,-0.01721684,-0.1018545851111412,-0.013991078361868858,-0.05196034908294678,1001.60034,
2021.05.19 18:10:45,17.0,26.0,1.6796875,48.321857,-27.656694,0.04351553,1.026157,9.654266,0.01699428,-0.011515376,-0.04042872,-0.10589186102151871,-0.004507357720285654,-0.035382602363824844,1001.6001,
2021.05.19 18:10:45,17.0,26.0,2.1488037,48.665756,-27.942987,-0.033898707,1.052118,9.736289,-0.0142104,-0.018884301,-0.05161775,-0.10764314234256744,0.0034816726110875607,-0.03990146145224571,1001.6001,
2021.05.19 18:10:45,17.0,26.0,2.5138092,49.601646,-28.595373,0.06818753,1.0271181,9.752593,0.0018801058,-0.034192227,-0.038436767,-0.10492807626724243,-0.006991618778556585,-0.051818568259477615,1001.6001,
2021.05.19 18:10:45,17.0,26.0,1.889885,48.896233,-27.52859,0.09427452,1.0138608,9.605596,-0.019313728,-0.028604839,-0.023332411,-0.1051545962691307,-0.009814226999878883,-0.041905470192432404,1001.6001,
2021.05.19 18:10:45,17.0,26.0,0.58864594,49.320427,-28.80829,0.1472277,1.0005451,9.6154785,-0.038240295,-0.031982396,-0.024321973,-0.10367048531770706,-0.015310334973037243,-0.0197843499481678,1001.6001,
2021.05.19 18:10:45,17.0,26.0,1.5654526,48.168716,-28.5441,0.15431406,0.9674332,9.842597,-0.019955551,-0.03171579,-0.022293681,-0.09796377271413803,-0.01567690074443817,-0.03965691104531288,1001.6001,
2021.05.19 18:10:45,17.0,26.0,1.3404922,49.162804,-27.393488,0.13750705,1.0379888,9.689602,0.0073740818,-0.01174992,-0.02610538,-0.10670635849237442,-0.014190245419740677,-0.03336828202009201,1001.6001,
2021.05.19 18:10:45,17.0,26.0,1.45018,49.672653,-28.115736,0.16523273,0.9884127,9.725555,0.0029956244,-0.012066893,-0.029942757,-0.10126819461584091,-0.016987906768918037,-0.036869291216135025,1001.60034,
2021.05.19 18:10:45,17.0,26.0,1.2367706,50.518814,-27.908354,0.13000393,0.9472437,9.71787,0.008004732,6.847307E-4,-0.03627783,-0.09715882688760757,-0.013377023860812187,-0.030375655740499496,1001.6007,
2021.05.19 18:10:46,17.0,26.0,0.917984,48.392876,-28.077158,0.039427202,0.957166,9.632684,-0.0064374562,-0.0029841156,-0.018644392,-0.09904055297374725,-0.004093042574822903,-0.020277315750718117,1001.6007,
2021.05.19 18:10:46,17.0,26.0,2.2183151,49.18599,-29.221598,0.048209816,0.931474,9.604344,-0.02336373,-0.0011201432,-0.004261758,-0.09668105840682983,-0.005019542295485735,-0.045645181089639664,1001.6008,
2021.05.19 18:10:46,17.0,26.0,1.1811142,49.411934,-28.659765,0.21022248,0.940543,9.829135,-0.038132686,0.012024651,0.0010428433,-0.09537714719772339,-0.021384429186582565,-0.03453727811574936,1001.6012,
2021.05.19 18:10:46,17.0,26.0,1.0336151,49.482384,-28.730143,0.11455365,0.93680596,9.740171,-0.019687075,0.0012565651,-0.020726742,-0.09587808698415756,-0.011760407127439976,-0.026365136727690697,1001.6012,
2021.05.19 18:10:46,17.0,26.0,0.7752762,50.022896,-28.186415,0.031435084,0.9590581,9.65899,-0.013724039,-1.4522701E-4,1.9154418E-4,-0.09896685928106308,-0.0032544780988246202,-0.01649312488734722,1001.6012,
2021.05.19 18:10:46,17.0,26.0,1.0128403,49.092705,-28.364187,0.11011673,0.90348464,9.737284,-0.0147736175,0.0014476117,0.013998106,-0.09251532703638077,-0.011308290995657444,-0.02588682621717453,1001.6012,
2021.05.19 18:10:46,17.0,26.0,1.5661011,49.467827,-28.247694,0.22337778,0.84433347,9.692683,-0.014996885,0.0035976926,-0.009411474,-0.08686810731887817,-0.023041943088173866,-0.042822908610105515,1001.6008,
2021.05.19 18:10:46,17.0,26.0,1.8052444,49.991302,-27.735498,0.114391506,0.8582218,9.771544,-0.008162678,0.0015104907,-0.019304585,-0.08759791404008865,-0.011706058867275715,-0.04075911268591881,1001.6007,
2021.05.19 18:10:46,17.0,26.0,0.1947174,49.530914,-27.408354,0.052553613,0.9304834,9.67809,-0.014575652,0.0063419393,-0.0016952599,-0.09584727883338928,-0.005430110264569521,-0.0066158827394247055,1001.6005,
2021.05.19 18:10:46,17.0,26.0,1.1924133,50.047462,-29.155848,0.15374462,0.87004155,9.762442,-0.008180177,0.0052849553,-0.0020865519,-0.08887550979852676,-0.015747280791401863,-0.03148282691836357,1001.6005,
2021.05.19 18:10:46,17.0,26.0,1.2036972,50.355988,-29.250471,0.0901013,0.8698792,9.682784,3.9116514E-4,-0.0043369187,-0.012636956,-0.0895933285355568,-0.009305041283369064,-0.027959678322076797,1001.6005,
2021.05.19 18:10:46,17.0,26.0,2.2450256,49.2623,-26.427015,0.10769483,0.85045415,9.721268,-0.008194661,0.008474771,-0.009298406,-0.08725637942552567,-0.011077816598117352,-0.049353692680597305,1001.6003,
2021.05.19 18:10:46,17.0,26.0,0.97397614,49.534798,-28.673365,0.058981944,0.8591528,9.674815,-0.011792302,0.00507485,-0.0063317455,-0.0885690450668335,-0.006096365861594677,-0.02214059606194496,1001.6001,
2021.05.19 18:10:47,17.0,26.0,0.7034073,50.22194,-28.247343,0.08750582,0.8510001,9.666598,-0.020860396,0.010392284,-0.007648807,-0.08780515193939209,-0.00905214250087738,-0.018264345824718475,1001.6001,
2021.05.19 18:10:47,17.0,26.0,0.55648804,49.299347,-28.065096,0.1166429,0.84583145,9.780134,-0.01744669,0.006795381,-0.0054660677,-0.08626388013362885,-0.011925947852432728,-0.017290852963924408,1001.60004,
2021.05.19 18:10:47,17.0,26.0,2.6634674,49.136086,-29.222692,0.14303987,0.8321244,9.7604,-0.00563661,0.0067537976,-0.023010334,-0.08504041284322739,-0.014654074795544147,-0.06002839282155037,1001.59955,
2021.05.19 18:10:47,17.0,26.0,0.7819061,48.439213,-28.017687,0.056132566,0.8308227,9.702843,-0.011695171,0.004510189,-0.017664412,-0.08541695028543472,-0.005785102490335703,-0.018634198233485222,1001.5994,
2021.05.19 18:10:47,17.0,26.0,0.22608948,49.65589,-27.563013,0.08372118,0.7960804,9.779678,-0.015916692,0.0010172254,-0.016650708,-0.08121944963932037,-0.008560520596802235,-0.008931688033044338,1001.5988,
2021.05.19 18:10:47,17.0,26.0,0.743927,50.656242,-28.077028,0.078504,0.8068717,9.687954,-0.0029575566,0.0024016106,-0.021748567,-0.08309159427881241,-0.008103081956505775,-0.018391959369182587,1001.5988,
2021.05.19 18:10:47,17.0,26.0,1.1779251,50.385765,-28.22111,0.05109595,0.7751126,9.774727,0.0017749089,-0.002468517,-0.027975827,-0.07913096249103546,-0.005227305926382542,-0.02526090107858181,1001.5988,
2021.05.19 18:10:47,17.0,26.0,1.1343918,49.706512,-27.501825,0.024533555,0.7920539,9.751931,0.0072470345,-0.00444102,-0.022301517,-0.08104205876588821,-0.0025157583877444267,-0.02324456162750721,1001.5988,
2021.05.19 18:10:47,17.0,26.0,0.8121338,49.621223,-27.881262,0.0017582886,0.8001127,9.768796,0.0098137455,-0.007822931,-0.004822309,-0.08172252774238586,-1.7999031115323305E-4,-0.01579468511044979,1001.5988,
2021.05.19 18:10:47,17.0,26.0,-0.009109497,49.250137,-27.954859,0.0234436,0.76571774,9.671017,0.012372721,-0.005871448,-0.0010774499,-0.07901148498058319,-0.0024241043720394373,-0.0011433250037953258,1001.59894,
2021.05.19 18:10:47,17.0,26.0,-0.13917542,50.2629,-28.498838,0.029170528,0.7533595,9.680825,-4.7905394E-4,-0.0043227854,0.0066528446,-0.0776628777384758,-0.003013218054547906,0.0010187141597270966,1001.59894,
2021.05.19 18:10:47,17.0,26.0,0.6396637,49.71119,-28.658068,0.07167324,0.803186,9.777425,-0.002912822,-0.00624288,0.01223892,-0.0819607526063919,-0.007330350577831268,-0.0163738913834095,1001.59894,
2021.05.19 18:10:47,17.0,26.0,1.6457214,50.408722,-27.134623,0.08062178,0.7909939,9.666474,0.012117526,-0.007041196,0.013846317,-0.08164384961128235,-0.008340156637132168,-0.03567367419600487,1001.59894,
2021.05.19 18:10:48,17.0,26.0,0.2048111,50.05124,-27.915659,0.070901655,0.8211835,9.678544,-0.009524982,0.005161936,0.006422524,-0.08464078605175018,-0.007325522135943174,-0.00783606432378292,1001.59894,
2021.05.19 18:10:48,17.0,26.0,1.353859,49.215897,-27.53726,0.004042452,0.8699188,9.782212,0.002745837,7.479618E-4,0.017976152,-0.08869531005620956,-4.1324517223984003E-4,-0.026523038744926453,1001.59894,
2021.05.19 18:10:48,17.0,26.0,1.1283188,49.511818,-27.263151,0.069355644,0.8717287,9.718476,-5.237665E-5,0.0027582643,0.022549676,-0.08945640921592712,-0.007136351894587278,-0.025557365268468857,1001.59894,
2021.05.19 18:10:48,17.0,26.0,0.55709076,50.60756,-27.69058,0.16427714,0.8494024,9.7253065,0.005024694,-0.0031849872,0.007928316,-0.08710595965385437,-0.016890110448002815,-0.019395872950553894,1001.59894,
2021.05.19 18:10:48,17.0,26.0,0.8006897,50.0756,-27.882074,0.15459968,0.8725911,9.695697,3.6481267E-4,8.886655E-4,-0.012161758,-0.08974462002515793,-0.01594383455812931,-0.023770203813910484,1001.59894,
2021.05.19 18:10:48,17.0,26.0,0.17841339,48.884933,-27.500952,0.10156686,0.9024873,9.751435,0.0068888348,-0.0024244422,-0.015011897,-0.09228130429983139,-0.010415203869342804,-0.00907647144049406,1001.59894,
2021.05.19 18:10:48,17.0,26.0,1.0188904,48.69413,-27.527464,0.07344412,0.8916977,9.695365,0.0030849841,-0.008640964,-0.019339083,-0.09171091765165329,-0.007575034163892269,-0.024057045578956604,1001.59894,
2021.05.19 18:10:48,17.0,26.0,-0.4239807,49.812447,-28.529253,0.09497664,0.859989,9.728555,0.0069067646,-0.0071417573,-0.025753057,-0.08816506713628769,-0.009762357920408249,0.0027901078574359417,1001.59894,
2021.05.19 18:10:48,17.0,26.0,1.5330505,49.58008,-28.41059,0.06679615,0.8932367,9.651284,-0.002736868,0.0014050411,-0.026381595,-0.09228596836328506,-0.00692084850743413,-0.03325880318880081,1001.59894,
2021.05.19 18:10:48,17.0,26.0,0.72795105,49.389275,-28.165834,0.0370622,0.8572035,9.7953615,0.016455675,0.0015287265,-0.023489095,-0.08728817850351334,-0.003783630207180977,-0.016153700649738312,1001.5988,
2021.05.19 18:10:48,17.0,26.0,0.35274506,50.37622,-28.998205,-0.027527591,0.9037771,9.61378,-0.0015936932,-4.3280685E-4,-0.0076121762,-0.09373264759778976,0.0028633393812924623,-0.005101445131003857,1001.59814,
2021.05.19 18:10:48,17.0,26.0,0.5868454,49.749817,-28.10988,0.041511018,0.87914544,9.6519165,-0.016801622,-0.0018820032,0.0016845516,-0.09083358198404312,-0.0043007791973650455,-0.013584800995886326,1001.5981,
2021.05.19 18:10:48,17.0,26.0,0.4302063,49.515556,-27.767427,0.036437932,0.87746686,9.782598,-0.0013331468,-0.0087352535,0.0016191113,-0.08945669233798981,-0.003724753623828292,-0.01030175480991602,1001.59784,
2021.05.19 18:10:48,17.0,26.0,0.77001953,49.33745,-27.748743,0.04620328,0.88395375,9.711732,-0.0019789597,-0.0039170543,0.009398771,-0.09076804667711258,-0.0047574350610375404,-0.017462631687521935,1001.59766,
2021.05.19 18:10:48,17.0,26.0,3.30085,49.48822,-27.351027,0.020996833,0.877775,9.660373,-0.0038238436,-5.120163E-4,0.016252125,-0.0906144306063652,-0.0021734978072345257,-0.06483018398284912,1001.59766,
2021.05.19 18:10:49,17.0,26.0,1.4634628,49.487717,-27.685999,0.052692756,0.87180144,9.742219,-0.006396657,-0.0033516309,0.01793126,-0.0892479196190834,-0.005408648867160082,-0.031157951802015305,1001.59766,
2021.05.19 18:10:49,17.0,26.0,0.6218567,48.00519,-28.538382,0.10167702,0.8640292,9.719832,-0.003960753,8.9752773E-4,0.016913442,-0.08865556120872498,-0.01046039815992117,-0.018279457464814186,1001.5967,
2021.05.19 18:10:49,17.0,26.0,1.7565308,50.16941,-28.728235,0.11894194,0.8215627,9.72405,-0.0026737105,-0.0028375527,2.6705163E-4,-0.08428126573562622,-0.01223111990839243,-0.04019700735807419,1001.5965,
2021.05.19 18:10:49,17.0,26.0,1.0613785,50.02671,-28.678148,0.06462843,0.86272556,9.668168,-0.00964419,0.008141603,0.0019142185,-0.08899591118097305,-0.006684561725705862,-0.023919226601719856,1001.59625,
2021.05.19 18:10:49,17.0,26.0,1.4303818,51.090355,-28.02799,0.050642807,0.8938487,9.71645,-0.007561922,0.018350516,0.008201644,-0.0917339101433754,-0.00521202152594924,-0.029489487409591675,1001.5959,
2021.05.19 18:10:49,17.0,26.0,-0.81544495,49.721695,-28.843199,0.063745186,0.8411668,9.653346,0.009701255,-0.0042181234,-0.0014856346,-0.08691590279340744,-0.006603332702070475,0.012009204365313053,1001.59534,
2021.05.19 18:10:49,17.0,26.0,0.8351898,49.015495,-28.596762,0.0484443,0.85194993,9.646504,-0.0047032675,0.005299449,-0.0079863155,-0.088087297976017,-0.005021911580115557,-0.019062235951423645,1001.5948,
2021.05.19 18:10:49,17.0,26.0,-0.036369324,49.591545,-27.19985,0.025492897,0.8575714,9.804602,-0.012575578,0.01634784,-0.0070693716,-0.08724389970302582,-0.002600089181214571,-6.635271711274981E-4,1001.59424,
2021.05.19 18:10:49,17.0,26.0,0.50614166,49.465965,-27.820944,1.600242E-4,0.8821955,9.726484,0.0049644248,0.0041250587,0.002591156,-0.09045284986495972,-1.6452420823043212E-5,-0.009783981367945671,1001.5941,
2021.05.19 18:10:49,17.0,26.0,1.1449661,48.746338,-25.566286,0.03271495,0.82919526,9.688176,-0.0038365673,0.003219284,0.0014528721,-0.08537982404232025,-0.0033767789136618376,-0.02425779029726982,1001.594,
2021.05.19 18:10:49,17.0,26.0,-0.4299469,48.850266,-26.765272,-0.032568425,0.8273538,9.712199,-0.0032114063,0.007300357,0.008766821,-0.08498142659664154,0.003353339619934559,0.01020065974444151,1001.59393,
2021.05.19 18:10:49,17.0,26.0,0.4640808,49.999977,-27.220106,-0.033276036,0.8599553,9.709874,-0.0024533558,0.0039957473,0.01877479,-0.08833404630422592,0.0034270172473043203,-0.007102339528501034,1001.59393,
2021.05.19 18:10:49,17.0,26.0,1.5259857,50.56727,-27.721266,0.11512471,0.77326244,9.786174,-0.026092088,0.0065000546,0.0245929,-0.07884655147790909,-0.011763473972678185,-0.03519933670759201,1001.5937,
2021.05.19 18:10:50,17.0,26.0,1.4520874,49.836014,-28.102945,0.034621418,0.8909135,9.823775,-0.013535916,0.0029153868,-0.008900112,-0.09044156223535538,-0.003524233354255557,-0.02972322702407837,1001.5937,
2021.05.19 18:10:50,17.0,26.0,1.3171463,49.328094,-27.324175,0.08764273,0.8639088,9.706803,0.014589852,0.014190078,-0.010777927,-0.08876286447048187,-0.009028755128383636,-0.030323253944516182,1001.5937,
2021.05.19 18:10:50,17.0,26.0,2.1123962,49.654816,-27.492163,0.02686724,0.75950336,9.67813,5.5436057E-4,0.012121416,-0.03592228,-0.07831544429063797,-0.00277607049793005,-0.04234795644879341,1001.5937,
2021.05.19 18:10:50,17.0,26.0,0.6529999,50.775436,-27.418837,-0.06536549,0.8442362,9.5164175,-0.004935787,-0.017877582,-0.05570274,-0.08847994357347488,0.0068685999140143394,-0.00876688677817583,1001.5937,
2021.05.19 18:10:50,17.0,26.0,0.61125946,49.883484,-27.89649,-0.06734708,0.81151897,9.769431,-0.04422423,0.010800002,-0.006294908,-0.08287493139505386,0.006893544923514128,-0.00805299635976553,1001.5937,
2021.05.19 18:10:50,17.0,26.0,1.2515411,50.373848,-26.90759,-0.06266593,0.8213892,9.86884,-0.0052092345,-0.0074065556,0.005678274,-0.08303751796483994,0.006349792703986168,-0.02060750313103199,1001.5937,
2021.05.19 18:10:50,17.0,26.0,0.80189514,49.52453,-27.760683,0.059865553,0.76698494,9.713617,-0.006090761,-0.007155647,0.0062991935,-0.07879478484392166,-0.0061629763804376125,-0.01886996440589428,1001.5937,
2021.05.19 18:10:50,17.0,26.0,0.49810028,50.918297,-27.794813,0.090236135,0.72697574,9.748293,-0.010079436,-0.0013913211,-0.01678028,-0.07443370670080185,-0.00925634428858757,-0.014293096959590912,1001.5937,
2021.05.19 18:10:50,17.0,26.0,1.1896896,50.741386,-27.546698,-0.051704373,0.7856409,9.795169,0.010953348,-0.010602039,-0.013522825,-0.0800345316529274,0.005278509575873613,-0.019782058894634247,1001.5937,
2021.05.19 18:10:50,17.0,26.0,1.0378494,50.048073,-27.839544,-0.07851892,0.79062176,9.724839,0.016714973,-0.017309953,0.003164073,-0.08111816644668579,0.008073882199823856,-0.015592251904308796,1001.5937,
2021.05.19 18:10:50,17.0,26.0,1.6182938,49.558,-27.284159,-0.019809643,0.765377,9.707492,0.015639173,-0.02985188,0.016576715,-0.07868101447820663,0.0020406523253768682,-0.030303606763482094,1001.5937,
2021.05.19 18:10:50,17.0,26.0,1.217804,49.972298,-27.246088,-0.0116812,0.83213395,9.730995,0.010088606,-0.0069141113,0.02892534,-0.08530616760253906,0.0012004110030829906,-0.022737354040145874,1001.5939,
2021.05.19 18:10:50,17.0,26.0,0.525795,50.559837,-27.687197,0.018569777,0.82290167,10.243965,0.15485945,-0.10097245,0.030914176,-0.08015813678503036,-0.0018127508228644729,-0.01094683539122343,1001.59393,
2021.05.19 18:10:50,17.0,26.0,0.6436615,50.34256,-28.830465,0.25082007,0.77423334,9.055767,-0.050500423,0.059707988,-0.0073915226,-0.08525621891021729,-0.02769019640982151,-0.0273942518979311,1001.594,
