Time,X-cord,Y-cord,Mag_x,Mag_y,Mag_z,Acc_x,Acc_y,Acc_z,Gyro_x,Gyro_y,Gyro_z,Orn_x,Orn_y,Orn_z,Pressure,
2021.05.19 17:59:28,76.0,85.0,-11.850975,45.03439,-30.783167,-0.04784566,0.73195505,10.272351,0.13276194,0.02198857,0.055679478,-0.07113388180732727,0.004657679237425327,0.24933196604251862,1001.80994,
2021.05.19 17:59:28,76.0,85.0,-10.488815,45.420303,-30.779467,0.08340955,0.78406024,10.018496,0.046038903,0.0015900504,0.058737896,-0.07809938490390778,-0.00832536444067955,0.21135231852531433,1001.8101,
2021.05.19 17:59:28,76.0,85.0,-11.122925,43.02767,-31.65978,0.2563443,0.6007726,9.38967,0.036807634,-0.02591481,0.03729942,-0.06387145817279816,-0.027293888852000237,0.22415710985660553,1001.8103,
2021.05.19 17:59:28,76.0,85.0,-10.94709,44.08203,-30.7637,0.29106036,0.5757321,9.57817,0.008493745,-0.0105497725,-0.034920864,-0.06000891327857971,-0.030378540977835655,0.21482230722904205,1001.8113,
2021.05.19 17:59:28,76.0,85.0,-12.247902,43.475372,-30.666883,-0.031109378,0.73548484,9.77988,0.010438758,-0.030188732,-0.0144184325,-0.07506220042705536,0.003180946223437786,0.26411908864974976,1001.8114,
2021.05.19 17:59:29,76.0,85.0,-11.74221,43.196426,-31.476728,0.06160738,0.63913614,10.007363,-0.0016160535,-0.011027658,0.021893946,-0.06377875804901123,-0.006156126968562603,0.2505689859390259,1001.8118,
2021.05.19 17:59:29,76.0,85.0,-11.95993,44.46331,-30.824125,0.05093932,0.74993753,9.7289,0.026896762,-0.012595665,0.015743462,-0.07693030685186386,-0.005235828924924135,0.24743537604808807,1001.8118,
2021.05.19 17:59:29,76.0,85.0,-11.18354,44.55738,-31.792639,0.09773806,0.8058812,9.612437,-0.001525176,0.00871934,0.032594312,-0.08363743871450424,-0.010167524218559265,0.22676077485084534,1001.8118,
2021.05.19 17:59:29,76.0,85.0,-10.839714,44.361336,-30.092299,0.23247862,0.6801134,9.809166,0.0028619303,-0.0014979098,-0.006841791,-0.06920431554317474,-0.023695705458521843,0.2150266319513321,1001.8118,
2021.05.19 17:59:29,76.0,85.0,-11.108055,42.965744,-30.8411,0.334366,0.6826741,9.519344,-0.0019320694,0.008530304,-0.09110283,-0.07154786586761475,-0.035110462456941605,0.2186528444290161,1001.8114,
2021.05.19 17:59:29,76.0,85.0,-11.82653,44.513092,-31.65817,0.012950248,0.7977044,9.594481,-0.005349369,-0.022740528,-0.07807833,-0.0829511508345604,-0.0013497591717168689,0.2457333356142044,1001.8114,
2021.05.19 17:59:29,76.0,85.0,-11.901489,44.189995,-30.316145,-0.04568848,0.81489205,9.608594,-0.058090925,-0.014456239,-0.019245623,-0.08460526168346405,0.004754924215376377,0.2530079185962677,1001.8114,
2021.05.19 17:59:29,76.0,85.0,-11.443054,44.738297,-30.610735,0.17372675,0.5540364,9.399501,-0.008273624,-0.03289023,-0.09727661,-0.0588650219142437,-0.018480446189641953,0.22987553477287292,1001.8114,
2021.05.19 17:59:29,76.0,85.0,-11.96978,44.170128,-31.922422,-0.28296694,0.76930094,10.22502,-0.05171938,0.029859956,-0.14997806,-0.07506699115037918,0.027666911482810974,0.2700563073158264,1001.8114,
2021.05.19 17:59:29,76.0,85.0,-11.646141,43.900772,-31.907831,-0.18403508,0.9025194,9.81714,-0.0071775625,-0.036332432,-0.082633406,-0.09165932983160019,0.018744109198451042,0.2568146884441376,1001.8113,
2021.05.19 17:59:29,76.0,85.0,-12.039589,44.704132,-31.446257,0.16815417,0.6412087,9.767289,0.0016638373,-0.052834477,0.005480017,-0.06554483622312546,-0.017214352265000343,0.24147222936153412,1001.8103,
2021.05.19 17:59:29,76.0,85.0,-12.537331,42.7054,-30.198732,0.16945231,0.60040873,9.5897455,0.047432274,-0.014387414,-0.013680577,-0.06251810491085052,-0.01766831800341606,0.2633105218410492,1001.8103,
2021.05.19 17:59:29,76.0,85.0,-12.046387,43.415665,-31.193972,-0.068067566,0.57922703,9.7728,0.03378439,-0.04369939,0.017020145,-0.05919861048460007,0.006964888423681259,0.2650463283061981,1001.80994,
2021.05.19 17:59:29,76.0,85.0,-12.120338,42.929054,-31.807474,-0.1817335,0.6700179,9.487958,0.011853518,-0.010795528,0.05144433,-0.07048778980970383,0.019151778891682625,0.2753622233867645,1001.80994,
2021.05.19 17:59:30,76.0,85.0,-12.635948,43.931988,-30.027384,-0.021835605,0.7261162,9.512704,-0.023385227,0.021461688,0.08765566,-0.0761832743883133,0.002295411191880703,0.2689857482910156,1001.8099,
2021.05.19 17:59:30,76.0,85.0,-12.636711,43.89881,-30.41284,0.16621308,0.7625065,9.975301,-0.014628475,-0.0040900973,0.07178838,-0.07628054916858673,-0.016660921275615692,0.2572324872016907,1001.8099,
2021.05.19 17:59:30,76.0,85.0,-12.207375,44.455467,-31.775393,0.027840927,0.8625019,9.808273,0.025428781,-0.01430849,0.043992188,-0.0877101942896843,-0.0028385070618242025,0.2519518733024597,1001.80994,
2021.05.19 17:59:30,76.0,85.0,-11.160461,42.56985,-31.103853,-0.0017784666,0.8654917,10.03275,0.051335193,0.025679335,0.044258736,-0.08605360239744186,1.7726611986290663E-4,0.24277743697166443,1001.8109,
2021.05.19 17:59:30,76.0,85.0,-10.412338,46.335915,-30.827616,-0.06398819,0.8826678,9.665535,0.09864645,-0.0035595796,0.105827875,-0.09106656908988953,0.006620145868510008,0.21360857784748077,1001.8102,
2021.05.19 17:59:30,76.0,85.0,-11.580757,44.567825,-31.05496,0.17585678,0.7451596,9.317042,0.007070141,0.021129806,0.09366791,-0.07979409396648407,-0.018872501328587532,0.23014183342456818,1001.8102,
2021.05.19 17:59:30,76.0,85.0,-10.925476,42.68098,-32.30229,0.27686587,0.8293042,9.643828,-0.041780762,0.026432745,0.0017418456,-0.08574707806110382,-0.028701242059469223,0.217063769698143,1001.80994,
2021.05.19 17:59:30,76.0,85.0,-11.8761215,44.116005,-30.725924,0.092063725,0.89383006,9.668286,-0.05909747,-2.2239983E-6,-0.045551676,-0.09218348562717438,-0.009521950967609882,0.24278731644153595,1001.80963,
2021.05.19 17:59:30,76.0,85.0,-11.48423,45.106434,-30.712782,0.03561569,0.84494835,9.921887,-0.08162691,-0.0044322326,-0.043286845,-0.08495452255010605,-0.0035895928740501404,0.2347717583179474,1001.8095,
2021.05.19 17:59:30,76.0,85.0,-10.619202,42.76928,-31.84242,-0.18304645,0.9704415,9.837181,0.007139663,-0.01683943,0.0030483021,-0.0983152911067009,0.018605465069413185,0.24070149660110474,1001.80963,
2021.05.19 17:59:30,76.0,85.0,-10.958931,44.5429,-30.663603,-0.091037296,0.9356436,9.709122,0.010407434,-0.020375278,0.045655962,-0.09606662392616272,0.009376196190714836,0.23357273638248444,1001.8095,
2021.05.19 17:59:30,76.0,85.0,-11.405998,44.72706,-31.055002,0.01123345,0.79863054,9.807694,0.021130852,-0.01135247,0.041056015,-0.0812496542930603,-0.0011453705374151468,0.23687314987182617,1001.80914,
2021.05.19 17:59:30,76.0,85.0,-11.328445,44.939518,-31.188452,0.14797944,0.73482937,9.618046,0.013714308,-0.0031771858,0.014159268,-0.07624398916959763,-0.015384390018880367,0.2259046584367752,1001.8078,
2021.05.19 17:59:31,76.0,85.0,-11.933487,43.124287,-31.64696,0.015230767,0.86659414,9.909111,-0.026369113,0.0029887557,0.024984684,-0.08723223209381104,-0.0015370456967502832,0.2543245851993561,1001.8078,
2021.05.19 17:59:31,76.0,85.0,-11.998352,44.38978,-31.099016,-0.024799079,0.9252487,9.723339,-0.0070702387,-0.0053310874,0.020933045,-0.09487153589725494,0.002550463890656829,0.25084707140922546,1001.8078,
2021.05.19 17:59:31,76.0,85.0,-11.930046,43.5531,-32.26654,0.10645294,0.7958513,9.655072,0.0029587224,-0.006384813,0.035598155,-0.08223740011453629,-0.01102515123784542,0.24613907933235168,1001.8078,
2021.05.19 17:59:31,76.0,85.0,-11.732803,43.519886,-30.54355,0.26666108,0.6866048,9.705579,-0.008368352,-0.009304916,0.045653213,-0.07059910148382187,-0.02746812254190445,0.23447450995445251,1001.8078,
2021.05.19 17:59:31,76.0,85.0,-11.8330765,44.270443,-32.64663,0.16124357,0.78544384,9.702668,0.0014165968,-0.0010443842,-0.027435502,-0.08076409250497818,-0.016616947948932648,0.23681554198265076,1001.80774,
2021.05.19 17:59:31,76.0,85.0,-11.262817,43.479256,-30.886438,-0.024445144,0.94641703,9.773445,0.0026542582,-0.004165732,0.011011442,-0.09653427451848984,0.002501174807548523,0.24044108390808105,1001.80774,
2021.05.19 17:59:31,76.0,85.0,-11.636505,43.503952,-31.517855,0.12572728,0.8705879,9.824219,0.022254653,-0.0088695055,0.007961668,-0.0883784294128418,-0.01279698871076107,0.2388482391834259,1001.80756,
2021.05.19 17:59:31,76.0,85.0,-11.923065,43.497864,-31.303808,0.20758842,0.7939945,9.655026,0.031877942,-0.0010580261,-0.024573455,-0.08203288167715073,-0.021497242152690887,0.24012018740177155,1001.8069,
2021.05.19 17:59:31,76.0,85.0,-11.533554,43.004456,-31.252539,0.025800863,0.88448095,9.702631,-0.0025334929,-0.013804574,-0.0297343,-0.09090729802846909,-0.0026591550558805466,0.24567312002182007,1001.8067,
2021.05.19 17:59:31,76.0,85.0,-10.220909,44.16893,-32.058884,0.10477644,0.8602012,9.771951,-0.016643196,0.0043596397,-0.01633441,-0.08779624104499817,-0.010721751488745213,0.20790335536003113,1001.8066,
2021.05.19 17:59:31,76.0,85.0,-12.125404,43.333412,-31.300097,0.09493146,0.8639254,9.680718,-2.3710635E-4,1.6514266E-4,-0.017359588,-0.08900182694196701,-0.00980592705309391,0.251711368560791,1001.8066,
2021.05.19 17:59:31,76.0,85.0,-12.381432,44.80976,-31.624151,0.15375142,0.8051904,9.735218,-0.009071527,-8.889283E-4,-0.0034306902,-0.08251095563173294,-0.015792008489370346,0.24618521332740784,1001.8066,
2021.05.19 17:59:31,76.0,85.0,-12.60807,44.265423,-30.5315,0.08472148,0.8142259,9.702235,-0.008634561,0.014263245,-0.02192092,-0.08372211456298828,-0.008731938898563385,0.2584998607635498,1001.8066,
2021.05.19 17:59:32,76.0,85.0,-11.814545,43.62087,-31.312586,0.023829127,0.80085707,9.68293,-0.013108781,0.0044720294,-0.014324024,-0.08252006024122238,-0.0024609367828816175,0.24954074621200562,1001.8066,
2021.05.19 17:59:32,76.0,85.0,-11.508171,42.673447,-30.442965,0.015142422,0.81956273,9.598129,-0.030017355,0.0070307413,5.806824E-4,-0.08518103510141373,-0.0015776418149471283,0.24878381192684174,1001.8066,
2021.05.19 17:59:32,76.0,85.0,-11.714279,43.77515,-31.190775,0.120640874,0.82146126,9.765362,-0.024368089,-2.4414784E-4,-0.0048959227,-0.08391594886779785,-0.012353329919278622,0.24021583795547485,1001.8066,
2021.05.19 17:59:32,76.0,85.0,-12.758987,44.15322,-31.120378,0.10980207,0.8061602,9.745721,-0.0053464985,-0.004774734,-0.017473172,-0.082526296377182,-0.01126621849834919,0.2603267729282379,1001.8066,
2021.05.19 17:59:32,76.0,85.0,-12.724449,44.683792,-31.465307,0.08440643,0.8288982,9.66374,-5.8743963E-4,-0.012503029,-0.023596173,-0.08556137979030609,-0.008734121918678284,0.25778278708457947,1001.8066,
2021.05.19 17:59:32,76.0,85.0,-10.925415,44.73378,-31.440096,0.09743107,0.7960846,9.830863,-0.015931806,-4.563192E-4,-0.01961221,-0.08079783618450165,-0.009910409338772297,0.22147907316684723,1001.8066,
2021.05.19 17:59:32,76.0,85.0,-13.270103,44.04728,-30.513525,0.060159743,0.7864229,9.711713,0.0045773885,-0.007055423,-0.029412271,-0.08079890161752701,-0.0061944760382175446,0.2749355435371399,1001.8066,
2021.05.19 17:59:32,76.0,85.0,-11.475998,44.71812,-30.970514,0.035468373,0.8017053,9.604042,-0.014236436,0.0010101416,-0.016668646,-0.08328216522932053,-0.0036930504720658064,0.23649221658706665,1001.8066,
2021.05.19 17:59:32,76.0,85.0,-13.010597,44.266342,-29.82733,0.098217346,0.75964373,9.725923,-0.014634878,-1.9778934E-4,-0.024928005,-0.077942855656147,-0.01009816862642765,0.2669849097728729,1001.80634,
2021.05.19 17:59:32,76.0,85.0,-12.941017,44.863083,-31.054365,0.11906451,0.7793948,9.685807,-0.021464575,0.003553317,-0.03207104,-0.08028867840766907,-0.012292059138417244,0.2599271833896637,1001.80634,
2021.05.19 17:59:32,76.0,85.0,-12.90937,43.791435,-32.0664,0.06568694,0.7627666,9.729798,-0.018372249,-0.004288099,-0.03897713,-0.07823311537504196,-0.006751007866114378,0.2682807147502899,1001.80634,
2021.05.19 17:59:32,76.0,85.0,-12.815987,45.540554,-31.246576,0.05225346,0.73821753,9.694093,-0.015482628,-0.0029864227,-0.038133804,-0.07600348442792892,-0.005390184931457043,0.25873008370399475,1001.8062,
2021.05.19 17:59:32,76.0,85.0,-12.287041,43.5075,-30.010984,0.041342635,0.72499937,9.747067,-0.017362472,-0.0014608655,-0.036407486,-0.07424389570951462,-0.004241520538926125,0.2604990601539612,1001.8056,
2021.05.19 17:59:33,76.0,85.0,-12.80497,44.40418,-30.882425,0.015297517,0.7733493,9.685327,-0.016025882,0.012778431,-0.02204542,-0.07967837154865265,-0.0015794516075402498,0.26652196049690247,1001.8056,
2021.05.19 17:59:33,76.0,85.0,-13.049164,44.59584,-31.31861,0.0815034,0.6828839,9.885823,0.007176589,-0.0062515023,-0.032200105,-0.06896519660949707,-0.00824428629130125,0.2675749957561493,1001.8056,
2021.05.19 17:59:33,76.0,85.0,-11.936203,44.34347,-32.063934,0.030005803,0.7073963,9.699912,0.007843874,0.001494021,-0.02534709,-0.07279889285564423,-0.0030933998059481382,0.24895170331001282,1001.8054,
2021.05.19 17:59:33,76.0,85.0,-13.3813095,44.128853,-31.353895,0.019226843,0.7076486,9.647765,-0.007691268,0.012514878,-0.013607478,-0.07321718335151672,-0.0019928778056055307,0.2800650894641876,1001.8051,
2021.05.19 17:59:33,76.0,85.0,-13.176842,45.177032,-29.49994,-0.015787354,0.7176258,9.733104,0.006061198,5.1566766E-4,-0.013811455,-0.07359714806079865,0.001622025272808969,0.27305638790130615,1001.805,
2021.05.19 17:59:33,76.0,85.0,-12.2246475,44.470245,-30.809622,0.005041287,0.72984743,9.7142935,6.7819026E-4,-0.0015412131,0.0015176996,-0.07499039173126221,-5.189555231481791E-4,0.2559458315372467,1001.8047,
2021.05.19 17:59:33,76.0,85.0,-11.903946,44.726967,-30.581099,0.06678682,0.6984554,9.747094,0.001579683,-3.7938263E-4,0.014644088,-0.07153385877609253,-0.006851864978671074,0.24484014511108398,1001.8043,
2021.05.19 17:59:33,76.0,85.0,-12.512054,44.393436,-31.294054,0.03903531,0.70297986,9.715463,0.0031401431,-0.008673793,0.012115046,-0.07223035395145416,-0.004017832223325968,0.2601134777069092,1001.8043,
2021.05.19 17:59:33,76.0,85.0,-12.391624,44.434933,-30.52278,0.039437357,0.72438353,9.640382,-0.014113006,-0.0014946439,0.01595092,-0.07499898225069046,-0.00409082742407918,0.2573895752429962,1001.8043,
2021.05.19 17:59:33,76.0,85.0,-12.995796,43.51345,-30.678423,0.06132276,0.7343385,9.712547,-0.015834203,-0.0027684479,0.016992,-0.07546213269233704,-0.006313682533800602,0.2730782926082611,1001.8043,
2021.05.19 17:59:33,76.0,85.0,-11.160385,43.657066,-31.121035,0.12845369,0.7077715,9.826214,-0.0020857637,-0.008717073,0.002630984,-0.07189860939979553,-0.013071807101368904,0.23064513504505157,1001.80444,
2021.05.19 17:59:33,76.0,85.0,-12.770584,43.957783,-31.401762,0.0697088,0.73922175,9.714387,-9.420826E-4,-0.0042014704,-0.0034661076,-0.07594723999500275,-0.0071757081896066666,0.26502975821495056,1001.8047,
2021.05.19 17:59:33,76.0,85.0,-11.7595825,43.377846,-31.330774,0.062258292,0.7460242,9.694122,-0.0010169386,-0.0051346715,0.0026385295,-0.07680338621139526,-0.006422183942049742,0.24792852997779846,1001.8047,
2021.05.19 17:59:33,76.0,85.0,-12.278954,43.142845,-29.09244,0.086806424,0.7265101,9.785214,0.005453711,-0.0040994924,-7.531438E-4,-0.07410682737827301,-0.00887094996869564,0.25999677181243896,1001.805,
2021.05.19 17:59:34,76.0,85.0,-11.638618,44.483727,-31.397528,0.06487037,0.71629626,9.701203,0.0076341936,-0.0045807827,-0.015532117,-0.0737004354596138,-0.006686738226562738,0.2400989979505539,1001.80505,
2021.05.19 17:59:34,76.0,85.0,-11.595131,43.313232,-31.222513,0.044467803,0.7228641,9.719804,4.2785215E-4,-0.0043159565,-0.01564288,-0.0742328017950058,-0.004574937280267477,0.24650424718856812,1001.8051,
2021.05.19 17:59:34,76.0,85.0,-12.065506,43.86281,-30.356703,0.013062544,0.7177264,9.7777605,7.463052E-4,-0.0014994586,-0.011176639,-0.07327248901128769,-0.0013359435833990574,0.25585702061653137,1001.8054,
2021.05.19 17:59:34,76.0,85.0,-12.783623,44.756195,-29.24544,-0.025951749,0.7335667,9.61972,0.009247179,0.0022965125,-0.007045772,-0.07610896974802017,0.0026977588422596455,0.26795652508735657,1001.8056,
2021.05.19 17:59:34,76.0,85.0,-13.029022,44.09851,-30.025534,0.064511836,0.7136089,9.6856985,-0.012588225,0.0045372606,0.015100772,-0.0735420510172844,-0.006660426501184702,0.2709006071090698,1001.8056,
2021.05.19 17:59:34,76.0,85.0,-12.889786,44.36657,-31.21218,0.09295615,0.7197302,9.81503,-0.0054346817,0.00592339,0.008096814,-0.07319510728120804,-0.009470513090491295,0.2642734944820404,1001.8056,
2021.05.19 17:59:34,76.0,85.0,-14.623795,44.6525,-31.16908,0.057122786,0.7326935,9.752266,0.002576207,5.0176866E-5,0.0022322475,-0.07498842477798462,-0.005857318639755249,0.29888659715652466,1001.8056,
2021.05.19 17:59:34,76.0,85.0,-12.101013,43.601646,-30.048788,0.021105364,0.73462456,9.678509,-0.0020778195,0.0024920471,0.011700453,-0.0757572203874588,-0.00218063872307539,0.25722646713256836,1001.8056,
2021.05.19 17:59:34,76.0,85.0,-11.874031,43.926445,-31.050352,0.08391059,0.743284,9.757941,-0.004129707,0.005800712,0.0050675995,-0.07602261006832123,-0.008598998188972473,0.246307834982872,1001.8056,
2021.05.19 17:59:34,76.0,85.0,-12.82682,43.987556,-30.215551,0.024801947,0.7516404,9.726283,0.009535364,-2.532205E-5,-0.0010314155,-0.07712576538324356,-0.002549986820667982,0.269336074590683,1001.8056,
2021.05.19 17:59:34,76.0,85.0,-12.040909,44.78867,-31.086771,0.043277144,0.7100828,9.705151,0.015016137,-0.0018858302,0.0047351695,-0.07303470373153687,-0.004459163639694452,0.24831974506378174,1001.8056,
2021.05.19 17:59:34,76.0,85.0,-11.839508,43.876587,-31.096075,0.024750695,0.7176005,9.685798,0.011358862,-2.6484812E-4,0.005045069,-0.0739525631070137,-0.002555354032665491,0.24999739229679108,1001.80566,
2021.05.19 17:59:34,76.0,85.0,-11.800163,45.091488,-31.525736,0.043648977,0.72406197,9.688533,-0.0040237075,-0.0010733954,0.00799443,-0.07459449023008347,-0.0045051900669932365,0.24155746400356293,1001.80597,
2021.05.19 17:59:35,76.0,85.0,-12.56073,42.84325,-31.656462,0.036072318,0.727565,9.728951,-0.010540297,0.0027140307,0.011612134,-0.07464403659105301,-0.003707712283357978,0.26927369832992554,1001.80597,
2021.05.19 17:59:35,76.0,85.0,-14.147781,43.47155,-29.247332,0.07298391,0.7863632,9.694533,-0.008383209,-0.0036736643,0.01576282,-0.08093459904193878,-0.007528215181082487,0.295797199010849,1001.80597,
2021.05.19 17:59:35,76.0,85.0,-10.887451,44.442398,-29.628065,0.031999245,0.7592166,9.715436,0.00994692,8.7604485E-4,8.7592844E-4,-0.07798649370670319,-0.0032936381176114082,0.22744491696357727,1001.8065,
2021.05.19 17:59:35,76.0,85.0,-12.135376,44.675117,-30.523287,0.06275555,0.73199576,9.592232,0.009350068,-0.0061496957,0.010665493,-0.07616207003593445,-0.006542237009853125,0.24932920932769775,1001.8066,
2021.05.19 17:59:35,76.0,85.0,-13.028336,45.335106,-30.70009,0.118804395,0.6858034,9.740586,-0.00568485,-0.005005715,0.007815521,-0.07028558105230331,-0.012196237221360207,0.26090914011001587,1001.8066,
2021.05.19 17:59:35,76.0,85.0,-12.101097,43.461796,-30.257448,0.08848736,0.7342963,9.806494,0.015499802,0.0027215907,-0.04626669,-0.07473607361316681,-0.009023098275065422,0.25374314188957214,1001.8068,
2021.05.19 17:59:35,76.0,85.0,-13.788696,43.086506,-30.308737,0.07701136,0.7843866,9.728389,0.0111095635,-0.04307813,-0.020707311,-0.0804520696401596,-0.00791598204523325,0.29005882143974304,1001.80695,
2021.05.19 17:59:35,76.0,85.0,-11.835869,44.26921,-31.426027,0.1567207,0.765625,9.640662,0.0040718745,-0.025441594,-0.043015767,-0.07923946529626846,-0.016254784539341927,0.23821236193180084,1001.80707,
2021.05.19 17:59:35,76.0,85.0,-12.819054,45.060524,-30.97095,0.007473208,0.79619175,9.828002,0.020020088,-0.06151671,-0.019213704,-0.08083602041006088,-7.603993872180581E-4,0.2635830044746399,1001.80725,
2021.05.19 17:59:35,76.0,85.0,-12.519905,45.26731,-32.063652,0.008850664,0.88004833,9.646907,0.010494388,-0.06977256,0.029699903,-0.0909741148352623,-9.174610604532063E-4,0.2546025812625885,1001.80725,
2021.05.19 17:59:35,76.0,85.0,-11.742462,45.018486,-31.065649,0.20416659,0.68605524,10.365888,-0.079014964,-0.0065485076,0.047603153,-0.06607477366924286,-0.019693460315465927,0.23255909979343414,1001.80786,
