Time,X-cord,Y-cord,Mag_x,Mag_y,Mag_z,Acc_x,Acc_y,Acc_z,Gyro_x,Gyro_y,Gyro_z,Orn_x,Orn_y,Orn_z,Pressure,
2021.05.19 17:53:31,107.0,64.0,11.951675,5.767153,-21.862402,-0.0048369244,0.3940554,9.975846,-0.10996862,0.08244002,0.07496247,-0.03948041796684265,4.8486352898180485E-4,-1.0642181634902954,1001.69806,
2021.05.19 17:53:31,107.0,64.0,11.75988,5.826763,-22.410177,-0.06645695,0.39347616,9.630264,0.08686366,-0.09944184,0.009541282,-0.04083460569381714,0.006900734733790159,-1.0446208715438843,1001.6833,
2021.05.19 17:53:31,107.0,64.0,10.521172,5.5476675,-21.135778,-0.31680223,0.47886905,10.007377,-0.010573873,-0.057932276,-0.024893044,-0.04779122769832611,0.031646303832530975,-0.9826751351356506,1001.6836,
2021.05.19 17:53:31,107.0,64.0,11.542404,5.5338373,-22.23681,-0.25126222,0.55594903,9.819718,0.0012684884,-0.04744455,0.0017355918,-0.05653673782944679,0.025581935420632362,-1.01603102684021,1001.68567,
2021.05.19 17:53:31,107.0,64.0,9.880768,4.4573336,-20.921389,-0.13734417,0.571014,10.294751,-0.025250172,0.022231255,0.05519596,-0.055404819548130035,0.013340392149984837,-1.0414966344833374,1001.68567,
2021.05.19 17:53:31,107.0,64.0,10.32032,5.939618,-22.04838,-0.0052351877,0.57513434,9.8897295,0.12807128,-0.008096587,0.045686986,-0.058089274913072586,5.293559515848756E-4,-0.9604665040969849,1001.68567,
2021.05.19 17:53:31,107.0,64.0,11.462753,3.420186,-21.905573,-0.0409923,0.6610279,9.259332,0.08086401,-0.022844125,0.024052218,-0.07126884907484055,0.004427104722708464,-1.1582021713256836,1001.68567,
2021.05.19 17:53:31,107.0,64.0,10.104309,4.9804373,-22.190405,-0.094857715,0.83311254,9.195393,-0.015071108,-0.024125382,0.049846258,-0.09034961462020874,0.010315421968698502,-0.9560596346855164,1001.68567,
2021.05.19 17:53:31,107.0,64.0,10.914093,4.7846766,-21.754698,0.121607564,0.34521604,10.165559,-0.1082853,0.020697951,0.07601337,-0.03394390642642975,-0.011962132528424263,-1.1122475862503052,1001.68567,
2021.05.19 17:53:31,107.0,64.0,10.976799,5.9002523,-22.458315,-0.12652381,0.6095429,9.608627,-0.0011752173,0.02685757,-0.0073142853,-0.06334667652845383,0.013166969642043114,-0.9700014591217041,1001.6857,
2021.05.19 17:53:31,107.0,64.0,10.760139,5.470889,-22.120977,-0.37691155,0.87272245,9.812476,-0.037680726,0.019934822,-0.05607732,-0.08864165097475052,0.03839258477091789,-0.9262975454330444,1001.68567,
2021.05.19 17:53:31,107.0,64.0,10.312477,4.7879515,-23.481676,-0.094281994,0.95775133,9.945762,0.018595397,0.009167593,0.02750082,-0.09599713236093521,0.009479330852627754,-0.9625164866447449,1001.68567,
2021.05.19 17:53:32,107.0,64.0,9.87249,4.022394,-21.78588,-0.01651852,0.8027175,9.882904,0.065351315,0.004599742,0.018641563,-0.08104481548070908,0.0016714222729206085,-1.039955973625183,1001.68567,
2021.05.19 17:53:32,107.0,64.0,10.925896,4.773818,-22.120874,-0.059604585,0.5547212,9.586948,0.04064826,-0.029767603,0.020053895,-0.05779656022787094,0.006217183545231819,-1.0598721504211426,1001.6839,
2021.05.19 17:53:32,107.0,64.0,10.334808,5.0886707,-22.562395,-0.107557,0.72165984,9.464353,0.004390168,-0.032277834,-0.016891522,-0.07609815895557404,0.011363944038748741,-0.9773479700088501,1001.6831,
2021.05.19 17:53:32,107.0,64.0,9.544678,4.265501,-22.431368,-0.056063954,0.7435212,9.729033,-0.05878354,0.0012055589,-0.02278489,-0.07627339661121368,0.0057624769397079945,-1.0059599876403809,1001.6826,
2021.05.19 17:53:32,107.0,64.0,10.4205475,4.3076077,-22.42867,-0.0041599297,0.70264083,9.965449,-0.01736125,-0.017996732,-0.028694728,-0.07039119303226471,4.174352216068655E-4,-1.0570629835128784,1001.6826,
2021.05.19 17:53:32,107.0,64.0,9.888344,5.447521,-22.32477,-0.005925192,0.63784754,9.804442,0.008399354,-0.023018956,-0.039795112,-0.06496542692184448,6.043374305590987E-4,-0.9618846774101257,1001.6826,
2021.05.19 17:53:32,107.0,64.0,10.453102,5.332432,-22.035376,-0.046821672,0.6204452,9.63222,-0.0018151465,-0.0034651048,-0.05039114,-0.06432388722896576,0.0048609040677547455,-0.9933167695999146,1001.6826,
2021.05.19 17:53:32,107.0,64.0,9.456017,6.5163965,-22.347712,-0.059049923,0.62863547,9.698556,-0.015863663,0.01187025,-0.051044025,-0.06472568958997726,0.006088451948016882,-0.8644304275512695,1001.6831,
2021.05.19 17:53:32,107.0,64.0,10.843994,5.2433643,-22.811846,-0.073730424,0.59690404,9.806098,-0.00774627,-0.006480723,-0.03432422,-0.06079397350549698,0.007518692407757044,-1.0152720212936401,1001.6839,
2021.05.19 17:53:32,107.0,64.0,10.6360855,5.5705223,-22.774172,-0.11232436,0.60739344,9.642777,0.0062904516,-0.014921483,-0.03574559,-0.06290210038423538,0.011648021638393402,-0.9771142601966858,1001.68396,
2021.05.19 17:53:32,107.0,64.0,10.202232,6.5707874,-21.255037,-0.11269947,0.5765032,9.700281,-0.004903784,0.0028586164,-0.024855508,-0.05935777723789215,0.01161764282733202,-0.9044800996780396,1001.68396,
2021.05.19 17:53:32,107.0,64.0,10.6573105,6.5981884,-21.947046,-0.1280373,0.612613,9.705161,-0.017490365,0.0020868615,-0.015094897,-0.06303328275680542,0.01319193746894598,-0.9149925708770752,1001.6879,
2021.05.19 17:53:32,107.0,64.0,10.829414,5.560829,-21.245478,-0.09753836,0.5926704,9.841179,-0.0039419355,0.0018045275,0.0106246155,-0.06014792248606682,0.009910923428833485,-0.9989127516746521,1001.6906,
2021.05.19 17:53:33,107.0,64.0,9.867493,5.843483,-22.244467,-0.04900597,0.6169741,9.784685,0.005394787,7.1116164E-4,0.006531266,-0.06297092139720917,0.005008394364267588,-0.9327059984207153,1001.6906,
2021.05.19 17:53:33,107.0,64.0,9.799881,5.2201605,-22.242525,-0.037526872,0.6199062,9.716479,0.013748242,-0.0011441512,-0.0011489931,-0.06371264159679413,0.003862168872728944,-0.9720244407653809,1001.6906,
2021.05.19 17:53:33,107.0,64.0,11.06572,3.870205,-21.874365,-0.057423696,0.61947113,9.738014,0.013629052,0.0064013326,-0.004561526,-0.06352700293064117,0.0058967904187738895,-1.1228561401367188,1001.6906,
2021.05.19 17:53:33,107.0,64.0,11.101479,5.5466557,-21.707258,-0.08435309,0.6061487,9.737418,0.0054778922,0.0037554195,-0.0033767612,-0.062166884541511536,0.00866256095468998,-1.0076090097427368,1001.6906,
2021.05.19 17:53:33,107.0,64.0,11.798584,4.6496334,-21.200106,-0.12658653,0.63654655,9.655484,0.005332804,0.0065990766,-0.007912789,-0.06582500785589218,0.013109573163092136,-1.087601900100708,1001.6906,
2021.05.19 17:53:33,107.0,64.0,10.474037,4.781678,-21.782846,-0.059392963,0.59440666,9.733814,-0.016104937,0.0138374595,-0.0035226361,-0.06098928675055504,0.006101639475673437,-1.0375323295593262,1001.6907,
2021.05.19 17:53:33,107.0,64.0,10.634483,6.024947,-21.747667,-0.1701845,0.6387555,9.792938,0.0017953353,0.01873482,-0.0016973917,-0.06512405723333359,0.01737653836607933,-0.9432064294815063,1001.6907,
2021.05.19 17:53:33,107.0,64.0,11.007355,5.0021744,-20.809801,-0.18954037,0.6743495,9.650642,-0.012223611,0.020107448,0.027378567,-0.06974932551383972,0.019637655466794968,-1.0236644744873047,1001.6907,
2021.05.19 17:53:33,107.0,64.0,10.620781,5.906288,-21.351065,-0.10409236,0.6063096,9.847661,-0.0010949676,0.015827626,-0.0017485935,-0.061487846076488495,0.010569868609309196,-0.9640980362892151,1001.6907,
2021.05.19 17:53:33,107.0,64.0,10.928612,4.850807,-20.626974,-0.14179294,0.6545741,9.742805,0.0055113826,0.011613514,-0.011721941,-0.06707749515771866,0.014552578330039978,-1.0403571128845215,1001.6907,
2021.05.19 17:53:33,107.0,64.0,10.357544,4.849869,-21.900404,-0.116583824,0.5835841,9.68896,-0.008111291,4.1077318E-4,-0.021689977,-0.060154836624860764,0.012032064609229565,-1.0224640369415283,1001.6907,
2021.05.19 17:53:33,107.0,64.0,10.501389,5.1500587,-21.902605,-0.18307614,0.6299188,9.757818,-0.01535192,0.007162289,-0.030729888,-0.06445453315973282,0.018759794533252716,-0.994079053401947,1001.6906,
2021.05.19 17:53:33,107.0,64.0,11.511665,5.5266037,-21.391378,-0.23800783,0.637307,9.76587,-0.007210713,0.013521798,-0.029602215,-0.06514690816402435,0.02436656691133976,-1.0083833932876587,1001.6906,
2021.05.19 17:53:34,107.0,64.0,10.244171,4.7664576,-21.937296,-0.1862884,0.58792347,9.709075,0.0060874475,5.3606054E-6,-0.015680091,-0.06046906113624573,0.01918468438088894,-1.0153743028640747,1001.6903,
2021.05.19 17:53:34,107.0,64.0,11.344688,5.6181183,-21.543585,-0.15643577,0.5569796,9.763534,2.0533602E-4,-3.810543E-4,-0.010183543,-0.05697786808013916,0.016021084040403366,-1.0140149593353271,1001.6902,
2021.05.19 17:53:34,107.0,64.0,10.461456,5.606636,-21.876097,-0.2308402,0.6191068,9.685519,-0.007273581,0.0021383283,-0.0141584575,-0.06381595134735107,0.023829028010368347,-0.9567185640335083,1001.6902,
2021.05.19 17:53:34,107.0,64.0,11.613976,5.204406,-21.771044,-0.20936765,0.64091337,9.732635,-0.0037744136,-7.682225E-4,-0.004543746,-0.0657418817281723,0.021508600562810898,-1.0334413051605225,1001.68994,
2021.05.19 17:53:34,107.0,64.0,10.531929,5.4775,-22.161638,-0.19704838,0.5812004,9.836463,0.0083690565,-0.0025681546,-0.0025038132,-0.059005893766880035,0.020029764622449875,-0.9784761071205139,1001.68976,
2021.05.19 17:53:34,107.0,64.0,10.139412,6.70216,-21.916075,-0.21089144,0.6068291,9.706946,9.799729E-4,0.008802912,-0.008213605,-0.062418997287750244,0.02172240987420082,-0.8749112486839294,1001.68835,
2021.05.19 17:53:34,107.0,64.0,11.082123,6.8285494,-21.831797,-0.18918556,0.6234386,9.700413,-0.008343264,0.0036134252,0.0012863004,-0.06416884064674377,0.019500363618135452,-0.9131918549537659,1001.6879,
2021.05.19 17:53:34,107.0,64.0,9.921356,4.8166685,-21.065058,-0.1766839,0.63459235,9.726312,-0.015552166,0.023167655,-0.0065025804,-0.06514185667037964,0.018163563683629036,-0.9951531887054443,1001.6878,
2021.05.19 17:53:34,107.0,64.0,10.503342,7.1453667,-21.032354,-0.15237747,0.5824454,9.802662,-0.006143581,0.005878003,-0.01646588,-0.059340137988328934,0.015543247573077679,-0.8812810182571411,1001.6878,
2021.05.19 17:53:34,107.0,64.0,10.404556,5.8315296,-22.148085,-0.14877762,0.5767816,9.720779,-0.0022294738,-0.0019910492,-0.03577032,-0.05925849825143814,0.015303917229175568,-0.9536190032958984,1001.6878,
2021.05.19 17:53:34,107.0,64.0,10.513412,6.4166136,-21.973803,-0.2480691,0.6108818,9.766862,-0.0024706016,-6.043725E-4,-0.029137569,-0.06244492158293724,0.025393599644303322,-0.9065636992454529,1001.68787,
2021.05.19 17:53:34,107.0,64.0,11.137596,6.683262,-22.45613,-0.24680857,0.5860413,9.792953,0.013089282,-6.00952E-4,-0.028208451,-0.05975295230746269,0.025197338312864304,-0.921118438243866,1001.6879,
2021.05.19 17:53:34,107.0,64.0,10.470306,5.4207125,-21.766237,-0.25032258,0.5637929,9.646646,5.02583E-4,-0.0014728839,-0.019910071,-0.05835844203829765,0.025943363085389137,-0.9761822819709778,1001.6884,
2021.05.19 17:53:34,107.0,64.0,10.483482,5.905239,-20.107332,-0.21680863,0.5855929,9.845382,-0.007285704,-0.0033914745,-0.024465062,-0.05939458683133125,0.022017795592546463,-0.9550721049308777,1001.6884,
2021.05.19 17:53:35,107.0,64.0,10.821541,5.8911533,-22.552813,-0.27360186,0.6204062,9.78251,-5.083785E-4,-0.004340781,-0.025846189,-0.06331042945384979,0.027961183339357376,-0.9473993182182312,1001.6884,
2021.05.19 17:53:35,107.0,64.0,11.515617,6.497938,-22.063253,-0.28110683,0.6073427,9.717427,0.013502356,-0.0029566027,-0.022251835,-0.06239314004778862,0.028920046985149384,-0.943585216999054,1001.6884,
2021.05.19 17:53:35,107.0,64.0,10.978416,6.4727783,-21.415358,-0.23095052,0.5846631,9.662234,-0.0045233974,-0.0012664166,0.0034821345,-0.0604192279279232,0.023897843435406685,-0.9320900440216064,1001.6884,
2021.05.19 17:53:35,107.0,64.0,10.933762,6.577199,-22.291887,-0.1589495,0.54411054,9.714178,-0.010351186,1.4001729E-4,-0.015786093,-0.05594606325030327,0.016361169517040253,-0.9335291981697083,1001.6883,
2021.05.19 17:53:35,107.0,64.0,12.906967,6.201312,-21.285086,-0.24378479,0.6087019,9.732881,-0.008262943,1.7957513E-4,-0.01997646,-0.062439896166324615,0.02504231221973896,-1.023558259010315,1001.68787,
2021.05.19 17:53:35,107.0,64.0,12.379059,7.1968536,-20.784502,-0.27917632,0.6460648,9.741456,-0.0034724118,-0.0018163391,0.0036091614,-0.06619709730148315,0.028650742024183273,-0.941299557685852,1001.6878,
2021.05.19 17:53:35,107.0,64.0,10.82711,7.591838,-20.925238,-0.16903849,0.5925508,9.738472,-7.93756E-4,-0.004977279,-0.00654651,-0.06076233088970184,0.017356062307953835,-0.8681496381759644,1001.6878,
2021.05.19 17:53:35,107.0,64.0,11.674683,6.715273,-21.18682,-0.17522162,0.5974259,9.754732,0.003682151,-0.018136103,-0.013972736,-0.06115848198533058,0.017960797995328903,-0.95381760597229,1001.6878,
2021.05.19 17:53:35,107.0,64.0,11.31012,6.3546457,-21.1188,-0.19082241,0.6189933,9.6753025,-0.006319562,-0.013010495,-0.018754505,-0.063877172768116,0.01972007378935814,-0.9551752209663391,1001.6873,
2021.05.19 17:53:35,107.0,64.0,11.805214,7.334196,-22.14306,-0.21451657,0.6707863,9.748747,0.007123149,-0.013768756,-0.01918368,-0.06868258118629456,0.022000975906848907,-0.9068262577056885,1001.68726,
2021.05.19 17:53:35,107.0,64.0,11.251755,7.579564,-22.902994,-0.14339288,0.59807163,9.776115,0.0059460625,-0.009001097,-0.004150779,-0.06109411641955376,0.014666622504591942,-0.8826813697814941,1001.6868,
2021.05.19 17:53:35,107.0,64.0,11.030098,7.388816,-21.99111,-0.21809678,0.6483485,9.678261,0.02242601,-0.015328868,-0.02318806,-0.06687331944704056,0.022530894726514816,-0.8715081810951233,1001.68665,
2021.05.19 17:53:35,107.0,64.0,11.139206,7.334687,-21.29841,-0.1363117,0.64293295,9.676505,-0.004381761,-0.0011264194,-0.0089796055,-0.06633859872817993,0.014085940085351467,-0.8921182155609131,1001.68665,
2021.05.19 17:53:36,107.0,64.0,11.04071,6.8476906,-20.84123,-0.12268201,0.6063054,9.802751,0.013468182,-0.002313115,-0.020522084,-0.06176702305674553,0.012514406815171242,-0.9246131181716919,1001.68665,
2021.05.19 17:53:36,107.0,64.0,11.297325,6.0282774,-22.272264,-0.23949464,0.65492386,9.728238,0.010263702,-0.008221131,-8.9573953E-4,-0.06720020622015,0.024613529443740845,-0.959668755531311,1001.68646,
2021.05.19 17:53:36,107.0,64.0,10.45121,5.9237604,-21.632483,-0.17285907,0.6255832,9.685447,0.0016739593,-0.004638704,-0.0013460722,-0.0644901841878891,0.017845405265688896,-0.9421020150184631,1001.68646,
2021.05.19 17:53:36,107.0,64.0,11.228561,5.596304,-21.94966,-0.1796736,0.6371606,9.773086,-0.00898388,0.006196044,0.004106689,-0.06509233266115189,0.01838245987892151,-0.9950512051582336,1001.6864,
2021.05.19 17:53:36,107.0,64.0,11.712517,6.524455,-22.568205,-0.17735243,0.64666843,9.659637,4.6985224E-5,-0.0059792446,0.0065294984,-0.06683444231748581,0.01835809089243412,-0.9527513980865479,1001.6862,
2021.05.19 17:53:36,107.0,64.0,11.9652405,6.038743,-22.566366,-0.17708893,0.61905915,9.75483,-0.010285063,0.006712316,0.0058723832,-0.06336639821529388,0.01815197989344597,-0.9969045519828796,1001.68604,
2021.05.19 17:53:36,107.0,64.0,10.530098,7.6662226,-21.777765,-0.19831254,0.6820777,9.697416,-0.008964875,0.0077524274,0.0069223014,-0.07020575553178787,0.02044718898832798,-0.831692636013031,1001.68604,
2021.05.19 17:53:36,107.0,64.0,11.98719,5.7863865,-21.320925,-0.15335469,0.641181,9.83257,0.002116023,0.0014127885,0.00967014,-0.06510981172323227,0.015595338307321072,-1.0190097093582153,1001.68604,
2021.05.19 17:53:36,107.0,64.0,10.599915,5.2321844,-21.118395,-0.17134798,0.6319371,9.742654,0.002627682,0.0016527638,0.004175667,-0.06476221233606339,0.017585590481758118,-0.9977076053619385,1001.6861,
2021.05.19 17:53:36,107.0,64.0,10.443253,6.2918262,-21.825243,-0.15385439,0.6043598,9.63758,-0.009575188,0.006177927,-0.001277877,-0.06261870265007019,0.015962650999426842,-0.9219043850898743,1001.6861,
2021.05.19 17:53:36,107.0,64.0,11.818932,6.951989,-21.368505,-0.22487675,0.60905045,9.741553,-0.012236629,0.005763757,0.0010293033,-0.06242302060127258,0.02308018133044243,-0.9389174580574036,1001.68604,
2021.05.19 17:53:36,107.0,64.0,11.240677,7.094201,-21.912462,-0.23197633,0.64357346,9.741272,-0.0071603656,0.007969201,0.0041499487,-0.06595215946435928,0.023809261620044708,-0.8979088068008423,1001.686,
2021.05.19 17:53:36,107.0,64.0,9.745071,5.908469,-21.628752,-0.17938149,0.5566414,9.714884,-0.004786594,0.008621603,0.0134442,-0.05722548067569733,0.01846250705420971,-0.9179214239120483,1001.68585,
2021.05.19 17:53:37,107.0,64.0,11.746292,6.751136,-21.95851,-0.22772352,0.5806996,9.6515,-0.0073926337,0.0069122678,0.0053305454,-0.06007764860987663,0.023590248078107834,-0.9472663402557373,1001.6857,
2021.05.19 17:53:37,107.0,64.0,11.469688,6.3184357,-23.682478,-0.2790496,0.59186435,9.796405,-0.024529565,0.016532868,0.0010372163,-0.0603187270462513,0.028477199375629425,-0.947728157043457,1001.6857,
2021.05.19 17:53:37,107.0,64.0,11.847031,6.238593,-20.800585,-0.2864834,0.63673913,9.747536,-0.00929127,0.011697151,0.016241176,-0.06520233303308487,0.02938188426196575,-0.975708544254303,1001.6857,
2021.05.19 17:53:37,107.0,64.0,12.183556,7.4754534,-21.458406,-0.19634776,0.62047356,9.741079,-0.0060920212,0.009779811,0.01303908,-0.06359777599573135,0.020153945311903954,-0.9257729649543762,1001.68567,
2021.05.19 17:53:37,107.0,64.0,11.020615,6.584545,-22.561064,-0.18204872,0.5325698,9.835749,-0.0035687236,-0.020573601,0.0063826344,-0.054084278643131256,0.018506770953536034,-0.936141848564148,1001.68567,
2021.05.19 17:53:37,107.0,64.0,11.896904,5.730074,-20.958288,-0.27113354,0.57221013,9.643234,-0.0046572154,-0.0044661816,0.0053037195,-0.05924513563513756,0.028109045699238777,-1.0175716876983643,1001.6857,
2021.05.19 17:53:37,107.0,64.0,11.604851,7.240616,-21.52791,-0.25149676,0.5922467,9.825921,-0.009146856,-0.0023144956,0.004547954,-0.06018142029643059,0.025589648634195328,-0.912854790687561,1001.6857,
2021.05.19 17:53:37,107.0,64.0,12.268974,6.68176,-22.15557,-0.19136292,0.6071539,9.770442,0.0017004288,-0.007382714,0.012924958,-0.0620502233505249,0.01958339661359787,-0.972976803779602,1001.6857,
2021.05.19 17:53:37,107.0,64.0,10.565102,5.853695,-22.627691,-0.18467164,0.5566099,9.752119,0.006170106,-0.004390784,0.009842293,-0.05700374022126198,0.018934302031993866,-0.9567563533782959,1001.68555,
2021.05.19 17:53:37,107.0,64.0,11.386765,6.628557,-21.757788,-0.23427916,0.5627082,9.672554,0.012941021,-0.010380579,-6.3078664E-4,-0.05809326842427254,0.024216290563344955,-0.9419648051261902,1001.68555,
2021.05.19 17:53:37,107.0,64.0,11.63575,5.6774282,-20.573038,-0.29386207,0.61125445,9.747495,2.7859316E-4,0.0036655266,0.004833206,-0.06259850412607193,0.030138319358229637,-1.0061408281326294,1001.68555,
2021.05.19 17:53:37,107.0,64.0,11.598259,6.385249,-22.478472,-0.28094283,0.6113197,9.75007,0.0017372908,-0.010267952,0.022552224,-0.06259112805128098,0.028806472197175026,-0.9517266750335693,1001.68555,
2021.05.19 17:53:37,107.0,64.0,10.8066635,7.6271887,-21.98559,-0.15614876,0.52741915,9.588131,-0.028726472,0.012722268,0.016471023,-0.054944854229688644,0.016284191980957985,-0.8689519762992859,1001.68555,
2021.05.19 17:53:38,107.0,64.0,11.440987,6.914028,-21.80726,-0.16005273,0.571016,9.809722,-0.0073051276,-0.012968628,-0.01666701,-0.05813586711883545,0.016314277425408363,-0.9350010752677917,1001.68555,
2021.05.19 17:53:38,107.0,64.0,12.193459,7.098714,-22.16524,-0.18155544,0.64520556,9.7385,0.018871369,-0.028769571,-0.026233412,-0.0661449283361435,0.018640900030732155,-0.9421635270118713,1001.68567,
2021.05.19 17:53:38,107.0,64.0,13.033531,7.056821,-22.35362,-0.161734,0.67218214,9.777892,0.033088505,-0.08336355,-0.015212845,-0.0686277523636818,0.016539275646209717,-0.9748379588127136,1001.68567,
2021.05.19 17:53:38,107.0,64.0,11.480484,6.037567,-22.718645,-0.07272638,0.73408455,9.736875,0.05117829,-0.09576832,0.06734142,-0.07524776458740234,0.007469031494110823,-0.9709842801094055,1001.6857,
2021.05.19 17:53:38,107.0,64.0,10.700615,5.899376,-23.076845,0.035538066,0.76911825,9.631974,-0.032405343,-0.0049967603,0.06356713,-0.0796809270977974,-0.0036895761732012033,-0.949915885925293,1001.6857,
