Time,X-cord,Y-cord,Mag_x,Mag_y,Mag_z,Acc_x,Acc_y,Acc_z,Gyro_x,Gyro_y,Gyro_z,Orn_x,Orn_y,Orn_z,Pressure,
2021.05.19 17:57:25,86.0,85.0,9.098175,10.238455,-22.543402,0.059346568,0.71084124,9.468373,0.029817399,0.015772402,0.03656696,-0.07493328303098679,-0.006267791613936424,-0.6604724526405334,1001.77094,
2021.05.19 17:57:25,86.0,85.0,9.516571,9.205658,-23.519506,-0.15880834,0.8770856,9.663674,-0.09250485,0.041025322,0.13466662,-0.09050093591213226,0.016432056203484535,-0.6791931986808777,1001.771,
2021.05.19 17:57:26,86.0,85.0,7.735695,9.291414,-23.967455,-0.11055323,0.66542023,10.360217,0.011782393,0.005620655,0.15937105,-0.06413665413856506,0.01067053247243166,-0.6051155924797058,1001.7712,
2021.05.19 17:57:26,86.0,85.0,7.532852,7.9298735,-23.469503,0.30761763,0.7880327,10.096225,0.07009888,0.039694317,0.16986272,-0.07785830646753311,-0.03045915812253952,-0.7037997841835022,1001.7713,
2021.05.19 17:57:26,86.0,85.0,8.215324,8.427121,-24.188177,0.3325783,0.5437668,9.377026,0.058269955,-0.006468168,0.17958984,-0.05788807570934296,-0.03545249253511429,-0.7468644976615906,1001.77234,
2021.05.19 17:57:26,86.0,85.0,9.351486,7.905038,-22.440393,0.17066847,0.7420004,8.990439,0.05538023,-0.04330905,0.08440141,-0.08233077079057693,-0.018981048837304115,-0.7888335585594177,1001.774,
2021.05.19 17:57:26,86.0,85.0,7.4613113,7.3226213,-22.872686,0.066404365,0.9572127,9.763942,-0.09967883,-0.00704951,0.06404558,-0.09772096574306488,-0.006800874136388302,-0.6750789880752563,1001.7747,
2021.05.19 17:57:26,86.0,85.0,8.2574005,8.147913,-23.891554,0.24884035,0.86358815,9.862893,-0.05846877,-0.020508874,0.029837396,-0.08730893582105637,-0.025224603712558746,-0.7159681916236877,1001.7747,
2021.05.19 17:57:26,86.0,85.0,8.233879,8.108999,-23.638262,0.18935554,0.8630202,9.938594,-0.004175977,0.012274607,-0.021079116,-0.08660233020782471,-0.019050242379307747,-0.709629476070404,1001.7747,
2021.05.19 17:57:26,86.0,85.0,8.357819,7.700182,-23.372686,-0.032288536,0.957385,9.941542,0.044020984,-0.026003424,0.015796931,-0.0960049033164978,0.0032478284556418657,-0.6962491273880005,1001.7747,
2021.05.19 17:57:26,86.0,85.0,8.01886,7.9769926,-23.347925,0.3115342,0.88004416,9.706586,0.06726569,-0.026087351,0.038750965,-0.09037115424871445,-0.03208412602543831,-0.7182568907737732,1001.7747,
2021.05.19 17:57:26,86.0,85.0,8.584015,7.428693,-23.238707,0.42744896,0.80603,10.061262,0.053321842,0.013867302,-0.0034766912,-0.07986974716186523,-0.042459093034267426,-0.8031871914863586,1001.77496,
2021.05.19 17:57:26,86.0,85.0,7.7624054,6.592187,-22.76143,-0.13316582,0.88399905,9.514684,0.1627099,0.011304013,-0.11384477,-0.09263394773006439,0.013994907960295677,-0.7088766098022461,1001.7757,
2021.05.19 17:57:26,86.0,85.0,9.063736,6.9703608,-23.266607,-0.04210194,0.717587,9.592282,0.1324194,0.018386275,-0.077387616,-0.07466898113489151,0.004389118868857622,-0.8008044958114624,1001.77606,
2021.05.19 17:57:26,86.0,85.0,7.863785,7.9543257,-22.9163,-0.13733816,0.7402455,9.362262,0.0024861726,0.0036022149,-0.03782534,-0.07889435440301895,0.014668283052742481,-0.6576901078224182,1001.77625,
2021.05.19 17:57:27,86.0,85.0,7.269661,6.4434986,-22.127134,-0.1043885,0.86701363,9.542675,-0.040322445,0.020212345,-0.020715201,-0.09060228615999222,0.01093868725001812,-0.6951149106025696,1001.77606,
2021.05.19 17:57:27,86.0,85.0,7.6700974,8.309166,-22.866964,-0.13847326,1.0538911,9.657428,-0.060182765,0.0041470462,0.029471733,-0.10868629813194275,0.014337540604174137,-0.5990780591964722,1001.77606,
2021.05.19 17:57:27,86.0,85.0,7.7969437,8.516367,-22.783674,-0.011371958,1.0759954,9.799226,-0.044829514,-0.013179609,0.044738777,-0.10936592519283295,0.0011604950996115804,-0.6170222163200378,1001.77606,
2021.05.19 17:57:27,86.0,85.0,8.1339035,6.6015444,-23.193346,-0.03626984,1.0782644,9.790952,-0.017171107,-0.01188305,0.060923465,-0.10968589037656784,0.003704407485201955,-0.7239022850990295,1001.77606,
2021.05.19 17:57:27,86.0,85.0,8.356789,6.513501,-23.445211,0.03419282,0.9006357,9.67752,-0.0070200292,-0.012854421,0.069058985,-0.09279686212539673,-0.003533206647261977,-0.7727824449539185,1001.77606,
2021.05.19 17:57:27,86.0,85.0,7.4130936,7.5575094,-23.594828,0.14656107,0.8843886,9.568973,-0.007253454,-0.040215045,0.061604425,-0.09214995801448822,-0.015315083786845207,-0.6763017177581787,1001.77606,
2021.05.19 17:57:27,86.0,85.0,7.0009003,6.19526,-23.760485,0.20836103,0.86144733,9.677625,-0.03720772,-5.484838E-5,0.050507154,-0.0887598842382431,-0.02152685634791851,-0.737728476524353,1001.77606,
2021.05.19 17:57:27,86.0,85.0,6.9263687,6.0876703,-23.697496,0.18299632,0.87291574,9.699734,-0.029975774,0.014743375,-0.017004348,-0.08973612636327744,-0.01886388100683689,-0.7338180541992188,1001.77606,
2021.05.19 17:57:27,86.0,85.0,7.5484314,7.370818,-23.62729,0.0024706589,0.8964142,9.7894335,-0.010209702,5.075806E-4,-0.010083438,-0.09131491184234619,-2.5238015223294497E-4,-0.6720908880233765,1001.77606,
2021.05.19 17:57:27,86.0,85.0,7.5462646,7.258527,-23.35916,-0.03522976,0.9466915,9.622817,-0.031298827,0.020417545,0.01703932,-0.09806365519762039,0.0036610488314181566,-0.665053129196167,1001.77606,
2021.05.19 17:57:27,86.0,85.0,8.640366,8.346931,-23.248999,0.10365955,0.82907796,9.841082,-0.014308172,0.012564786,0.005935636,-0.08404352515935898,-0.01053295936435461,-0.713622510433197,1001.77606,
2021.05.19 17:57:27,86.0,85.0,7.0453033,7.4999466,-24.043947,0.08714026,0.8194539,9.647668,-0.018872749,0.012784746,-0.017159969,-0.08473120629787445,-0.009032015688717365,-0.6525565385818481,1001.77606,
2021.05.19 17:57:27,86.0,85.0,8.319313,7.5705833,-23.981718,0.026924087,0.82139665,9.800179,-0.029923225,0.014567275,-0.025358966,-0.08361870795488358,-0.0027472986839711666,-0.7207916378974915,1001.77606,
2021.05.19 17:57:28,86.0,85.0,6.7301865,6.5706787,-22.500517,-0.044187427,0.83526784,9.746072,-0.0056510037,0.01683373,-0.00792059,-0.08549324423074722,0.004533839412033558,-0.663970410823822,1001.77606,
2021.05.19 17:57:28,86.0,85.0,7.973671,7.6787395,-24.15935,-0.016273243,0.79335433,9.719959,-0.011014596,0.0069019576,0.0054603326,-0.0814405083656311,0.0016742073930799961,-0.6896094679832458,1001.77606,
2021.05.19 17:57:28,86.0,85.0,7.973282,8.325914,-23.350225,0.07124016,0.711868,9.791931,-0.005715198,0.0025241498,-0.018086875,-0.07256986945867538,-0.007275265641510487,-0.6837501525878906,1001.77606,
2021.05.19 17:57:28,86.0,85.0,8.256996,6.9868584,-23.260946,-0.038611922,0.7639742,9.701592,-7.929236E-4,0.0036321457,-0.018502027,-0.07858451455831528,0.003979936242103577,-0.7482902407646179,1001.77606,
2021.05.19 17:57:28,86.0,85.0,7.5598907,7.4500675,-22.833155,-0.062575765,0.8324971,9.654523,-0.013262746,0.021457404,-0.0013815342,-0.08601415157318115,0.00648140674456954,-0.6682873368263245,1001.77606,
2021.05.19 17:57:28,86.0,85.0,8.029518,8.829214,-23.579626,0.051670656,0.7984243,9.729966,0.00591905,0.012101695,-7.06268E-4,-0.08187369257211685,-0.00531041668727994,-0.6501060724258423,1001.7757,
2021.05.19 17:57:28,86.0,85.0,8.621895,7.723366,-23.366385,-0.013490603,0.80434465,9.678596,0.018668786,0.022005543,-0.017548027,-0.08291489630937576,0.0013938586926087737,-0.7281842827796936,1001.77563,
2021.05.19 17:57:28,86.0,85.0,8.326241,6.4694595,-22.424322,-0.05187102,0.82710046,9.612966,0.011889464,0.018562332,-0.020769477,-0.08582747727632523,0.005395891144871712,-0.7753478288650513,1001.77094,
2021.05.19 17:57:28,86.0,85.0,8.409348,7.508753,-22.976973,-0.06612884,0.866471,9.712542,-0.013317747,0.030863337,-0.02427987,-0.08897396922111511,0.0068084984086453915,-0.7139148712158203,1001.77075,
2021.05.19 17:57:28,86.0,85.0,8.087799,7.232627,-22.752691,-0.059791297,0.8283443,9.7698555,-0.007708244,0.008584876,-0.022334129,-0.08458185940980911,0.006119901314377785,-0.7161542773246765,1001.77075,
2021.05.19 17:57:28,86.0,85.0,7.9536667,8.278846,-22.672976,-0.121215105,0.8246653,9.625831,-0.014177795,-0.0059452527,-0.005905193,-0.08545669168233871,0.012592025101184845,-0.6449671387672424,1001.77075,
2021.05.19 17:57:28,86.0,85.0,8.450287,6.7827616,-23.06827,-0.05472037,0.80570006,9.682641,-0.03352716,0.009933456,-2.5588786E-4,-0.08301819860935211,0.00565132824704051,-0.7644296288490295,1001.77075,
2021.05.19 17:57:28,86.0,85.0,8.375084,7.7654324,-23.386557,-0.07536281,0.7480591,9.987796,0.050409198,-0.030690331,-0.0260833,-0.07475561648607254,0.0075453463941812515,-0.712243378162384,1001.77075,
2021.05.19 17:57:28,86.0,85.0,8.271439,7.7856283,-22.608599,-0.20820595,0.8644249,9.30395,-0.04563822,-0.0049835467,0.04509661,-0.09262042492628098,0.02237449772655964,-0.6670037508010864,1001.77075,
2021.05.19 17:57:29,86.0,85.0,7.5500565,7.7090044,-22.272795,-0.0051334198,0.7575309,9.978617,0.0014059867,-0.015848808,0.0075813862,-0.07577008008956909,5.14441984705627E-4,-0.6773412823677063,1001.77075,
2021.05.19 17:57:29,86.0,85.0,7.451172,6.6619844,-22.71638,-0.11687487,0.8929061,9.812997,0.023593381,-0.021566473,0.043284275,-0.09073591232299805,0.011909648776054382,-0.6899309158325195,1001.77075,
2021.05.19 17:57:29,86.0,85.0,8.735573,7.1961308,-22.171755,0.03399918,0.6958044,9.687043,0.022210844,-0.036952164,0.03596563,-0.07170476764440536,-0.0035097438376396894,-0.7882111668586731,1001.77075,
2021.05.19 17:57:29,86.0,85.0,7.9818497,7.3529215,-22.632555,2.0748314E-4,0.7454551,9.5555525,-0.006422581,-0.01634603,0.03064112,-0.07785507291555405,-2.171335836465005E-5,-0.720558762550354,1001.77075,
2021.05.19 17:57:29,86.0,85.0,7.1544876,7.7862387,-22.868021,0.025900649,0.78205174,9.722973,-0.013212626,-0.004872733,0.0185557,-0.08026032894849777,-0.0026638547424227,-0.6448726654052734,1001.77075,
2021.05.19 17:57:29,86.0,85.0,8.07695,8.859478,-22.785067,-0.04658556,0.85832137,9.862644,0.010877852,-0.011723377,0.030300766,-0.08680783212184906,0.004723399877548218,-0.6354929208755493,1001.77075,
2021.05.19 17:57:29,86.0,85.0,6.4969635,6.0501804,-22.855764,-0.051938105,0.9271951,9.797833,0.024311867,0.010048756,0.048553832,-0.09435036033391953,0.0053009288385510445,-0.662085771560669,1001.77075,
2021.05.19 17:57:29,86.0,85.0,7.51091,6.3951254,-22.925512,0.02266144,0.85085183,9.845857,0.048568383,-0.023430001,0.064293206,-0.08620285242795944,-0.002301617758348584,-0.7364017367362976,1001.7705,
2021.05.19 17:57:29,86.0,85.0,6.7469864,6.798436,-23.254416,0.21304508,0.7338826,9.566033,0.022888733,0.0013395712,0.015040807,-0.07654865831136703,-0.022267313674092293,-0.7044854760169983,1001.7697,
2021.05.19 17:57:29,86.0,85.0,7.03804,6.257139,-22.087236,0.19539525,0.7197942,9.565288,-0.01041127,0.008366703,-0.034881994,-0.07509349286556244,-0.020424695685505867,-0.759530246257782,1001.7696,
2021.05.19 17:57:29,86.0,85.0,7.6873703,6.7473497,-22.400106,0.051115055,0.80873543,9.651067,-0.04514385,-0.0010509337,-0.033497766,-0.08360103517770767,-0.005296261515468359,-0.7375622987747192,1001.7696,
2021.05.19 17:57:29,86.0,85.0,9.083664,7.343852,-21.846113,0.11019062,0.84636396,9.773398,-0.03631488,-4.8655085E-4,-0.059699398,-0.08637776225805283,-0.011274067685008049,-0.7928048372268677,1001.7696,
2021.05.19 17:57:29,86.0,85.0,7.4357605,7.954933,-23.076216,0.012401067,0.8878152,9.769594,-0.018546117,-0.008708958,-0.053561874,-0.09062633663415909,-0.0012693526223301888,-0.6407868266105652,1001.7696,
2021.05.19 17:57:29,86.0,85.0,8.564575,7.853797,-23.632051,-0.011907239,0.8117903,9.608924,-0.03910633,0.0040493477,-0.04310147,-0.08428274840116501,0.0012391849886626005,-0.7157107591629028,1001.7696,
2021.05.19 17:57:30,86.0,85.0,7.533783,7.010667,-23.529284,-0.017771395,0.70946145,9.753766,-0.027327146,0.00875954,-0.04942762,-0.07260919362306595,0.0018220014171674848,-0.7108514904975891,1001.7696,
2021.05.19 17:57:30,86.0,85.0,7.718582,8.292389,-23.308638,-0.064531825,0.74713165,9.760697,-0.018774245,0.00707871,-0.03522019,-0.07639426738023758,0.006611298769712448,-0.6451599597930908,1001.7697,
2021.05.19 17:57:30,86.0,85.0,8.331795,7.5639687,-22.728937,-0.10317276,0.82426095,9.716089,-0.016862929,0.0029801102,-0.00802165,-0.08462724834680557,0.010618354193866253,-0.7072076201438904,1001.7697,
2021.05.19 17:57:30,86.0,85.0,7.58387,8.643162,-23.721224,-0.01890311,0.75759953,9.74207,-0.011397295,0.0060681715,-0.0058673606,-0.07760942727327347,0.0019403562182560563,-0.6245570182800293,1001.7705,
2021.05.19 17:57:30,86.0,85.0,8.953735,8.579124,-22.935831,-0.027508998,0.6812853,9.649205,-0.017573573,-7.252488E-4,-0.007290211,-0.07048806548118591,0.002850900636985898,-0.7180060148239136,1001.77075,
2021.05.19 17:57:30,86.0,85.0,9.028725,8.685996,-23.24951,-0.05599386,0.68175083,9.61901,-0.030227752,-0.0036578868,-8.959668E-4,-0.07075584679841995,0.005821100436151028,-0.7116766571998596,1001.771,
2021.05.19 17:57:30,86.0,85.0,8.505592,8.679198,-23.881285,-0.06970566,0.733752,9.695328,-0.04391714,0.00880411,0.014173448,-0.07553504407405853,0.007189489435404539,-0.6726822257041931,1001.7715,
2021.05.19 17:57:30,86.0,85.0,10.256882,9.823037,-21.935354,0.0035387434,0.7135611,9.821303,-0.012265862,-0.0054531777,0.0027704542,-0.0725269764661789,-3.6031301715411246E-4,-0.7336381673812866,1001.7717,
2021.05.19 17:57:30,86.0,85.0,9.105316,8.332843,-22.51008,0.006484088,0.6962562,9.689609,-0.0054861857,-0.0071220035,7.374957E-5,-0.07173267006874084,-6.691794842481613E-4,-0.7432107925415039,1001.77203,
2021.05.19 17:57:30,86.0,85.0,9.212463,8.601308,-24.544695,-0.0036614512,0.64465135,9.774711,-1.2782868E-4,6.1974884E-4,-0.013704784,-0.06585556268692017,3.745841095224023E-4,-0.7341654896736145,1001.77234,
2021.05.19 17:57:30,86.0,85.0,9.486656,7.6588345,-23.4125,-0.020360531,0.6497851,9.721927,-0.0025216665,0.004665323,-0.020212378,-0.06673766672611237,0.0020942864939570427,-0.7979047298431396,1001.77246,
2021.05.19 17:57:30,86.0,85.0,6.929329,9.037924,-25.10777,-0.078633666,0.66973275,9.688303,-0.0074172225,0.0074266274,-0.0124110645,-0.06901590526103973,0.00811617262661457,-0.5589683055877686,1001.77246,
2021.05.19 17:57:30,86.0,85.0,9.339821,7.8411617,-23.522326,-0.052124757,0.65902954,9.760113,-0.009612003,0.001894224,-0.010501632,-0.06741943955421448,0.005340538918972015,-0.7748066186904907,1001.7725,
2021.05.19 17:57:30,86.0,85.0,9.851898,8.12641,-22.67806,-0.031894837,0.6482468,9.78001,5.169894E-4,0.0029916537,-0.011137086,-0.06618566811084747,0.003261215751990676,-0.7940260767936707,1001.7726,
2021.05.19 17:57:30,86.0,85.0,7.7287064,7.892,-24.443636,-0.044768557,0.63861746,9.667464,-0.008350049,0.009341682,-0.013540914,-0.06596188247203827,0.0046308147720992565,-0.6763290762901306,1001.7729,
2021.05.19 17:57:31,86.0,85.0,7.781616,8.623356,-23.77688,-0.05737242,0.634484,9.844891,-0.012645967,6.7261665E-4,-0.0071993573,-0.0643579512834549,0.005827568005770445,-0.6460056900978088,1001.773,
2021.05.19 17:57:31,86.0,85.0,7.8221436,8.452341,-23.88613,-0.06495944,0.6366752,9.709413,0.004051162,0.0017337803,-0.006144127,-0.06547778099775314,0.006690257228910923,-0.6537744402885437,1001.773,
2021.05.19 17:57:31,86.0,85.0,7.8342743,8.901762,-23.402876,-0.058826376,0.6116927,9.65642,-0.006170599,0.004124336,-0.0055904337,-0.06326001137495041,0.0060918694362044334,-0.6383412480354309,1001.7731,
2021.05.19 17:57:31,86.0,85.0,9.279533,8.469341,-23.630682,-0.05141459,0.6314564,9.7934265,8.214371E-4,-0.005590311,-0.0041008308,-0.06438755989074707,0.005249860230833292,-0.7425599694252014,1001.7731,
2021.05.19 17:57:31,86.0,85.0,7.8384705,8.343068,-22.80348,-0.06367947,0.6659933,9.715599,2.1693506E-4,-0.007866093,0.0043834443,-0.06844033300876617,0.006554259452968836,-0.6610029339790344,1001.77344,
2021.05.19 17:57:31,86.0,85.0,8.768181,8.480604,-23.027658,-0.0440435,0.6239534,9.758297,0.007196895,-0.0030542144,0.0015335022,-0.06385323405265808,0.004513410851359367,-0.7171652317047119,1001.77344,
2021.05.19 17:57:31,86.0,85.0,7.297058,8.62091,-24.101728,-0.05988751,0.64245063,9.692452,-4.394718E-4,-0.0065644043,0.00352833,-0.06618552654981613,0.006178699433803558,-0.6112980842590332,1001.77356,
2021.05.19 17:57:31,86.0,85.0,10.030685,8.731254,-22.211618,-0.039157957,0.64714736,9.77901,6.5974786E-4,-0.005358116,0.00859241,-0.06608030200004578,0.0040042647160589695,-0.7734792828559875,1001.7738,
2021.05.19 17:57:31,86.0,85.0,9.070213,8.789606,-23.86748,-0.04222116,0.65072626,9.679634,0.008376111,-0.010164237,-0.0035138584,-0.06712469458580017,0.004361826926469803,-0.712756335735321,1001.77386,
2021.05.19 17:57:31,86.0,85.0,8.213837,9.201426,-22.810099,-0.05057772,0.6734538,9.715816,-0.0022061404,1.500197E-4,0.007431325,-0.06920358538627625,0.0052056629210710526,-0.645002543926239,1001.7754,
2021.05.19 17:57:31,86.0,85.0,8.263809,9.885667,-22.817667,-0.02200489,0.6485819,9.794192,0.005316073,-0.0043311333,0.0039789234,-0.06612436473369598,0.0022467244416475296,-0.6254097819328308,1001.77545,
2021.05.19 17:57:31,86.0,85.0,8.023247,8.2509365,-22.59192,-0.065115996,0.6744699,9.727491,0.0025576113,-0.005530448,0.0065540127,-0.06922413408756256,0.006693917326629162,-0.6768428683280945,1001.7755,
2021.05.19 17:57:31,86.0,85.0,8.291542,7.70197,-23.25598,-0.087769575,0.70724744,9.670421,-0.006570696,0.0037257785,0.02566496,-0.0730021595954895,0.009075837209820747,-0.7109240889549255,1001.7761,
2021.05.19 17:57:32,86.0,85.0,9.496582,6.405199,-24.32215,5.932711E-5,0.6842792,9.787556,0.0037066804,0.003266393,0.023741417,-0.06979960948228836,-6.061483873054385E-6,-0.8654667735099792,1001.7762,
2021.05.19 17:57:32,86.0,85.0,8.060562,7.601818,-24.021471,0.03262003,0.65747577,9.718896,0.0014294761,0.009547732,0.009713592,-0.06754592806100845,-0.003356338944286108,-0.7241994738578796,1001.7762,
2021.05.19 17:57:32,86.0,85.0,6.8691635,6.870715,-23.622904,-0.03444084,0.6665082,9.656262,-0.007902495,0.0059417416,0.008220732,-0.06891367584466934,0.003566669300198555,-0.674645721912384,1001.7767,
2021.05.19 17:57:32,86.0,85.0,8.163887,7.2259703,-22.908655,-0.024158737,0.6955437,9.702972,-0.021748489,0.011783682,0.015404766,-0.07156094163656235,0.002489823382347822,-0.7417737245559692,1001.77686,
2021.05.19 17:57:32,86.0,85.0,8.212799,8.456153,-23.354994,0.020970637,0.7137645,9.815564,-0.0036225102,0.0011925523,0.016177,-0.0725896880030632,-0.002136464463546872,-0.6843911409378052,1001.7769,
2021.05.19 17:57:32,86.0,85.0,8.794708,8.277131,-22.161867,0.10733428,0.68022984,9.743356,0.00290746,-0.0021735223,-0.006785906,-0.06969742476940155,-0.011015704832971096,-0.7453137040138245,1001.77716,
2021.05.19 17:57:32,86.0,85.0,8.331825,7.5335646,-22.813704,0.02555232,0.63889426,9.76314,0.008867294,0.001532951,-0.034433708,-0.06534603238105774,-0.0026172176003456116,-0.7501041293144226,1001.77716,
2021.05.19 17:57:32,86.0,85.0,7.8906555,7.805928,-22.239279,0.022075707,0.6442405,9.846023,-0.006236163,0.0054307715,-0.002223082,-0.06533823907375336,-0.002242090180516243,-0.7098954916000366,1001.7774,
2021.05.19 17:57:32,86.0,85.0,9.165276,9.585421,-22.73313,-0.0519456,0.64312744,9.590432,0.013648519,-0.0035139394,-0.016915098,-0.06695804744958878,0.005416345316916704,-0.6840953826904297,1001.7774,
2021.05.19 17:57:32,86.0,85.0,7.843956,8.740768,-22.358809,0.039680433,0.5892083,9.742977,-0.010345155,0.008622413,-0.018412726,-0.06040111929178238,-0.0040726992301642895,-0.6672443151473999,1001.7774,
2021.05.19 17:57:32,86.0,85.0,9.243874,8.8258,-24.462965,-0.12777145,0.69884807,9.864347,-0.027730485,0.012042854,-0.041058872,-0.07072176039218903,0.012952129356563091,-0.7026563286781311,1001.7775,
2021.05.19 17:57:32,86.0,85.0,8.783699,9.705177,-24.11769,0.025113696,0.66242945,9.673938,0.018462308,-0.029268008,-0.018383777,-0.06836872547864914,-0.002596010221168399,-0.6629753708839417,1001.77765,
2021.05.19 17:57:32,86.0,85.0,9.764832,9.206114,-24.60993,-0.12366548,0.7688544,9.613963,0.008587289,-0.07162649,-0.0113504175,-0.07979626208543777,0.012862402014434338,-0.7030016779899597,1001.7777,
2021.05.19 17:57:32,86.0,85.0,7.61248,9.955959,-22.925165,0.041374628,0.6724694,9.697532,-0.0027678164,-0.043500744,0.032807026,-0.06923292577266693,-0.00426648510619998,-0.5899868011474609,1001.7778,
2021.05.19 17:57:33,86.0,85.0,8.00444,7.7226276,-23.590742,0.11239531,0.69706887,9.86961,0.024501484,-0.114266194,0.0537133,-0.07050615549087524,-0.011387526988983154,-0.7238658666610718,1001.7778,
2021.05.19 17:57:33,86.0,85.0,7.5027084,8.971083,-23.475798,0.3015101,0.85428596,8.582534,-0.13603136,0.064721406,0.059002914,-0.0991501733660698,-0.03511622175574303,-0.6380500793457031,1001.77795,
