Time,X-cord,Y-cord,Mag_x,Mag_y,Mag_z,Acc_x,Acc_y,Acc_z,Gyro_x,Gyro_y,Gyro_z,Orn_x,Orn_y,Orn_z,Pressure,
2021.05.19 17:57:36,85.0,86.0,7.8485336,8.011739,-23.606436,0.15525027,0.8755541,9.707843,-0.055343412,0.013545277,0.008932974,-0.08993560075759888,-0.015990888699889183,-0.6840153336524963,1001.77795,
2021.05.19 17:57:36,85.0,86.0,10.4221115,6.4213066,-24.015646,-0.032394063,1.0632292,9.49718,-0.025402647,0.008110967,-0.027131198,-0.11148722469806671,0.003410900477319956,-0.8514376878738403,1001.78076,
2021.05.19 17:57:36,85.0,86.0,10.023903,7.4320087,-23.741938,-0.06976486,0.8270034,10.015522,0.018642541,0.06528725,0.010861669,-0.08238328248262405,0.0069655608385801315,-0.8109878301620483,1001.78076,
2021.05.19 17:57:36,85.0,86.0,9.361511,6.6499376,-23.537848,-0.16332226,0.72624797,9.980586,0.1593301,-0.0067458795,-0.008022228,-0.07262835651636124,0.01636253297328949,-0.8213871121406555,1001.78076,
2021.05.19 17:57:36,85.0,86.0,8.338463,7.2229967,-23.266397,-0.21941364,0.93311256,9.193493,0.02923711,0.020244464,0.08518434,-0.10112207382917404,0.023861659690737724,-0.6834589242935181,1001.78076,
2021.05.19 17:57:36,85.0,86.0,8.560982,5.720583,-22.751535,0.03216291,0.91476196,9.643027,0.008695531,0.023493465,0.049443524,-0.09457898139953613,-0.0033353413455188274,-0.833662211894989,1001.78076,
2021.05.19 17:57:36,85.0,86.0,8.608261,6.8731213,-23.025106,0.17243634,0.9626135,9.723438,0.039013047,0.025455274,0.058505237,-0.09866233915090561,-0.017732230946421623,-0.7811370491981506,1001.78076,
2021.05.19 17:57:36,85.0,86.0,7.664978,5.038974,-23.386774,0.10156816,0.86378735,9.621043,0.05205606,-0.019413445,0.053310316,-0.08953601866960526,-0.010556484572589397,-0.8392176628112793,1001.78076,
2021.05.19 17:57:37,85.0,86.0,8.216431,6.01202,-23.850992,-0.051560324,0.7709455,9.490163,0.033236735,-0.018242829,0.03179216,-0.08105708658695221,0.005432975012809038,-0.7953696250915527,1001.78046,
2021.05.19 17:57:37,85.0,86.0,8.260208,7.3408146,-22.961409,-0.038622513,0.84562045,9.498734,-0.06501346,-0.009019118,0.051280428,-0.08878973126411438,0.004066047258675098,-0.7179040908813477,1001.7792,
2021.05.19 17:57:37,85.0,86.0,8.0086975,6.2331448,-23.510035,0.1434036,0.8212953,9.691692,-0.08590843,0.0010528739,0.019326417,-0.08453100919723511,-0.014795469120144844,-0.7956765294075012,1001.779,
2021.05.19 17:57:37,85.0,86.0,9.656738,6.3331966,-23.010752,0.10762954,0.902719,9.918874,-0.08847184,-0.039077245,-0.01677252,-0.09075488150119781,-0.010850558057427406,-0.8684735894203186,1001.779,
2021.05.19 17:57:37,85.0,86.0,7.382408,5.2346687,-23.542704,-0.16337441,0.9421392,10.373607,-0.03278366,-0.103866294,-0.02623427,-0.0905611515045166,0.01574774459004402,-0.7616029381752014,1001.779,
2021.05.19 17:57:37,85.0,86.0,7.324356,7.128186,-22.736101,0.020775072,1.0742188,9.698254,0.046513725,-0.038139645,-0.01404994,-0.11031422764062881,-0.002142142504453659,-0.6556350588798523,1001.779,
2021.05.19 17:57:37,85.0,86.0,8.622955,6.53432,-23.78435,0.06812037,0.80169505,9.828963,0.06886176,-0.023776371,0.04038867,-0.08138245344161987,-0.006930463947355747,-0.8054956197738647,1001.779,
2021.05.19 17:57:37,85.0,86.0,6.5123672,6.051878,-24.558321,0.2855363,0.5268759,9.766587,0.04305618,-0.040225264,0.112366475,-0.05387156084179878,-0.029227711260318756,-0.7766633629798889,1001.77795,
2021.05.19 17:57:37,85.0,86.0,7.640106,6.3009577,-24.460886,0.038266685,0.9124569,9.445365,0.096443094,-0.05625542,0.04049193,-0.09630405157804489,-0.0040513500571250916,-0.7315585613250732,1001.7769,
2021.05.19 17:57:37,85.0,86.0,8.0119095,5.9252186,-23.79732,-0.2132706,1.1270081,9.724354,0.038461413,-0.016937342,0.09156153,-0.11535318195819855,0.021928081288933754,-0.7138509154319763,1001.77606,
2021.05.19 17:57:37,85.0,86.0,6.8356705,4.426529,-23.32123,0.339563,1.0289541,9.287794,-0.02795003,0.03782756,0.067857765,-0.11026263236999512,-0.03654386103153229,-0.836411714553833,1001.77576,
2021.05.19 17:57:37,85.0,86.0,7.8569794,5.873967,-24.23374,0.55180657,0.88178945,9.647029,-0.0509841,0.022964738,-0.031770393,-0.09100405871868134,-0.0571373775601387,-0.856089174747467,1001.77496,
2021.05.19 17:57:37,85.0,86.0,7.02903,6.9405813,-22.677153,0.3170899,0.87555814,9.464682,-0.0990165,0.0020047547,-0.056590293,-0.09219396859407425,-0.033489909023046494,-0.7144214510917664,1001.77496,
2021.05.19 17:57:38,85.0,86.0,6.895439,6.7554073,-23.222666,-0.15180196,1.1378855,9.957307,-0.102436565,0.045895956,-0.10493567,-0.11376973241567612,0.01524410117417574,-0.6099261045455933,1001.77496,
2021.05.19 17:57:38,85.0,86.0,7.6392365,6.793993,-23.521631,-0.109303385,1.1461743,9.748421,-0.043379974,0.001786693,-0.04549336,-0.11703075468540192,0.011211949400603771,-0.6599392294883728,1001.77496,
2021.05.19 17:57:38,85.0,86.0,7.4001007,8.137939,-23.243933,0.0961703,0.9058837,10.002078,0.020353403,9.667032E-4,0.033787858,-0.09031897038221359,-0.009614735841751099,-0.6420658826828003,1001.7745,
2021.05.19 17:57:38,85.0,86.0,7.131645,6.620529,-23.212412,0.10967948,0.89970684,9.729791,0.02713224,-0.010943886,0.045376424,-0.09220125526189804,-0.011272065341472626,-0.7031007409095764,1001.7745,
2021.05.19 17:57:38,85.0,86.0,9.3626175,6.8261375,-24.700212,0.21425371,0.91931033,9.597172,-0.006518079,0.004726314,0.030187998,-0.09547468274831772,-0.022320963442325592,-0.826464056968689,1001.77405,
2021.05.19 17:57:38,85.0,86.0,7.591942,6.1828175,-23.127619,0.20757967,1.0506269,9.807446,0.0029154117,-0.012178652,0.011950776,-0.10669472813606262,-0.021162359043955803,-0.7546223402023315,1001.77405,
2021.05.19 17:57:38,85.0,86.0,6.386421,4.4947147,-24.028559,0.07933704,1.0897893,9.921101,0.039991308,-0.027508479,0.022108518,-0.10940350592136383,-0.007996628060936928,-0.7482823729515076,1001.77405,
2021.05.19 17:57:38,85.0,86.0,7.2519608,5.9411936,-21.824434,-0.0016554939,0.9829052,9.85481,0.061241973,-0.054273464,0.040240295,-0.09940986335277557,1.679884153418243E-4,-0.7313164472579956,1001.77405,
2021.05.19 17:57:38,85.0,86.0,6.6481323,5.087476,-22.713678,0.081078656,0.86282283,9.311751,-0.011069143,-0.026917294,0.053271107,-0.09239225089550018,-0.008706912398338318,-0.7632402181625366,1001.77405,
2021.05.19 17:57:38,85.0,86.0,6.100563,5.6278753,-23.104162,0.119101785,0.8131699,9.289391,-0.092073,-0.03535291,0.06835692,-0.08730777353048325,-0.012820567935705185,-0.6986942887306213,1001.77405,
2021.05.19 17:57:38,85.0,86.0,5.970627,5.9620533,-24.856329,0.18904139,0.773426,9.547317,-0.13402848,-0.051543217,0.10236884,-0.08081748336553574,-0.01979788765311241,-0.6831390857696533,1001.77435,
2021.05.19 17:57:38,85.0,86.0,8.082321,5.7054987,-24.448225,0.21565206,0.7722494,9.695783,-0.13110122,-0.025845438,0.09877202,-0.07946061342954636,-0.022238174453377724,-0.8475562930107117,1001.77435,
2021.05.19 17:57:38,85.0,86.0,6.5951385,5.948433,-24.987158,0.13139896,0.77650076,9.894059,-0.08704959,-0.02068942,0.11031698,-0.07831409573554993,-0.013279811479151249,-0.7212047576904297,1001.7745,
2021.05.19 17:57:39,85.0,86.0,6.6586456,6.222082,-23.382555,0.30012235,0.62955856,9.80141,-0.058329012,-0.0046409084,0.11027185,-0.06411334872245789,-0.030610760673880577,-0.7639956474304199,1001.77496,
2021.05.19 17:57:39,85.0,86.0,6.5635605,6.1336327,-24.057447,0.288447,0.7171228,9.624989,-0.028240426,-0.008701898,0.11245352,-0.07433569431304932,-0.029959585517644882,-0.7454232573509216,1001.77496,
2021.05.19 17:57:39,85.0,86.0,5.9514313,6.190406,-23.343615,0.46148562,0.79700345,9.475577,-0.011093804,-0.07091364,0.14034379,-0.08381494879722595,-0.04866418614983559,-0.7185223698616028,1001.77496,
2021.05.19 17:57:39,85.0,86.0,5.5544815,6.143489,-23.27603,0.6685408,0.5320897,10.324201,-0.05849489,-0.010660146,0.14576098,-0.05138511210680008,-0.06466444581747055,-0.767081081867218,1001.77496,
2021.05.19 17:57:39,85.0,86.0,6.2127533,6.087989,-24.500654,0.32883236,0.48305687,9.858841,0.031091616,-0.0026535501,0.027638186,-0.04893101006746292,-0.033341698348522186,-0.7684540152549744,1001.77496,
2021.05.19 17:57:39,85.0,86.0,6.381325,4.4985943,-24.041494,0.19859207,0.46514872,9.300971,0.040567134,0.051342923,-0.03894449,-0.049957770854234695,-0.021348513662815094,-0.8810245394706726,1001.77454,
2021.05.19 17:57:39,85.0,86.0,7.0998154,5.311571,-23.536287,0.2250738,0.49970555,9.674775,0.0040967637,0.032477234,-0.01802402,-0.051590558141469955,-0.023259788751602173,-0.8654773235321045,1001.77454,
2021.05.19 17:57:39,85.0,86.0,7.114929,5.209137,-23.156004,0.35810378,0.70333034,9.815242,0.010636505,0.020075854,-0.0053200154,-0.07148727774620056,-0.03646828234195709,-0.8612985014915466,1001.7745,
2021.05.19 17:57:39,85.0,86.0,6.6761475,3.7764082,-25.115107,0.48831686,0.7433059,9.68073,0.032376576,-0.0043756845,-0.010751613,-0.07653474062681198,-0.05039943754673004,-0.9512877464294434,1001.7745,
2021.05.19 17:57:39,85.0,86.0,6.697136,5.5943804,-23.89884,0.5447021,0.57228893,9.686639,0.03096766,-0.041570995,-0.078502424,-0.0589187853038311,-0.05617315322160721,-0.8560164570808411,1001.77435,
2021.05.19 17:57:39,85.0,86.0,6.477707,3.9884348,-23.346773,0.39885834,0.5951162,9.54528,-0.0063484106,0.031282566,-0.13093022,-0.06221189722418785,-0.041761625558137894,-0.9421481490135193,1001.7742,
2021.05.19 17:57:39,85.0,86.0,7.327118,5.166132,-23.957201,0.32932916,0.6929367,9.985758,0.04364158,0.019180834,-0.16593958,-0.0692439153790474,-0.032967936247587204,-0.873660147190094,1001.77405,
2021.05.19 17:57:39,85.0,86.0,6.4580917,6.3657637,-24.470896,0.115122706,0.8440654,9.550671,0.010325143,0.0416159,-0.12638927,-0.08814220875501633,-0.012053302489221096,-0.67200767993927,1001.77405,
2021.05.19 17:57:39,85.0,86.0,6.935684,6.4673595,-24.47898,0.25851247,0.7923394,9.943102,0.0261402,0.032137122,-0.103742555,-0.07949256151914597,-0.02599332295358181,-0.7348775863647461,1001.77405,
2021.05.19 17:57:40,85.0,86.0,7.0556717,6.4494514,-24.374659,0.0883716,0.95635563,9.687328,0.04743787,0.013687751,-0.0716714,-0.09839940816164017,-0.009122137911617756,-0.6906394362449646,1001.77405,
2021.05.19 17:57:40,85.0,86.0,6.60244,5.2058296,-24.245485,0.053401034,0.77639294,9.392592,0.062278915,0.022546586,-0.07265712,-0.08247131109237671,-0.005685379728674889,-0.7536526322364807,1001.77405,
2021.05.19 17:57:40,85.0,86.0,6.6370087,5.011903,-24.73747,-0.0052281446,0.8096903,9.428756,0.019628504,0.051683407,-0.07572317,-0.08566439151763916,5.544893210753798E-4,-0.7499470710754395,1001.77405,
2021.05.19 17:57:40,85.0,86.0,7.6776123,6.672084,-23.203367,-0.018353917,0.8989551,9.410069,-0.03579016,0.030097857,-0.036717698,-0.095241978764534,0.001950452453456819,-0.7116633057594299,1001.77405,
2021.05.19 17:57:40,85.0,86.0,7.5811234,5.9424,-24.06999,0.021991342,0.9415714,9.768894,-0.08440266,0.035407078,-0.009228066,-0.09608758240938187,-0.0022511561401188374,-0.7483782768249512,1001.77405,
2021.05.19 17:57:40,85.0,86.0,8.64463,7.2750654,-23.766737,-0.08660986,0.96057945,10.020726,-0.025709108,0.037567507,0.012506798,-0.09556370973587036,0.00864285696297884,-0.7254441976547241,1001.77405,
2021.05.19 17:57:40,85.0,86.0,9.403168,7.653322,-23.408041,-0.07639518,0.85592276,9.832086,-0.0031239192,0.019685924,0.039460726,-0.08683251589536667,0.0077698309905827045,-0.7621111869812012,1001.77405,
2021.05.19 17:57:40,85.0,86.0,6.491501,7.637145,-22.947405,-0.010983232,0.7620979,9.781991,-0.010142272,0.007927956,0.05152591,-0.07775115221738815,0.0011228008661419153,-0.6026684045791626,1001.77435,
2021.05.19 17:57:40,85.0,86.0,7.407814,6.8427105,-23.277048,0.16446072,0.6873283,9.679401,-0.016603861,0.0014942581,0.025183324,-0.07088018953800201,-0.01698915846645832,-0.744682252407074,1001.77435,
2021.05.19 17:57:40,85.0,86.0,8.41597,6.986289,-23.656546,0.15771145,0.67501765,9.787408,-0.024043052,0.0023762814,0.0025961115,-0.06885001808404922,-0.01611231453716755,-0.7973834276199341,1001.77484,
2021.05.19 17:57:40,85.0,86.0,8.403152,7.359518,-22.844656,0.10177087,0.58110166,9.989802,-0.029995212,0.007583671,-0.019511726,-0.058100998401641846,-0.010187122970819473,-0.7834808826446533,1001.77484,
2021.05.19 17:57:40,85.0,86.0,7.8346405,6.8446846,-23.44832,0.16041389,0.5850492,9.735006,-0.014450771,-0.030648194,-0.034202155,-0.06001714617013931,-0.016476556658744812,-0.784730851650238,1001.77484,
2021.05.19 17:57:40,85.0,86.0,7.6863403,6.6871195,-23.94227,-1.7768641E-4,0.61543876,9.736264,0.019199105,-0.032005887,-0.07648903,-0.06312698870897293,1.8249958884553052E-5,-0.754009485244751,1001.7752,
2021.05.19 17:57:41,85.0,86.0,6.8519974,6.9855556,-23.317743,-0.15260334,0.6739965,9.644958,-0.023448763,-0.037760355,-0.0040696748,-0.0697585865855217,0.015820765867829323,-0.6458291411399841,1001.7753,
2021.05.19 17:57:41,85.0,86.0,8.063423,6.4027433,-21.633322,0.072619595,0.6853587,9.595866,-0.032064438,-0.019872043,-0.009761975,-0.07129917293787003,-0.007567655295133591,-0.8042000532150269,1001.7753,
2021.05.19 17:57:41,85.0,86.0,8.816673,6.600931,-22.573473,0.08632863,0.70271033,9.9279785,0.0022809375,-0.010451321,-0.014698438,-0.070660300552845,-0.00869526993483305,-0.8342330455780029,1001.7754,
2021.05.19 17:57:41,85.0,86.0,9.0425415,7.528119,-23.713617,0.07043057,0.6032061,9.602855,0.026968472,-0.0155593,-0.011260303,-0.06273117661476135,-0.007334205321967602,-0.7975047826766968,1001.77563,
2021.05.19 17:57:41,85.0,86.0,7.6401443,7.613722,-23.428102,0.07959985,0.5291621,9.682349,0.018108523,-0.00998111,-0.0015237397,-0.05459608510136604,-0.008220944553613663,-0.7229493856430054,1001.77563,
2021.05.19 17:57:41,85.0,86.0,7.0964203,6.2075977,-22.973104,-0.030906929,0.64490116,9.593506,0.0056581493,0.015524617,-0.028601108,-0.06712134182453156,0.003221639897674322,-0.7370834946632385,1001.776,
2021.05.19 17:57:41,85.0,86.0,7.824539,7.294465,-22.233416,0.0432685,0.6638832,9.776628,-0.019203555,0.033663932,-0.012927936,-0.06780038774013519,-0.004425679333508015,-0.7340340614318848,1001.776,
2021.05.19 17:57:41,85.0,86.0,7.4750977,7.12477,-21.99455,0.121943094,0.6883066,9.813469,-0.009882164,0.021175656,-0.01939375,-0.07001890242099762,-0.012425455264747143,-0.7310397028923035,1001.7764,
2021.05.19 17:57:41,85.0,86.0,8.093689,6.5681763,-23.34384,0.066018425,0.6644147,9.872147,0.016540645,0.0027739499,-0.02477824,-0.06719911098480225,-0.006687242537736893,-0.7934890985488892,1001.7764,
2021.05.19 17:57:41,85.0,86.0,8.756905,6.9662323,-23.613657,-0.010468058,0.6495624,9.620174,0.0045122216,0.011170022,-0.018243432,-0.06741848587989807,0.0010881356429308653,-0.7963607311248779,1001.7764,
2021.05.19 17:57:41,85.0,86.0,6.284584,6.699546,-22.507528,-0.050244402,0.6362784,9.646061,-8.90651E-4,0.011805084,-0.012128733,-0.06586619466543198,0.005208753049373627,-0.6466930508613586,1001.7764,
2021.05.19 17:57:41,85.0,86.0,8.120323,7.51439,-23.240381,-0.04983404,0.6380288,9.763629,-0.0045253215,0.014171824,0.0021412573,-0.06525387614965439,0.005104004871100187,-0.7258304953575134,1001.7764,
2021.05.19 17:57:41,85.0,86.0,7.886055,7.167163,-23.735518,-0.033007342,0.6522057,9.772406,0.00780636,0.008187525,0.0017180075,-0.06664032489061356,0.0033775935880839825,-0.7293636798858643,1001.7764,
2021.05.19 17:57:41,85.0,86.0,8.582596,7.637884,-22.705076,-0.070807256,0.67964476,9.641704,0.0017138534,0.003461997,0.018199692,-0.07037181407213211,0.007343720644712448,-0.7398273348808289,1001.7764,
2021.05.19 17:57:42,85.0,86.0,8.342834,6.759491,-23.165834,0.035226326,0.63224703,9.777282,0.0012283879,0.009087839,0.010334779,-0.06457458436489105,-0.003602859564125538,-0.7966733574867249,1001.7764,
2021.05.19 17:57:42,85.0,86.0,8.499153,6.945815,-22.92085,0.07412276,0.6392681,9.730717,0.004137706,0.0096224565,-0.013005419,-0.06559973210096359,-0.007617251947522163,-0.7996866703033447,1001.7764,
2021.05.19 17:57:42,85.0,86.0,8.250175,8.260205,-23.732283,-0.08596519,0.7088628,9.724655,0.011032622,6.2945636E-4,-0.018943613,-0.07276183366775513,0.008839691057801247,-0.6787028312683105,1001.7788,
2021.05.19 17:57:42,85.0,86.0,8.331169,7.2539167,-23.20566,-0.049772922,0.6746542,9.774394,0.0033071698,-0.0015660798,-0.0075850626,-0.06891241669654846,0.00509213050827384,-0.7487820982933044,1001.77893,
2021.05.19 17:57:42,85.0,86.0,7.8616333,6.6495504,-22.397856,-0.06864124,0.679538,9.690705,0.008627529,-0.009730684,-0.0056114546,-0.07000631839036942,0.007083084899932146,-0.7539098262786865,1001.77954,
2021.05.19 17:57:42,85.0,86.0,8.371666,7.6407433,-23.022028,-0.051456843,0.6718151,9.6760435,0.011739975,-5.742112E-4,7.509482E-4,-0.06931854039430618,0.00531791290268302,-0.7298766374588013,1001.77954,
2021.05.19 17:57:42,85.0,86.0,7.3706512,7.4442043,-22.938425,-0.006372252,0.6684033,9.780294,0.0027867442,-0.0026226111,0.00717973,-0.06823571771383286,6.515397690236568E-4,-0.6856800317764282,1001.77954,
2021.05.19 17:57:42,85.0,86.0,8.504639,7.8208427,-22.148668,-0.020582678,0.69884396,9.745801,0.013297695,0.0025711972,-0.0109321745,-0.07158450782299042,0.0021119501907378435,-0.7334166169166565,1001.77954,
2021.05.19 17:57:42,85.0,86.0,8.007622,6.713729,-22.4932,-0.054705802,0.73916847,9.684586,0.0032531947,0.0079380255,-0.0059073977,-0.07617532461881638,0.0056486898101866245,-0.752934992313385,1001.77954,
2021.05.19 17:57:42,85.0,86.0,8.904495,7.6640425,-23.236452,-0.02500706,0.68639636,9.724525,0.001117048,0.0050208606,-0.006185351,-0.07046694308519363,0.002571539953351021,-0.7612425684928894,1001.77954,
2021.05.19 17:57:42,85.0,86.0,9.027618,8.414844,-23.916048,-0.12909898,0.7594704,9.776865,-0.009851538,3.6122277E-4,-0.00977711,-0.07751794904470444,0.013203770853579044,-0.7043782472610474,1001.77954,
2021.05.19 17:57:42,85.0,86.0,8.387085,6.2975273,-23.108004,-0.03956793,0.7878988,9.736163,-0.0044748373,-0.013960902,0.00940156,-0.08074835687875748,0.004063994158059359,-0.7944906949996948,1001.77954,
2021.05.19 17:57:42,85.0,86.0,8.166473,6.3032475,-22.815847,0.0036871072,0.7360287,9.786041,0.0073965127,-0.008805744,0.015282473,-0.07507075369358063,-3.767720772884786E-4,-0.796442449092865,1001.77954,
2021.05.19 17:57:43,85.0,86.0,7.58197,6.5181866,-22.942236,0.044498146,0.7109213,9.675166,0.0108985435,-0.012058169,0.0041288477,-0.07334638386964798,-0.0045991805382072926,-0.7544057369232178,1001.77954,
2021.05.19 17:57:43,85.0,86.0,8.506386,7.1739616,-22.744364,-0.03327253,0.78331757,9.735068,-2.6142038E-4,-0.0047230204,-0.0125508355,-0.0802900493144989,0.0034177880734205246,-0.7538817524909973,1001.77954,
2021.05.19 17:57:43,85.0,86.0,9.386536,7.650468,-22.898321,-0.030624012,0.73736316,9.717921,0.011244558,-0.00911853,3.2216124E-4,-0.07573114335536957,0.0031512819696217775,-0.7827802300453186,1001.77954,
2021.05.19 17:57:43,85.0,86.0,8.482323,6.5145864,-22.868017,0.054589044,0.6175045,9.682288,0.0032956968,-0.01004544,-0.035993364,-0.06368944048881531,-0.00563797214999795,-0.8250600099563599,1001.77954,
2021.05.19 17:57:43,85.0,86.0,7.7887115,6.6471386,-23.30807,0.01402935,0.82299393,9.596239,0.011062698,-0.03242046,-0.07315411,-0.08555269986391068,-0.0014619623543694615,-0.737327516078949,1001.7798,
2021.05.19 17:57:43,85.0,86.0,8.620735,6.4242992,-23.556131,-0.021701438,0.85167384,9.876227,-0.0068855565,-0.048157476,-0.05817776,-0.08602172136306763,0.0021973373368382454,-0.7938089966773987,1001.7803,
2021.05.19 17:57:43,85.0,86.0,8.502411,7.1863813,-23.480337,-0.017959915,0.8788841,9.726884,0.0505025,-0.07592946,-7.650722E-5,-0.09011133015155792,0.0018464182503521442,-0.7396014332771301,1001.78107,
2021.05.19 17:57:43,85.0,86.0,7.002159,6.2790365,-23.69388,0.090756156,0.84548783,9.746982,0.06568892,-0.13804935,0.081849016,-0.08652322739362717,-0.00931093655526638,-0.7162503004074097,1001.7812,
2021.05.19 17:57:43,85.0,86.0,6.588867,6.5343504,-23.776434,0.45950547,0.8464387,9.003829,-0.16514415,0.056985475,0.06664202,-0.09361216425895691,-0.050990212708711624,-0.7307501435279846,1001.78125,
