Time,X-cord,Y-cord,Mag_x,Mag_y,Mag_z,Acc_x,Acc_y,Acc_z,Gyro_x,Gyro_y,Gyro_z,Orn_x,Orn_y,Orn_z,Pressure,
2021.05.19 18:07:36,33.0,42.0,-8.68824,41.42803,-28.4681,0.25880906,0.70132905,9.463425,0.06841236,0.0064837276,0.025123574,-0.07394665479660034,-0.027341535314917564,0.1800651103258133,1001.7031,
2021.05.19 18:07:36,33.0,42.0,-8.40255,42.186768,-27.879137,0.098974295,0.87022495,9.619104,-0.0026262451,0.0038725447,-0.024780123,-0.09021804481744766,-0.010288983583450317,0.18024589121341705,1001.7056,
2021.05.19 18:07:36,33.0,42.0,-9.348732,41.5093,-27.138704,0.26426908,0.59826845,10.131718,-0.030857204,-0.04920457,-0.0666852,-0.05896056443452835,-0.026077432557940483,0.19801843166351318,1001.7056,
2021.05.19 18:07:36,33.0,42.0,-9.29303,42.222164,-28.17808,0.25720623,0.68175524,9.720927,0.024405116,-0.04947337,-0.11353093,-0.06999367475509644,-0.02645285055041313,0.19135574996471405,1001.7056,
2021.05.19 18:07:36,33.0,42.0,-9.055656,42.05877,-27.911139,0.07811599,0.79743356,9.586108,-0.011771681,-0.025745153,-0.09813686,-0.0829925388097763,-0.008148693479597569,0.19698596000671387,1001.7055,
2021.05.19 18:07:36,33.0,42.0,-10.323059,41.776962,-28.67592,-0.13517134,0.8958784,10.102651,0.032844964,-0.035794113,-0.05312728,-0.08843832463026047,0.013378990814089775,0.23797769844532013,1001.7054,
2021.05.19 18:07:36,33.0,42.0,-10.193481,41.90104,-28.34762,-0.010724257,0.89757544,9.644605,0.0031821253,0.016655304,-0.015064245,-0.0927976742386818,0.0011119431583210826,0.22661009430885315,1001.7054,
2021.05.19 18:07:36,33.0,42.0,-10.2754135,43.866745,-28.787111,0.1878496,0.62420434,9.932166,0.09027352,-0.067384064,-0.060602423,-0.06275300681591034,-0.018911000341176987,0.21021902561187744,1001.7053,
2021.05.19 18:07:36,33.0,42.0,-10.098824,41.974846,-27.35433,0.26978585,0.7625044,8.797017,-0.032210793,-2.0594802E-4,-0.057046544,-0.08642108738422394,-0.030658269301056862,0.20639744400978088,1001.7053,
2021.05.19 18:07:37,33.0,42.0,-10.55584,40.830513,-28.288,0.17294283,0.49144673,9.736306,-0.086564824,0.0027815793,-0.12126857,-0.05042494088411331,-0.017760805785655975,0.2337636798620224,1001.7053,
2021.05.19 18:07:37,33.0,42.0,-10.099762,42.64499,-27.5883,-0.22748624,0.7262246,9.743405,-0.07169268,0.012825908,-0.093925916,-0.07437721639871597,0.023343471810221672,0.23653748631477356,1001.7053,
2021.05.19 18:07:37,33.0,42.0,-12.430222,42.698208,-27.6639,-0.07890571,0.75087804,9.840513,-0.059057157,0.025251366,-0.06851378,-0.07615474611520767,0.008018282242119312,0.2759874165058136,1001.7054,
2021.05.19 18:07:37,33.0,42.0,-11.596855,42.748802,-27.811125,-0.2224795,0.9023123,10.044904,-0.00789682,-0.011878383,7.38875E-4,-0.08956557512283325,0.022144874557852745,0.26471808552742004,1001.7054,
2021.05.19 18:07:37,33.0,42.0,-10.553581,42.08567,-27.984854,-0.1953135,0.9262352,9.873784,0.041916832,-0.018090606,0.05832468,-0.09351561218500137,0.019778437912464142,0.24458159506320953,1001.70544,
2021.05.19 18:07:37,33.0,42.0,-10.523483,41.14235,-28.504377,0.06463647,0.5633946,9.57053,0.029126167,0.005023831,0.050668832,-0.058798450976610184,-0.00675359508022666,0.23710663616657257,1001.70544,
2021.05.19 18:07:37,33.0,42.0,-10.289879,41.631878,-27.759478,-0.11800655,0.68531233,9.609095,0.0056319227,-0.0027390942,0.010319073,-0.07119323313236237,0.012280098162591457,0.2397134155035019,1001.7054,
2021.05.19 18:07:37,33.0,42.0,-10.241074,41.430664,-27.387514,-0.20184815,0.87122035,9.752892,-0.03173503,0.008838233,0.0045741457,-0.08907399326562881,0.020693281665444374,0.2424938976764679,1001.70496,
2021.05.19 18:07:37,33.0,42.0,-9.460709,41.242615,-28.102423,0.08180249,0.8052485,9.909846,-0.030653642,0.020924367,0.048117306,-0.08107652515172958,-0.008254479616880417,0.20956584811210632,1001.7044,
2021.05.19 18:07:37,33.0,42.0,-9.657387,42.58469,-28.906298,0.17902833,0.74108535,9.872664,0.0043857563,0.010563392,0.04557677,-0.07491158694028854,-0.01813175342977047,0.20177333056926727,1001.7041,
2021.05.19 18:07:37,33.0,42.0,-11.41877,42.533592,-28.478567,-0.021685714,0.7982678,9.605084,0.019467356,0.0096189175,-0.0011483743,-0.08291810005903244,0.002257728949189186,0.25121691823005676,1001.70404,
2021.05.19 18:07:37,33.0,42.0,-9.77639,42.424923,-27.782183,-0.067632996,0.75127286,9.710921,0.014511419,0.0022922545,0.008328635,-0.07720804214477539,0.006964519619941711,0.22070424258708954,1001.70404,
2021.05.19 18:07:37,33.0,42.0,-10.295029,41.947296,-28.457731,0.001462903,0.7749236,9.690141,0.0024340716,0.008428445,0.011421841,-0.07980048656463623,-1.5096818970050663E-4,0.229335755109787,1001.7039,
2021.05.19 18:07:37,33.0,42.0,-10.339493,43.17525,-27.345556,0.029123912,0.762214,9.74594,-0.00564385,0.009713318,0.015998563,-0.07804913073778152,-0.0029883033130317926,0.22326454520225525,1001.70386,
2021.05.19 18:07:38,33.0,42.0,-10.207375,42.84034,-26.867197,0.02720102,0.76971227,9.650825,-0.011432131,0.00571921,0.005397797,-0.07958732545375824,-0.0028185101691633463,0.22220411896705627,1001.70386,
2021.05.19 18:07:38,33.0,42.0,-10.94873,42.817425,-28.019838,-0.025295407,0.81199807,9.734341,-0.0064911284,0.0011772863,0.010022717,-0.0832228809595108,0.002598568331450224,0.24021421372890472,1001.7038,
2021.05.19 18:07:38,33.0,42.0,-10.306694,42.329525,-27.875559,0.043854818,0.7917524,9.779162,-0.0031456382,0.0053268885,0.014284914,-0.08078619092702866,-0.004484486300498247,0.22519856691360474,1001.7037,
2021.05.19 18:07:38,33.0,42.0,-11.004829,42.76478,-28.66628,0.108373314,0.7530685,9.815337,0.024381611,0.0048846407,-0.01573016,-0.07656899094581604,-0.011040773242712021,0.23397812247276306,1001.7031,
2021.05.19 18:07:38,33.0,42.0,-11.080368,43.38059,-27.615355,0.018606571,0.7678121,9.656823,0.00627084,0.00953304,-0.020277593,-0.07934273779392242,-0.001926777302287519,0.23809979856014252,1001.7031,
2021.05.19 18:07:38,33.0,42.0,-9.963028,42.56776,-28.02455,-0.061929453,0.80508596,9.758784,0.012139538,0.013472769,-0.016160907,-0.08231053501367569,0.006345936097204685,0.22297605872154236,1001.7031,
2021.05.19 18:07:38,33.0,42.0,-9.515572,40.765587,-28.494146,0.06810674,0.73726314,9.634315,0.04081061,-0.007884183,-0.0029176816,-0.07637395709753036,-0.007069065701216459,0.21414819359779358,1001.70245,
2021.05.19 18:07:38,33.0,42.0,-10.385376,43.43898,-28.219126,0.04179111,0.7544408,9.453618,0.02871276,-0.017034587,-0.020393848,-0.0796348974108696,-0.004420618526637554,0.22156153619289398,1001.7023,
2021.05.19 18:07:38,33.0,42.0,-10.338722,43.30375,-29.118296,-0.018916337,0.84203076,9.845329,-0.028118072,-0.002693372,-0.03837802,-0.08531814068555832,0.001921348855830729,0.2240004539489746,1001.7021,
2021.05.19 18:07:38,33.0,42.0,-10.351486,42.486362,-28.303278,-0.04113054,0.86213213,9.854996,0.0159255,-0.025203913,-0.026093723,-0.08725883066654205,0.004173548426479101,0.22963640093803406,1001.7018,
2021.05.19 18:07:38,33.0,42.0,-10.700111,42.48192,-28.21913,0.03221595,0.75363857,9.806318,0.026784576,-0.020992152,-0.0357211,-0.07670116424560547,-0.0032852119766175747,0.2338891476392746,1001.7014,
2021.05.19 18:07:38,33.0,42.0,-10.96534,42.40801,-29.984884,-0.14712845,0.84192795,9.587784,0.033192802,-0.017030157,-0.014390286,-0.08757764846086502,0.015344202518463135,0.24939806759357452,1001.7013,
2021.05.19 18:07:38,33.0,42.0,-10.357056,41.832294,-28.12348,-0.082856454,0.82826185,9.548031,-0.026270177,-2.5960692E-4,0.014637308,-0.086527019739151,0.008677639998495579,0.23591172695159912,1001.70056,
2021.05.19 18:07:39,33.0,42.0,-10.472824,42.267426,-27.153296,0.0058952533,0.8981634,9.7293625,-0.009735868,-6.3413434E-5,-0.006766226,-0.09205380082130432,-6.059238221496344E-4,0.2303629070520401,1001.7004,
2021.05.19 18:07:39,33.0,42.0,-10.269791,42.28595,-27.67758,-0.02309806,0.8236298,9.844987,-0.009226523,-0.0010806319,-0.011273088,-0.08346522599458694,0.002346170600503683,0.2284720093011856,1001.70026,
2021.05.19 18:07:39,33.0,42.0,-11.6204605,42.690865,-28.978212,0.073312916,0.78336906,9.5496025,0.01196396,-0.02710937,-8.1802486E-4,-0.08184592425823212,-0.007676913868635893,0.2484656721353531,1001.69965,
2021.05.19 18:07:39,33.0,42.0,-10.149666,42.173737,-28.059801,0.034978487,0.80899715,9.743522,-0.01935925,-0.003553193,-0.02090055,-0.08283869177103043,-0.0035899069625884295,0.22279983758926392,1001.6993,
2021.05.19 18:07:39,33.0,42.0,-12.062096,41.427536,-27.88711,-0.064967945,0.8962708,9.767865,-0.011001969,-0.0023581854,-0.013617221,-0.09149885177612305,0.00665109371766448,0.2726852595806122,1001.6993,
2021.05.19 18:07:39,33.0,42.0,-11.272491,41.19883,-27.395342,-0.016205274,0.84821105,9.840985,0.012975852,-0.009255657,0.0047726235,-0.08597907423973083,0.0016467110253870487,0.25510650873184204,1001.6993,
2021.05.19 18:07:39,33.0,42.0,-10.360474,41.393463,-26.574362,0.035396665,0.7861681,9.652356,0.0055396054,-4.041086E-4,0.0014197365,-0.08126837760210037,-0.0036671364214271307,0.23211927711963654,1001.699,
2021.05.19 18:07:39,33.0,42.0,-11.791946,42.207764,-28.669474,0.060584027,0.7615054,9.7001,0.0048804237,-0.009486438,-0.01526539,-0.07834269851446152,-0.006245630327612162,0.25621479749679565,1001.6989,
2021.05.19 18:07:39,33.0,42.0,-11.239212,42.501945,-28.80023,-0.0013565408,0.8265686,9.781636,-0.014436823,0.011375373,-0.012678539,-0.08430179953575134,1.3868240057490766E-4,0.24601314961910248,1001.6988,
2021.05.19 18:07:39,33.0,42.0,-12.4347,41.726456,-28.58486,-0.014847677,0.8433864,9.677948,0.0017020778,0.004086023,-0.014193159,-0.08692546933889389,0.0015341750113293529,0.2760554850101471,1001.6988,
2021.05.19 18:07:39,33.0,42.0,-11.26976,41.878616,-27.42737,0.064396,0.8031078,9.679323,-9.6627185E-4,-0.0030872414,0.0019538435,-0.08278004080057144,-0.0066528464667499065,0.2467900961637497,1001.6981,
2021.05.19 18:07:39,33.0,42.0,-9.543259,42.14846,-28.76301,0.010768532,0.8266239,9.715682,-0.0069500506,0.007101905,-0.007468429,-0.08487694710493088,-0.001108365599066019,0.2108646035194397,1001.6979,
2021.05.19 18:07:39,33.0,42.0,-9.547218,43.2662,-27.257215,0.012198344,0.81881166,9.732611,-0.009237094,0.0029903566,-0.009209938,-0.08393301069736481,-0.0012533469125628471,0.2065502107143402,1001.6975,
2021.05.19 18:07:40,33.0,42.0,-11.538208,43.373444,-29.108656,0.033108,0.8046176,9.709979,-0.0125818895,-1.249887E-4,-0.010005617,-0.08267565071582794,-0.003409674856811762,0.24561379849910736,1001.6973,
2021.05.19 18:07:40,33.0,42.0,-10.635078,43.14466,-28.157953,0.006216995,0.8062792,9.737632,-0.014084383,-8.8305166E-4,-0.007961693,-0.08261186629533768,-6.384503212757409E-4,0.2301117479801178,1001.6962,
2021.05.19 18:07:40,33.0,42.0,-10.320526,41.89628,-27.495443,0.0026655828,0.7799442,9.701947,-0.0132519575,-0.002119833,-0.011716511,-0.08021796494722366,-2.7474717353470623E-4,0.23040637373924255,1001.6962,
2021.05.19 18:07:40,33.0,42.0,-11.4644165,42.20083,-27.531942,-0.019747315,0.7737295,9.722898,-0.015949985,0.0015814727,-0.009581257,-0.07941056787967682,0.002031008480116725,0.254692018032074,1001.6962,
2021.05.19 18:07:40,33.0,42.0,-10.760361,42.363632,-28.244932,0.0025690906,0.81128305,9.7006445,-0.02065855,0.0098595945,-0.0025407532,-0.08343770354986191,-2.6483708643354475E-4,0.23673205077648163,1001.6962,
2021.05.19 18:07:40,33.0,42.0,-11.082901,42.124245,-27.905458,0.04000475,0.7641239,9.851787,0.0017181413,-0.0023551944,-0.011774601,-0.07740635424852371,-0.00406063674017787,0.24347823858261108,1001.6946,
2021.05.19 18:07:40,33.0,42.0,-11.453842,43.717888,-28.486872,-0.020509996,0.7843217,9.76276,0.011996648,-0.008688655,-0.0062578176,-0.08016576617956161,0.0021008369512856007,0.2459937334060669,1001.6946,
2021.05.19 18:07:40,33.0,42.0,-11.861893,41.90001,-28.017282,-0.011147107,0.76836777,9.630505,-0.0047179237,-0.005503248,0.002702312,-0.07961609214544296,0.001157478429377079,0.26404672861099243,1001.69434,
2021.05.19 18:07:40,33.0,42.0,-10.937401,40.948906,-28.652697,0.04289787,0.7237654,9.765185,0.0017975116,-0.009349458,-0.010532503,-0.0739809200167656,-0.004392911214381456,0.24655255675315857,1001.6939,
2021.05.19 18:07:40,33.0,42.0,-10.375877,41.914024,-28.603945,-0.039119508,0.7714295,9.715591,-0.001797708,-0.005534613,-0.01578808,-0.07923430949449539,0.004026445560157299,0.23383942246437073,1001.6937,
2021.05.19 18:07:40,33.0,42.0,-11.503418,43.169544,-29.235579,-0.0073974566,0.77767664,9.747508,-0.0048270132,-0.014223796,-0.007423879,-0.07961343228816986,7.589072920382023E-4,0.24884076416492462,1001.6933,
2021.05.19 18:07:40,33.0,42.0,-11.395042,42.69559,-27.298273,0.074264444,0.7239191,9.749286,0.0025325578,-0.008569749,-0.010882797,-0.07411539554595947,-0.007617276627570391,0.24572217464447021,1001.6931,
2021.05.19 18:07:40,33.0,42.0,-10.790482,42.127014,-27.510801,-0.0019479096,0.75637597,9.611589,-0.016865388,0.0063303886,-0.008307829,-0.07853231579065323,2.02662602532655E-4,0.23979753255844116,1001.6926,
2021.05.19 18:07:40,33.0,42.0,-11.761368,42.767117,-27.417425,-0.028830223,0.7957356,9.748916,-0.010807213,-0.0010351517,-0.0010303743,-0.08144208043813705,0.002957266056910157,0.2581363022327423,1001.6926,
2021.05.19 18:07:41,33.0,42.0,-10.740143,42.666985,-28.459723,0.02826558,0.77470464,9.833512,0.0035764691,-0.0032942293,0.0057632034,-0.07861937582492828,-0.002874405588954687,0.23370316624641418,1001.6926,
2021.05.19 18:07:41,33.0,42.0,-11.704407,41.679955,-29.389189,0.058456656,0.7517242,9.696388,0.008622964,-0.0028677408,-0.0073880306,-0.0773700401186943,-0.006028630770742893,0.2571575939655304,1001.6926,
2021.05.19 18:07:41,33.0,42.0,-11.325485,40.357502,-28.490335,0.006419782,0.7521402,9.746207,4.3100317E-4,0.001967091,8.386136E-4,-0.07701992988586426,-6.586953531950712E-4,0.26042401790618896,1001.6926,
2021.05.19 18:07:41,33.0,42.0,-11.437584,42.370144,-28.243597,-0.0076380097,0.7855723,9.761833,-0.0028104072,0.0037361553,-0.0041799,-0.08030077815055847,7.824358763173223E-4,0.2520529627799988,1001.6926,
2021.05.19 18:07:41,33.0,42.0,-10.921494,42.900402,-27.759817,0.024361787,0.76181656,9.700207,0.0017168169,0.002456978,0.007627416,-0.07837499678134918,-0.0025114654563367367,0.23691430687904358,1001.6926,
2021.05.19 18:07:41,33.0,42.0,-10.660561,42.355293,-28.200071,0.03860149,0.73585624,9.6776285,-4.214747E-5,0.0034176698,0.0038407962,-0.0758901983499527,-0.00398871349170804,0.23337213695049286,1001.6926,
2021.05.19 18:07:41,33.0,42.0,-11.93367,42.733475,-29.17631,-0.037137344,0.7678172,9.745736,-0.0077894516,0.0013346552,0.007669397,-0.07862196117639542,0.0038106064312160015,0.2621460556983948,1001.6926,
2021.05.19 18:07:41,33.0,42.0,-11.1034775,41.75889,-27.127779,-0.047161777,0.76434135,9.69281,-0.010907784,1.6031992E-4,0.021448484,-0.07869275659322739,0.004865606781095266,0.2513318657875061,1001.6926,
2021.05.19 18:07:41,33.0,42.0,-9.983765,43.453262,-28.553068,0.043711346,0.74112684,9.729799,-0.012237033,-0.0017859552,0.01319843,-0.07602325826883316,-0.004492492880672216,0.21330799162387848,1001.6926,
2021.05.19 18:07:41,33.0,42.0,-11.557632,44.042847,-27.989885,0.10396,0.7408356,9.830615,-0.015502636,0.0041349633,0.008894803,-0.07521367818117142,-0.010574732907116413,0.23992913961410522,1001.6926,
2021.05.19 18:07:41,33.0,42.0,-12.002693,42.495987,-28.069456,0.015316841,0.7562763,9.697754,0.00844982,-0.007558044,-0.014238571,-0.0778270736336708,-0.0015794201754033566,0.2622368335723877,1001.6931,
2021.05.19 18:07:41,33.0,42.0,-11.300453,42.614155,-27.94597,0.0010386441,0.7391754,9.68102,0.00281722,-0.009105967,-0.01401931,-0.07620519399642944,-1.0728664346970618E-4,0.247991144657135,1001.6931,
2021.05.19 18:07:41,33.0,42.0,-10.7942505,43.190582,-26.835108,0.008422828,0.7628696,9.75258,-0.0010079902,-0.008248702,-0.011328088,-0.07806335389614105,-8.636510465294123E-4,0.23417232930660248,1001.6931,
2021.05.19 18:07:42,33.0,42.0,-10.589996,41.20883,-27.939512,0.028483564,0.7596941,9.786723,0.006275258,-0.004595947,-0.018403279,-0.07746928930282593,-0.002910420997068286,0.2383558452129364,1001.6931,
2021.05.19 18:07:42,33.0,42.0,-10.465584,42.10225,-28.091654,0.022055844,0.7655038,9.700311,0.006062464,-0.013023579,-0.014270966,-0.07875198125839233,-0.002273721620440483,0.23120945692062378,1001.6931,
2021.05.19 18:07:42,33.0,42.0,-11.926987,43.371292,-27.64826,0.056219775,0.7455394,9.719296,0.0028340425,-0.010761207,-0.022295667,-0.07655594497919083,-0.005784281529486179,0.2537940442562103,1001.6931,
2021.05.19 18:07:42,33.0,42.0,-12.0497055,42.5756,-28.002016,-0.04953274,0.7404912,9.662913,0.0048952512,-0.016313493,-0.016081812,-0.07648181170225143,0.005126022268086672,0.2669466733932495,1001.6931,
2021.05.19 18:07:42,33.0,42.0,-11.115944,43.14303,-26.876158,-0.027339851,0.755068,9.748428,-0.0017653501,-0.011601532,-0.0042876685,-0.07730071991682053,0.0028045319486409426,0.24329674243927002,1001.69336,
2021.05.19 18:07:42,33.0,42.0,-10.812157,42.99816,-28.102407,0.02542763,0.81507915,9.732301,4.9165683E-5,-0.014962573,0.010888508,-0.08355462551116943,-0.002612699056044221,0.23327778279781342,1001.6941,
2021.05.19 18:07:42,33.0,42.0,-10.439842,41.965065,-28.229616,0.122159906,0.73212403,9.800543,0.013928468,-0.01295815,0.0098509025,-0.07455813884735107,-0.01246396079659462,0.2255541831254959,1001.69415,
2021.05.19 18:07:42,33.0,42.0,-11.79274,41.81746,-28.536467,0.06138139,0.7362558,9.614761,-0.0046320707,-0.0043063406,0.0063304487,-0.07642486691474915,-0.006383991334587336,0.2586657702922821,1001.69434,
2021.05.19 18:07:42,33.0,42.0,-10.999077,43.08258,-28.170923,0.061841924,0.75653505,9.694442,-0.017499506,0.0028805372,0.0045384797,-0.07787860929965973,-0.0063790250569581985,0.23519662022590637,1001.6946,
2021.05.19 18:07:42,33.0,42.0,-11.083504,42.025963,-27.814066,-0.029814586,0.8015077,9.728375,-0.010125105,-0.005482235,0.020819487,-0.08220259845256805,0.003064693883061409,0.24769233167171478,1001.6947,
2021.05.19 18:07:42,33.0,42.0,-11.008583,42.619534,-28.310984,0.111949585,0.73507184,9.684291,-0.017033996,-0.006447164,0.02349335,-0.07575321942567825,-0.011559400707483292,0.23479820787906647,1001.6947,
2021.05.19 18:07:42,33.0,42.0,-10.776627,42.35762,-28.08653,0.082479075,0.74383706,9.809084,-0.023078881,0.0043595503,0.008314062,-0.07568393647670746,-0.008408240042626858,0.2332431972026825,1001.69476,
2021.05.19 18:07:42,33.0,42.0,-11.23848,42.120934,-28.356554,0.15466674,0.7263492,9.710274,-0.01012014,-0.012357932,0.014585545,-0.07465364784002304,-0.01592680811882019,0.23969408869743347,1001.69476,
2021.05.19 18:07:43,33.0,42.0,-12.424469,42.081196,-27.218256,0.07105584,0.76109284,9.776925,-0.009794429,0.009296453,-0.014788959,-0.077687107026577,-0.007267579901963472,0.2706027328968048,1001.695,
2021.05.19 18:07:43,33.0,42.0,-10.023903,43.982582,-27.328192,0.12061241,0.74367493,9.728684,-0.0036121977,-0.0054435777,-0.006092328,-0.07628726214170456,-0.012396971695125103,0.2077328860759735,1001.695,
2021.05.19 18:07:43,33.0,42.0,-10.764175,41.033524,-26.828794,0.10603669,0.65003294,9.825831,0.019009102,-0.010607813,-0.021006018,-0.06605542451143265,-0.010791206732392311,0.24042247235774994,1001.695,
2021.05.19 18:07:43,33.0,42.0,-12.102135,42.291878,-27.513891,0.043365512,0.67327243,9.550384,-0.02295257,0.011469614,-0.02045337,-0.07037973403930664,-0.004540677648037672,0.2650442123413086,1001.695,
2021.05.19 18:07:43,33.0,42.0,-11.959839,43.681946,-27.454859,0.089086495,0.7073032,9.911733,-0.030440966,0.018779732,-0.03405078,-0.07123657315969467,-0.00898774154484272,0.25177550315856934,1001.6951,
2021.05.19 18:07:43,33.0,42.0,-11.991394,42.88823,-27.166185,-0.078697026,0.7506485,9.698373,0.004901586,-0.0035798238,-0.046652477,-0.0772428885102272,0.008114278316497803,0.26583409309387207,1001.69543,
2021.05.19 18:07:43,33.0,42.0,-11.751411,42.909065,-27.95109,-0.0537564,0.6503379,9.711225,0.009632189,-0.010574736,-0.010838684,-0.06686677783727646,0.005535434931516647,0.2604403495788574,1001.6955,
2021.05.19 18:07:43,33.0,42.0,-11.302238,43.602882,-29.70706,0.068963446,0.6910169,9.598776,-0.019537885,0.004935939,0.019519208,-0.07186427712440491,-0.0071844845078885555,0.23839280009269714,1001.6956,
2021.05.19 18:07:43,33.0,42.0,-11.6150055,42.965744,-26.916887,0.10133026,0.7160323,9.797311,-0.015328973,-0.0045661875,0.02124674,-0.07295098155736923,-0.010342291556298733,0.2477172464132309,1001.6957,
2021.05.19 18:07:43,33.0,42.0,-11.639694,42.725502,-28.030172,0.097779155,0.7350511,9.761016,-0.0060195364,-0.007988317,0.015818981,-0.07515915483236313,-0.010016977787017822,0.2487376183271408,1001.69574,
2021.05.19 18:07:43,33.0,42.0,-10.256325,43.619503,-27.921003,0.13183399,0.6662195,9.783343,-0.0073121646,-0.0070812306,0.009874096,-0.06798620522022247,-0.013474535197019577,0.2141498476266861,1001.6959,
2021.05.19 18:07:43,33.0,42.0,-11.57711,43.477276,-28.041182,0.11253535,0.6841197,9.721944,-3.170101E-4,-7.7107304E-4,-0.0045771897,-0.07024812698364258,-0.011574879288673401,0.2432113140821457,1001.6959,
2021.05.19 18:07:43,33.0,42.0,-11.312241,43.329285,-28.925276,0.049561094,0.7292126,9.745204,0.0024070558,-0.0016125215,-0.017062219,-0.07468768954277039,-0.005085647106170654,0.2412872612476349,1001.69604,
2021.05.19 18:07:44,33.0,42.0,-10.806198,42.301453,-28.086035,0.10124243,0.7226715,9.809065,0.016987374,-0.018023487,-0.0166255,-0.07353708148002625,-0.01032094657421112,0.23327192664146423,1001.69775,
2021.05.19 18:07:44,33.0,42.0,-11.050964,41.670097,-29.024157,0.106232196,0.72869134,9.6782055,0.013909088,-0.007449537,-0.006147071,-0.07514568418264389,-0.010975994169712067,0.24059773981571198,1001.69775,
2021.05.19 18:07:44,33.0,42.0,-11.879997,42.18711,-28.333155,0.10760007,0.7028058,9.738925,0.012384045,-0.0071648294,-0.0077822423,-0.07203535735607147,-0.01104800496250391,0.2563502788543701,1001.69916,
2021.05.19 18:07:44,33.0,42.0,-11.633179,43.038376,-29.031801,0.026175551,0.80159783,9.716421,0.019671952,-0.014184074,0.019819962,-0.08231258392333984,-0.0026939434465020895,0.24984408915042877,1001.6994,
2021.05.19 18:07:44,33.0,42.0,-12.043854,42.059624,-28.494825,0.052442025,0.77292275,10.049458,0.010908835,0.03061226,-0.005163884,-0.07675972580909729,-0.0052183461375534534,0.26331180334091187,1001.69995,
