Time,X-cord,Y-cord,Mag_x,Mag_y,Mag_z,Acc_x,Acc_y,Acc_z,Gyro_x,Gyro_y,Gyro_z,Orn_x,Orn_y,Orn_z,Pressure,
2021.05.19 17:52:28,112.0,59.0,10.5583725,6.502018,-26.047983,-0.13384677,0.7897196,10.125115,0.042858288,-0.048634257,0.12816763,-0.07783175259828568,0.013218513689935207,-0.8756324648857117,1001.5906,
2021.05.19 17:52:28,112.0,59.0,10.399109,5.727317,-26.069475,0.187371,0.6132923,9.620656,-0.033771075,0.0091935685,0.06843038,-0.06364927440881729,-0.019473444670438766,-0.977047324180603,1001.5791,
2021.05.19 17:52:28,112.0,59.0,10.082535,5.626296,-24.583143,0.2795821,0.41917017,9.690652,0.010114882,0.017048147,0.075811714,-0.04321019724011421,-0.028842700645327568,-1.0170178413391113,1001.58044,
2021.05.19 17:52:28,112.0,59.0,10.272072,5.372325,-25.005102,0.1679364,0.47844434,9.593827,0.009049629,-0.017050903,0.020424508,-0.049821119755506516,-0.01750284433364868,-1.0183181762695312,1001.58093,
2021.05.19 17:52:28,112.0,59.0,9.498856,5.8243275,-25.4764,-0.030105362,0.5732215,9.8118105,7.965417E-4,0.0026797575,-0.039132085,-0.058354977518320084,0.003068268299102783,-0.9114239811897278,1001.58124,
2021.05.19 17:52:28,112.0,59.0,9.763634,6.075472,-24.534136,-0.07824304,0.570131,9.906579,-0.011873618,0.030448075,-0.04133674,-0.05748554691672325,0.00789792463183403,-0.907386839389801,1001.5818,
2021.05.19 17:52:28,112.0,59.0,10.22979,6.043236,-26.637888,-0.095345534,0.6188328,9.383328,0.058372997,0.0041722264,-0.0491116,-0.06585148721933365,0.010160813108086586,-0.9069947600364685,1001.5821,
2021.05.19 17:52:28,112.0,59.0,10.813591,5.6763477,-25.33378,-0.10246805,0.6441553,9.673135,-0.033828266,0.002724652,-0.018724944,-0.0664902999997139,0.010592659004032612,-0.9617727994918823,1001.5821,
2021.05.19 17:52:29,112.0,59.0,10.848221,5.806776,-26.01549,-0.09980675,0.6568935,9.875983,0.0045139324,0.021761402,-0.043894064,-0.0664130225777626,0.010105662047863007,-0.9526073336601257,1001.5821,
2021.05.19 17:52:29,112.0,59.0,10.365158,5.0733213,-25.380838,-0.08794751,0.62858754,9.951564,0.054480165,-8.131884E-4,-0.03387887,-0.06307844072580338,0.008837327361106873,-0.9890625476837158,1001.5821,
2021.05.19 17:52:29,112.0,59.0,10.462921,4.756385,-26.46219,-0.14430845,0.58580786,9.663769,0.028551891,7.0908794E-4,-0.014811106,-0.0605381615459919,0.01493182685226202,-1.007475733757019,1001.5821,
2021.05.19 17:52:29,112.0,59.0,10.075783,5.2114506,-26.188513,-0.21287507,0.69981223,9.625687,0.020183079,0.0059183086,-0.017556418,-0.07255721092224121,0.02211170829832554,-0.9278885126113892,1001.5821,
2021.05.19 17:52:29,112.0,59.0,10.029243,6.8618755,-23.881712,-0.11051724,0.7091474,9.765503,-0.013161791,0.0241183,0.013354199,-0.07248573005199432,0.011316623538732529,-0.849477231502533,1001.5846,
2021.05.19 17:52:29,112.0,59.0,11.198326,5.8248186,-25.35604,0.013707686,0.6437137,9.90122,-0.026748184,0.028298602,0.029696632,-0.06492213904857635,-0.0013844432542100549,-0.9847927689552307,1001.5843,
2021.05.19 17:52:29,112.0,59.0,10.818535,4.269368,-25.012667,-0.06440524,0.54991764,9.777194,0.03245901,0.016233452,-0.011653457,-0.05618452653288841,0.006587198004126549,-1.0816211700439453,1001.58307,
2021.05.19 17:52:29,112.0,59.0,10.026688,4.929367,-25.549917,-0.2424695,0.574699,9.600979,0.0016097331,0.020917106,0.0017342777,-0.05976802110671997,0.02524929866194725,-0.967519223690033,1001.5821,
2021.05.19 17:52:29,112.0,59.0,9.933609,5.851774,-24.30472,-0.2784189,0.60934764,9.712854,0.0048748874,0.024418075,0.018002817,-0.06262844055891037,0.02865714393556118,-0.8965729475021362,1001.58167,
2021.05.19 17:52:29,112.0,59.0,10.611404,6.1672125,-24.09973,-0.13625215,0.6148676,9.706124,-0.0037748565,0.007627292,0.023159273,-0.06325766444206238,0.014036828652024269,-0.9283207058906555,1001.58093,
2021.05.19 17:52:29,112.0,59.0,10.142113,6.352355,-23.375982,-0.16495578,0.5834982,9.840105,-0.00132677,0.013406904,0.009065151,-0.05922030285000801,0.01676204800605774,-0.9001021981239319,1001.5793,
2021.05.19 17:52:29,112.0,59.0,10.681625,4.904686,-24.576422,-0.23417985,0.664393,9.536256,0.015138306,-0.016326174,-0.00398626,-0.06953692436218262,0.024551859125494957,-0.9895985722541809,1001.5793,
2021.05.19 17:52:29,112.0,59.0,11.058426,4.6415005,-25.129183,-0.1631387,0.680388,9.690136,-0.021588724,-0.011032359,0.019071026,-0.07008954137563705,0.01683395355939865,-1.028827428817749,1001.5793,
2021.05.19 17:52:30,112.0,59.0,10.324577,5.2062387,-24.9489,-0.063380726,0.6208319,9.843957,-0.03546446,-0.012329411,0.028450001,-0.06298259645700455,0.006438452750444412,-0.9831647872924805,1001.58,
2021.05.19 17:52:30,112.0,59.0,10.075806,5.4944344,-25.829618,-0.06448231,0.6075979,9.718551,-0.013930923,-0.024091773,0.015762536,-0.062436752021312714,0.006634874735027552,-0.9488709568977356,1001.58167,
2021.05.19 17:52:30,112.0,59.0,10.849564,4.5982256,-24.98356,-0.06507575,0.57870775,9.725777,-0.015680395,-0.016634606,0.0029426436,-0.05943107604980469,0.006690959446132183,-1.053471326828003,1001.58167,
2021.05.19 17:52:30,112.0,59.0,11.165459,4.7912655,-25.24814,-0.04202214,0.59939027,9.749903,-0.015936105,-0.022138659,-0.004406167,-0.061398696154356,0.0043099792674183846,-1.0505337715148926,1001.5821,
2021.05.19 17:52:30,112.0,59.0,11.391609,5.6173525,-25.25575,0.0025782087,0.5883789,9.77678,-0.013524505,-0.01764689,-0.015510311,-0.06010876223444939,-2.637073048390448E-4,-1.012178897857666,1001.5844,
2021.05.19 17:52:30,112.0,59.0,10.776306,5.274269,-24.9344,-0.10018262,0.60839826,9.71296,-0.003382779,-0.011782974,-0.035202865,-0.06255273520946503,0.010313957929611206,-0.9949259161949158,1001.5846,
2021.05.19 17:52:30,112.0,59.0,10.380951,4.9511147,-24.558088,-0.11119419,0.5945137,9.7829895,-0.0059040766,-0.0015306262,-0.028218107,-0.06069159507751465,0.011365585029125214,-1.0033208131790161,1001.5864,
2021.05.19 17:52:30,112.0,59.0,10.48407,5.1293125,-26.753122,-0.06657674,0.5754602,9.710168,-0.0011825496,0.012580747,-0.026149534,-0.059193044900894165,0.0068562873639166355,-0.993605375289917,1001.58795,
2021.05.19 17:52:30,112.0,59.0,10.60305,6.870116,-25.599989,-0.08028268,0.58739275,9.722352,3.985354E-4,0.012139617,-0.023210732,-0.060341332107782364,0.008257349021732807,-0.8905872106552124,1001.5883,
2021.05.19 17:52:30,112.0,59.0,10.871407,6.427887,-25.19127,-0.08261254,0.5843765,9.779611,-0.0057782074,0.028221365,-0.018656667,-0.0596814826130867,0.008447225205600262,-0.9314660429954529,1001.5883,
2021.05.19 17:52:30,112.0,59.0,11.013832,5.9010286,-25.607237,-0.15920433,0.6082012,9.764794,-0.0039013594,0.045815717,-0.0019453466,-0.06219649687409401,0.01630246639251709,-0.9552866816520691,1001.5883,
2021.05.19 17:52:30,112.0,59.0,10.921173,6.6340275,-25.78721,-0.18181203,0.65464336,9.770549,-0.023745347,0.029168982,0.021617286,-0.0668901577591896,0.018606022000312805,-0.8957931995391846,1001.5883,
2021.05.19 17:52:30,112.0,59.0,11.415314,5.0428286,-24.732855,-0.081594236,0.5250711,9.745349,0.014226663,0.0012921377,-1.8624682E-4,-0.053825218230485916,0.00837243814021349,-1.0538896322250366,1001.5883,
2021.05.19 17:52:30,112.0,59.0,10.852303,5.928191,-24.934095,-0.10360589,0.4821628,9.727096,0.008249325,0.004014224,-0.013464321,-0.04952569678425789,0.010650863870978355,-0.9760534763336182,1001.5883,
2021.05.19 17:52:31,112.0,59.0,10.693573,4.81619,-24.15584,-0.16899781,0.522566,9.648481,-2.6011234E-4,-0.007124943,-0.017628549,-0.054099299013614655,0.017513690516352654,-1.032965064048767,1001.5883,
2021.05.19 17:52:31,112.0,59.0,10.113625,6.042244,-24.433516,-0.1910066,0.5719152,9.653237,-0.019904783,0.0015483206,-0.005547818,-0.05916522070765495,0.01978420838713646,-0.9097965955734253,1001.58856,
2021.05.19 17:52:31,112.0,59.0,10.830032,5.967697,-24.94921,-0.15072168,0.5844563,9.820746,-0.0013235707,-0.012274527,-0.0105810175,-0.059435322880744934,0.015346068888902664,-0.9513401985168457,1001.58856,
2021.05.19 17:52:31,112.0,59.0,10.6523285,5.060095,-24.654108,-0.1474965,0.590058,9.703587,-0.0064650252,-0.010025953,-0.004219992,-0.060726456344127655,0.015199035406112671,-1.0028812885284424,1001.58856,
2021.05.19 17:52:31,112.0,59.0,11.051338,6.1481094,-25.666906,-0.109942354,0.5279205,9.74557,-0.005853908,-0.017480738,-0.019075356,-0.05411396920681,0.01128078531473875,-0.9599920511245728,1001.58856,
2021.05.19 17:52:31,112.0,59.0,13.07489,5.897872,-25.81735,-0.20139058,0.5811978,9.64717,-0.019889368,-0.0060821264,-0.0066815047,-0.06015961244702339,0.020872579887509346,-1.0341652631759644,1001.58856,
2021.05.19 17:52:31,112.0,59.0,11.460884,5.685218,-25.610281,-0.1884936,0.5478319,9.81862,-0.0026603409,-0.009253694,0.003078327,-0.055727165192365646,0.019195206463336945,-0.9953095316886902,1001.58856,
2021.05.19 17:52:31,112.0,59.0,10.986069,5.4955044,-25.039473,-0.20995308,0.56775755,9.549272,-0.036542825,-5.313996E-4,0.024840299,-0.05937136337161064,0.021982751786708832,-0.9807925820350647,1001.58856,
2021.05.19 17:52:31,112.0,59.0,11.006264,5.834242,-26.071852,-0.0020588674,0.4972326,9.979108,-0.010069037,0.01212798,-0.0120971175,-0.04978618398308754,2.0631776715163141E-4,-0.9960822463035583,1001.58856,
2021.05.19 17:52:31,112.0,59.0,11.251404,5.8962994,-25.055346,-0.22297907,0.6141753,9.735097,0.013167443,-0.014732813,0.0154720675,-0.06298878788948059,0.0229006540030241,-0.9597392082214355,1001.58856,
2021.05.19 17:52:31,112.0,59.0,11.082542,6.8044796,-25.398745,-0.0862287,0.54291826,9.706419,0.0062874695,-0.007907807,0.011194538,-0.05587351694703102,0.008883444592356682,-0.9228696823120117,1001.58856,
2021.05.19 17:52:31,112.0,59.0,11.087486,6.479494,-24.989,-0.11739466,0.5308486,9.746825,0.003916542,0.012816984,-0.007996492,-0.054406050592660904,0.012043817900121212,-0.9424982666969299,1001.58856,
2021.05.19 17:52:31,112.0,59.0,9.911873,6.000869,-24.832644,-0.14151207,0.5520802,9.651156,0.015529084,-0.002590936,-0.0020765262,-0.05713512748479843,0.014661654829978943,-0.9102734923362732,1001.58856,
2021.05.19 17:52:31,112.0,59.0,10.5277405,5.994295,-24.568975,-0.09222174,0.50671405,9.732606,-1.9197282E-4,0.0035415085,0.009452691,-0.05201425775885582,0.009475260972976685,-0.9560043215751648,1001.58856,
2021.05.19 17:52:32,112.0,59.0,11.766731,5.5731096,-25.262178,-0.14818649,0.571945,9.693976,-0.0037624293,0.0026284764,-0.0063751554,-0.05892485752701759,0.015285259112715721,-1.0153919458389282,1001.58966,
2021.05.19 17:52:32,112.0,59.0,11.207069,6.075672,-25.144724,-0.15242559,0.552366,9.8338,0.0030008561,0.0013538962,0.0017818068,-0.05610446259379387,0.015498929657042027,-0.9653979539871216,1001.5899,
2021.05.19 17:52:32,112.0,59.0,11.146561,5.2116547,-26.29217,-0.1512372,0.5260624,9.725759,0.009729238,-0.0012337832,-0.0040674973,-0.05403043329715729,0.015548917464911938,-1.0173801183700562,1001.5899,
2021.05.19 17:52:32,112.0,59.0,11.5357895,4.5909643,-25.199888,-0.1835565,0.5387053,9.645259,-0.008690435,0.002995868,0.003293049,-0.055783774703741074,0.019028451293706894,-1.0734561681747437,1001.5901,
2021.05.19 17:52:32,112.0,59.0,11.615952,5.432358,-25.6099,-0.16714491,0.54643005,9.778903,-0.009071531,1.1231816E-4,0.009246891,-0.055812276899814606,0.017090734094381332,-1.0200848579406738,1001.59015,
2021.05.19 17:52:32,112.0,59.0,11.6334305,6.7592583,-25.642923,-0.16740413,0.56160396,9.723743,0.0031974902,-2.6687823E-4,0.010477332,-0.057683322578668594,0.017214316874742508,-0.9362212419509888,1001.59015,
2021.05.19 17:52:32,112.0,59.0,11.260216,6.087785,-25.004564,-0.14073892,0.545527,9.661479,0.022225492,-0.008731453,0.0067467024,-0.056398261338472366,0.014565985649824142,-0.9681051969528198,1001.59015,
2021.05.19 17:52:32,112.0,59.0,11.457558,5.9183397,-25.244173,-0.14954859,0.5552042,9.752392,-0.012997309,-0.001003838,0.01751717,-0.0568620003759861,0.015333353541791439,-0.9844330549240112,1001.59015,
2021.05.19 17:52:32,112.0,59.0,9.67765,4.7882977,-25.35914,-0.12866779,0.5371584,9.758773,-0.010868365,-0.002336017,0.01834778,-0.054983388632535934,0.013184068724513054,-0.9862653017044067,1001.59015,
2021.05.19 17:52:32,112.0,59.0,11.224434,4.670101,-25.945314,-0.12097611,0.5264363,9.710633,0.0010896369,-0.015844025,0.005982541,-0.0541551448404789,0.012457462958991528,-1.0623427629470825,1001.59015,
2021.05.19 17:52:32,112.0,59.0,9.441071,3.6973019,-23.69855,-0.1237639,0.5688985,9.666535,-0.018680891,0.009091945,-0.0032942924,-0.0587797537446022,0.012802636250853539,-1.062524437904358,1001.59015,
2021.05.19 17:52:32,112.0,59.0,10.730171,5.882515,-23.985811,-0.1002573,0.51351005,9.860496,-0.004647591,-0.0057791914,-0.010886677,-0.05202782154083252,0.010167221538722515,-0.9738010168075562,1001.59015,
2021.05.19 17:52:32,112.0,59.0,11.598679,6.895504,-25.050303,-0.14497428,0.5129225,9.728976,5.914781E-4,-0.0015299415,-0.015197301,-0.052666518837213516,0.01490018516778946,-0.9390591382980347,1001.59015,
2021.05.19 17:52:32,112.0,59.0,10.342804,4.8918056,-25.293154,-0.14105436,0.5077679,9.7956915,-0.01232874,0.001841506,-0.0053240126,-0.05178413167595863,0.014398638159036636,-1.0146479606628418,1001.5901,
2021.05.19 17:52:33,112.0,59.0,10.607788,5.5603867,-25.368906,-0.109606266,0.49547026,9.794445,-0.0033560295,-0.0020811146,-0.0097878985,-0.05054061859846115,0.01119018904864788,-0.9855717420578003,1001.5901,
2021.05.19 17:52:33,112.0,59.0,10.918587,6.599374,-25.537874,-0.14980222,0.51942724,9.695994,0.0039127297,-0.0019898582,-0.014683243,-0.0535137876868248,0.015448679216206074,-0.9228893518447876,1001.5899,
2021.05.19 17:52:33,112.0,59.0,10.866165,6.2877655,-25.10798,-0.097003914,0.502598,9.754649,-0.0018927155,-0.0075942026,-0.012577539,-0.0514758825302124,0.009944049641489983,-0.9509217739105225,1001.5899,
2021.05.19 17:52:33,112.0,59.0,10.587418,4.962906,-25.150782,-0.08964497,0.50697637,9.790923,-0.004693296,-0.0069592507,-0.017108377,-0.05173187330365181,0.009155670180916786,-1.0269958972930908,1001.58966,
2021.05.19 17:52:33,112.0,59.0,10.245773,7.3704977,-23.033205,-0.10140718,0.505446,9.646705,-0.008336987,-0.0051534222,-0.030128958,-0.05234495922923088,0.010511718690395355,-0.8623422980308533,1001.5885,
2021.05.19 17:52:33,112.0,59.0,11.207764,6.0673428,-25.370459,-0.1313439,0.47464743,9.7991495,0.0047875545,-0.016629957,-0.038457997,-0.04839545115828514,0.01340280007570982,-0.9795995354652405,1001.5885,
2021.05.19 17:52:33,112.0,59.0,10.600037,7.3873453,-25.764395,-0.13158695,0.5201866,9.806264,-0.009823331,-7.6451607E-4,-0.021434136,-0.05299192667007446,0.013417858630418777,-0.8643988966941833,1001.58844,
2021.05.19 17:52:33,112.0,59.0,9.7385025,6.6703863,-24.62047,-0.16204904,0.5273169,9.755727,0.008196978,-0.002631695,-0.024641247,-0.05399206280708313,0.016609128564596176,-0.8620322942733765,1001.58844,
2021.05.19 17:52:33,112.0,59.0,11.054756,5.383333,-26.31782,-0.13826889,0.54957014,9.711365,0.014175244,-0.008407791,-0.020844055,-0.05652439966797829,0.014236882328987122,-0.9991121292114258,1001.58844,
2021.05.19 17:52:33,112.0,59.0,8.771698,8.200028,-24.403978,-0.09940586,0.5294097,9.763657,0.009530063,-0.005401741,-0.01354275,-0.054166633635759354,0.010180860757827759,-0.7304985523223877,1001.58844,
2021.05.19 17:52:33,112.0,59.0,11.433853,7.1665277,-25.42364,-0.13090782,0.54948545,9.763946,0.016860807,-0.007281765,-0.01573528,-0.0562126524746418,0.013406463898718357,-0.9117243885993958,1001.58844,
2021.05.19 17:52:33,112.0,59.0,11.373161,6.4576607,-25.086607,-0.17646492,0.58608073,9.677247,0.0039786473,-0.0015210481,-3.6850106E-5,-0.06047884374856949,0.018233012408018112,-0.9397836327552795,1001.5883,
2021.05.19 17:52:33,112.0,59.0,9.233765,6.6292315,-26.422327,-0.114904344,0.5555744,9.766766,0.009331368,-0.0051906267,-6.5012276E-4,-0.05681901052594185,0.011764287948608398,-0.8321285843849182,1001.5882,
2021.05.19 17:52:34,112.0,59.0,10.602455,7.4565496,-24.704737,-0.102268554,0.55976385,9.688952,0.0043841163,-0.007917651,-0.0032288667,-0.05770605802536011,0.010554779320955276,-0.8615281581878662,1001.5882,
2021.05.19 17:52:34,112.0,59.0,10.343857,6.149646,-25.85274,-0.10984669,0.60287875,9.692451,-0.005869803,-0.0016326725,-0.0066890265,-0.062116846442222595,0.011332736350595951,-0.9139214754104614,1001.5882,
2021.05.19 17:52:34,112.0,59.0,11.94458,7.0765963,-25.03176,-0.06995564,0.5704579,9.828647,-0.005565145,-0.0015116463,-0.006802051,-0.057973820716142654,0.007117405068129301,-0.944071352481842,1001.5882,
2021.05.19 17:52:34,112.0,59.0,10.565987,6.3383217,-24.625216,-0.10876087,0.5758789,9.770039,0.0020039408,-0.010532731,-0.012182488,-0.05887160077691078,0.011131621897220612,-0.923287034034729,1001.58795,
2021.05.19 17:52:34,112.0,59.0,10.509262,5.5661316,-26.131311,-0.13697131,0.59745425,9.58823,-0.009299725,0.0017969422,-0.0049640527,-0.06222442537546158,0.014284387230873108,-0.9538049101829529,1001.5878,
2021.05.19 17:52:34,112.0,59.0,10.464409,6.637451,-26.620623,-0.09476268,0.5454057,9.783173,0.0018593259,-0.011535468,-0.007515775,-0.05568911135196686,0.009685990400612354,-0.8990745544433594,1001.5878,
2021.05.19 17:52:34,112.0,59.0,10.078041,5.3157444,-24.814344,-0.11424601,0.5905666,9.722047,-0.0043065017,-0.012617661,-3.517298E-4,-0.06066635251045227,0.011750689707696438,-0.9623043537139893,1001.5875,
2021.05.19 17:52:34,112.0,59.0,11.2968445,7.293762,-25.448164,-0.07029446,0.5903986,9.798412,0.0031453455,-0.008017834,0.0033674887,-0.06018020957708359,0.0071739437989890575,-0.9001975059509277,1001.5873,
2021.05.19 17:52:34,112.0,59.0,10.186623,6.042555,-25.27181,-0.08003333,0.5717506,9.754255,0.0043819207,-0.007254602,0.009472495,-0.05854654684662819,0.008204781450331211,-0.9252731204032898,1001.58716,
2021.05.19 17:52:34,112.0,59.0,10.321236,6.9204073,-24.89778,-0.088704206,0.5179332,9.6974325,-0.003166211,-0.0100964885,0.009582756,-0.05335638299584389,0.00914692971855402,-0.885934054851532,1001.5871,
2021.05.19 17:52:34,112.0,59.0,10.499611,6.7214527,-25.718214,-0.1395591,0.5867603,9.596976,-0.02338059,0.003933317,0.026268918,-0.061057671904563904,0.0145409619435668,-0.8848493099212646,1001.5871,
2021.05.19 17:52:34,112.0,59.0,10.730614,6.2412004,-25.968279,-0.032019515,0.54786223,9.821816,-0.014369472,-0.0010045454,0.03125671,-0.05572209507226944,0.003260028548538685,-0.9458667039871216,1001.58704,
2021.05.19 17:52:34,112.0,59.0,10.550621,5.8316326,-25.552927,0.03723306,0.5630162,9.768874,-0.0074768327,3.743295E-4,0.007251494,-0.05756957456469536,-0.0038113787304610014,-0.9704598784446716,1001.58704,
2021.05.19 17:52:35,112.0,59.0,10.565544,6.280155,-25.528925,-0.05167462,0.54537004,9.78657,-0.005719878,-0.003770989,0.023023553,-0.05566801875829697,0.005280107259750366,-0.9352594017982483,1001.587,
2021.05.19 17:52:35,112.0,59.0,9.355827,6.9202814,-24.787233,-0.0109419385,0.53051037,9.634371,6.589445E-4,-0.005864857,0.02595735,-0.05500876531004906,0.0011357186594977975,-0.845235288143158,1001.587,
2021.05.19 17:52:35,112.0,59.0,10.6933975,6.788965,-25.511854,0.0077008866,0.5214544,9.932906,-0.016569832,0.01027968,0.019377617,-0.05244950205087662,-7.752902456559241E-4,-0.9224274158477783,1001.587,
2021.05.19 17:52:35,112.0,59.0,9.658531,6.802697,-25.20693,0.0052529424,0.6258496,9.908001,0.042274453,-0.025151648,-0.012250684,-0.0630822628736496,-5.301717319525778E-4,-0.856965959072113,1001.587,
2021.05.19 17:52:35,112.0,59.0,9.458984,5.774823,-26.128893,0.051452015,0.63131285,9.725685,0.08489261,-0.08044964,-0.012842698,-0.0648200660943985,-0.005290273576974869,-0.9105635285377502,1001.5871,
2021.05.19 17:52:35,112.0,59.0,9.433083,5.9906483,-26.450636,0.029594762,0.6590443,9.689056,0.09196932,-0.10790765,0.009719631,-0.06791453063488007,-0.00305444304831326,-0.8859593868255615,1001.5871,
2021.05.19 17:52:35,112.0,59.0,9.931412,6.2549934,-26.736101,-0.031808954,0.79523015,9.624532,0.10333498,-0.08203821,0.034725983,-0.08243762701749802,0.0033049751073122025,-0.8621024489402771,1001.5871,
2021.05.19 17:52:35,112.0,59.0,9.646767,5.8918133,-25.628881,0.25236115,0.79264325,9.9446535,0.12672366,-0.06952447,0.03804586,-0.07951182126998901,-0.025371119379997253,-0.9169079065322876,1001.5871,
