Time,X-cord,Y-cord,Mag_x,Mag_y,Mag_z,Acc_x,Acc_y,Acc_z,Gyro_x,Gyro_y,Gyro_z,Orn_x,Orn_y,Orn_z,Pressure,
2021.05.19 17:58:31,80.0,89.0,8.147659,5.993084,-22.984667,-0.07724785,0.64944714,9.962311,-0.024418814,0.017680995,0.0056194863,-0.06509634852409363,0.007753853686153889,-0.8170780539512634,1001.789,
2021.05.19 17:58:31,80.0,89.0,7.1979446,4.8495283,-22.676413,-0.41458178,0.9008165,9.995736,0.08515253,-0.023050558,-0.009347121,-0.08980049937963486,0.04145210236310959,-0.736993670463562,1001.78674,
2021.05.19 17:58:32,80.0,89.0,8.141174,4.20918,-23.629549,-0.13539508,0.71531147,9.780939,0.085649416,-0.011468213,0.07389219,-0.07299628108739853,0.01384186465293169,-0.9216374754905701,1001.78827,
2021.05.19 17:58:32,80.0,89.0,8.829079,4.1228952,-23.256338,0.16155167,0.47062597,9.613792,0.12061833,-0.005410331,0.039481692,-0.048907265067100525,-0.016802573576569557,-1.0533082485198975,1001.78845,
2021.05.19 17:58:32,80.0,89.0,7.6776276,5.08521,-22.591028,0.18365006,0.468619,9.319042,0.062101252,-0.019278299,0.0080518,-0.0502341166138649,-0.019704418256878853,-0.9183403849601746,1001.78845,
2021.05.19 17:58:32,80.0,89.0,7.4774323,3.902215,-23.281881,0.08612942,0.5155871,9.568004,0.016147478,-0.042971063,-0.013481418,-0.053832344710826874,-0.009001573547720909,-0.9808924794197083,1001.78906,
2021.05.19 17:58:32,80.0,89.0,6.898285,4.704789,-21.794428,-0.0122419195,0.7106548,9.569926,-0.030833123,-0.023712814,0.0024907491,-0.07412306219339371,0.0012792067136615515,-0.8281655311584473,1001.7892,
2021.05.19 17:58:32,80.0,89.0,5.9107056,4.966592,-23.340902,0.01810751,0.8758609,9.651499,-0.009639889,-0.021889657,-0.0070940754,-0.09050063788890839,-0.001876132213510573,-0.7010236978530884,1001.78955,
2021.05.19 17:58:32,80.0,89.0,7.731758,4.095952,-22.367285,-0.02204165,0.899275,9.641514,0.028913634,-0.044337425,-4.7601294E-4,-0.0930018350481987,0.0022861151956021786,-0.8950554728507996,1001.78955,
2021.05.19 17:58:32,80.0,89.0,6.8098984,4.2181168,-22.354502,0.16611487,0.67741686,9.927188,-0.012776055,-0.04243154,0.0613626,-0.06812341511249542,-0.016731763258576393,-0.8981228470802307,1001.78955,
2021.05.19 17:58:32,80.0,89.0,7.358124,3.5721998,-22.50947,0.10861952,0.7330029,9.870903,-0.040575773,-0.009037141,0.017257951,-0.07411842793226242,-0.011003566905856133,-0.9690045118331909,1001.78955,
2021.05.19 17:58:32,80.0,89.0,6.9373703,3.9918985,-22.668787,0.15950193,0.9210208,8.928781,-0.097651534,0.012541152,-0.005438097,-0.10277209430932999,-0.017861898988485336,-0.862880527973175,1001.78955,
2021.05.19 17:58:32,80.0,89.0,6.4740677,4.0474634,-23.00937,0.26195252,0.6283421,9.9802265,-0.09279197,-0.03129373,-0.04012247,-0.06285412609577179,-0.026241127401590347,-0.9123677015304565,1001.78955,
2021.05.19 17:58:32,80.0,89.0,7.5789795,4.9928236,-22.240618,0.051954363,0.76794606,9.457673,-0.083623864,-2.4213985E-4,-0.0995276,-0.08101923763751984,-0.005493300501257181,-0.8494282364845276,1001.78955,
2021.05.19 17:58:33,80.0,89.0,7.7387314,5.8857393,-22.870089,-0.19989575,0.8892703,10.131569,-0.072199166,-0.0058681266,-0.042324524,-0.08753091841936111,0.019727429375052452,-0.7465456128120422,1001.78955,
2021.05.19 17:58:33,80.0,89.0,7.628296,4.929696,-23.921213,-0.11004639,0.9218624,9.914535,-0.024125112,-0.013383237,-8.085612E-4,-0.09270865470170975,0.011099045164883137,-0.8013750314712524,1001.78955,
2021.05.19 17:58:33,80.0,89.0,8.310272,6.802746,-21.806185,0.13034718,0.71120876,9.625054,-0.010148361,-0.0016122591,-0.0045037586,-0.07375062257051468,-0.013541659340262413,-0.7984786629676819,1001.78955,
2021.05.19 17:58:33,80.0,89.0,7.6663055,5.7097635,-23.509245,0.21703674,0.4374715,9.653333,-0.026698252,0.006015532,-0.039612588,-0.04527577385306358,-0.022479303181171417,-0.8809365034103394,1001.78955,
2021.05.19 17:58:33,80.0,89.0,7.2223053,5.959693,-23.33919,-0.041176986,0.42643213,9.643093,-0.04414904,-0.0082408395,-0.052729033,-0.04419231414794922,0.00427007582038641,-0.7950567007064819,1001.7892,
2021.05.19 17:58:33,80.0,89.0,7.4121933,6.758835,-23.18434,-0.05939986,0.618769,9.958623,-0.07576174,0.027989902,-0.0052851266,-0.06205311790108681,0.0059645953588187695,-0.726443350315094,1001.7889,
2021.05.19 17:58:33,80.0,89.0,7.723671,7.1061907,-22.812681,0.1083074,0.4945648,10.010592,-0.040497363,0.026211005,0.019138344,-0.049361128360033035,-0.010818857699632645,-0.770022988319397,1001.78845,
2021.05.19 17:58:33,80.0,89.0,7.706978,4.263852,-22.816755,0.122588016,0.4166579,9.740304,0.0106495675,-0.04308451,0.006390721,-0.04274723678827286,-0.012584981508553028,-0.9913482069969177,1001.7876,
2021.05.19 17:58:33,80.0,89.0,8.5883255,5.624983,-23.112295,-0.07397807,0.46381512,9.715411,0.018770011,-0.022415519,-0.013765947,-0.047702547162771225,0.007614360190927982,-0.8964837193489075,1001.78674,
2021.05.19 17:58:33,80.0,89.0,8.465576,5.309843,-23.043123,-0.107904874,0.5306011,9.770366,0.019039933,-0.01707393,0.03673668,-0.05425059050321579,0.011043648235499859,-0.8969438076019287,1001.78674,
2021.05.19 17:58:33,80.0,89.0,7.614128,5.982416,-23.756643,0.058148082,0.5149513,9.728314,0.021473527,-0.015783224,0.032330792,-0.052882950752973557,-0.0059771290980279446,-0.8206644654273987,1001.78674,
2021.05.19 17:58:33,80.0,89.0,7.9284134,6.1830387,-23.052977,0.1036868,0.5832668,9.696494,0.015889069,-0.014421182,0.020024216,-0.0600765198469162,-0.010692818090319633,-0.8250353336334229,1001.78687,
2021.05.19 17:58:33,80.0,89.0,8.583679,5.4274397,-23.010145,0.13955611,0.55619,9.782293,0.013518366,-0.010296681,0.010847079,-0.05678990110754967,-0.014265228062868118,-0.9248313307762146,1001.78687,
2021.05.19 17:58:34,80.0,89.0,6.940567,5.9193945,-23.250734,0.07361443,0.56300646,9.66265,0.014386354,-0.0074707484,-0.018015102,-0.05819876864552498,-0.007618304342031479,-0.7755791544914246,1001.78796,
2021.05.19 17:58:34,80.0,89.0,7.521736,6.118533,-23.34891,0.08222917,0.58357203,9.681964,0.0021322153,-0.0064149154,-0.015993372,-0.06019913777709007,-0.008492820896208286,-0.7992841601371765,1001.78796,
2021.05.19 17:58:34,80.0,89.0,7.5601044,5.509036,-23.15631,0.1959825,0.5906225,9.730469,-0.010064527,-0.0026510071,-0.038741175,-0.06061161309480667,-0.020138392224907875,-0.8611913919448853,1001.78796,
2021.05.19 17:58:34,80.0,89.0,7.4917603,6.827924,-23.433493,0.18941854,0.5679651,9.888162,0.016524024,-0.021586336,-0.066500746,-0.05736535042524338,-0.01915374957025051,-0.7721893787384033,1001.78796,
2021.05.19 17:58:34,80.0,89.0,7.552017,5.5770626,-22.944044,0.10066841,0.6386766,9.618966,0.002363491,-0.026942857,-0.048591103,-0.06629669666290283,-0.010465234518051147,-0.8332542777061462,1001.788,
2021.05.19 17:58:34,80.0,89.0,6.6672745,6.48835,-24.086908,0.14823669,0.57332677,9.799926,0.010374429,-0.02347748,-0.07189884,-0.05842989683151245,-0.015125153586268425,-0.7286460399627686,1001.7889,
2021.05.19 17:58:34,80.0,89.0,9.109871,6.1406,-24.6783,0.120015234,0.562852,9.738236,-6.774049E-4,-0.0016678376,-0.073081486,-0.05772954225540161,-0.012323499657213688,-0.8949534893035889,1001.7889,
2021.05.19 17:58:34,80.0,89.0,7.9770203,5.9221945,-24.064135,0.033639144,0.6107355,9.705636,8.868283E-4,0.0010658188,-0.09400338,-0.06284262984991074,-0.003465925343334675,-0.8267404437065125,1001.78937,
2021.05.19 17:58:34,80.0,89.0,8.284325,6.226571,-24.508345,0.03335837,0.54678863,9.679311,-0.005789372,-0.019627921,-0.058949996,-0.0564301460981369,-0.0034463442862033844,-0.8336769938468933,1001.78955,
2021.05.19 17:58:34,80.0,89.0,8.372017,7.162364,-24.919504,0.032905158,0.49805102,9.743573,-0.012514976,0.00456833,-0.03451044,-0.05107111111283302,-0.0033771011512726545,-0.7873197197914124,1001.79004,
2021.05.19 17:58:34,80.0,89.0,8.085785,6.8957167,-23.55121,0.048595443,0.55501646,9.715402,-0.017254462,0.009460827,-0.014227227,-0.05706474557518959,-0.005001855548471212,-0.7840651273727417,1001.79004,
2021.05.19 17:58:34,80.0,89.0,7.1812897,6.482915,-22.729094,0.07903945,0.5846922,9.81338,-0.00726356,0.00411899,0.001270364,-0.05950884521007538,-0.008054079487919807,-0.7554000616073608,1001.78955,
2021.05.19 17:58:34,80.0,89.0,8.798546,6.192094,-23.99743,0.12704806,0.52888155,9.904839,0.017433487,-0.033189032,-0.018782014,-0.05334123969078064,-0.012826166115701199,-0.8846349716186523,1001.78937,
2021.05.19 17:58:34,80.0,89.0,7.757057,6.6784716,-23.036715,0.07429985,0.5956904,9.784501,0.023776852,-0.009646753,-0.0088507235,-0.060804225504398346,-0.007593480404466391,-0.7772318720817566,1001.7893,
2021.05.19 17:58:35,80.0,89.0,9.212105,6.368306,-24.824915,-0.007357303,0.5913136,9.723225,0.037393816,0.002361478,0.047882374,-0.06073973700404167,7.566729909740388E-4,-0.863178551197052,1001.7892,
2021.05.19 17:58:35,80.0,89.0,8.242096,5.76904,-23.503325,0.15043376,0.5757579,9.571235,0.03606358,0.011528837,0.05527795,-0.060075219720602036,-0.015715984627604485,-0.8769886493682861,1001.7889,
2021.05.19 17:58:35,80.0,89.0,7.6735077,7.1541777,-22.911081,0.08021612,0.62453747,9.977778,0.0067391424,0.063215286,0.050040174,-0.06250926852226257,-0.008039303123950958,-0.742193341255188,1001.7889,
2021.05.19 17:58:35,80.0,89.0,7.2135315,5.7228413,-23.197973,0.0677981,0.6645096,9.796137,0.049905527,0.0314387,0.051978614,-0.06772846728563309,-0.006920791231095791,-0.7920627593994141,1001.7889,
2021.05.19 17:58:35,80.0,89.0,8.533081,6.256239,-23.899008,0.017781101,0.6365979,9.500595,0.018173285,0.020133868,0.06961704,-0.06690597534179688,-0.001871575484983623,-0.8303723931312561,1001.7886,
2021.05.19 17:58:35,80.0,89.0,8.867897,5.665743,-23.010504,0.048714638,0.6329351,9.6599045,-0.021691907,0.04120517,0.051892545,-0.06542752683162689,-0.005042930133640766,-0.8982266783714294,1001.7886,
2021.05.19 17:58:35,80.0,89.0,8.5308,5.1917562,-23.00237,0.08047166,0.73514193,9.791126,-0.021286545,0.021565266,0.039670564,-0.07493934035301208,-0.008218650706112385,-0.9017876982688904,1001.7884,
2021.05.19 17:58:35,80.0,89.0,7.814064,6.554122,-24.236761,0.1523151,0.7614205,9.938594,0.02258792,0.009703223,0.022577368,-0.07645419239997864,-0.015324417501688004,-0.7737895250320435,1001.7886,
2021.05.19 17:58:35,80.0,89.0,7.7333527,5.887019,-22.98324,-0.035089046,0.67901254,9.587493,0.056562603,0.0019759885,0.024449646,-0.07070422172546387,0.003659860696643591,-0.7953817844390869,1001.7886,
2021.05.19 17:58:35,80.0,89.0,8.808937,6.021221,-22.698133,0.022910459,0.6477756,9.655661,0.030640092,0.0074071055,0.021144046,-0.06698708981275558,-0.0023727447260171175,-0.8668065667152405,1001.789,
2021.05.19 17:58:35,80.0,89.0,7.7485275,5.3874187,-22.78309,-0.07334637,0.7685201,9.751489,0.016249968,0.008650287,0.003678515,-0.07864576578140259,0.007521414663642645,-0.8133180737495422,1001.78937,
2021.05.19 17:58:35,80.0,89.0,7.287674,4.4209366,-21.708792,-0.029349573,0.80132633,9.684247,0.0156190125,-0.005933178,0.03018212,-0.08255689591169357,0.0030306417029350996,-0.8615548610687256,1001.79004,
2021.05.19 17:58:35,80.0,89.0,7.4076843,5.1560984,-23.285646,0.0764343,0.752513,9.718318,0.021813601,-0.0105216745,0.010722058,-0.07727585732936859,-0.007864809595048428,-0.8305882215499878,1001.79004,
2021.05.19 17:58:36,80.0,89.0,8.657204,3.7467165,-23.869783,0.052367013,0.787155,9.66648,9.259073E-4,-0.0069741416,0.0053797965,-0.08125092834234238,-0.005417328793555498,-0.9978950023651123,1001.79004,
2021.05.19 17:58:36,80.0,89.0,8.298706,5.150549,-23.215887,0.034617666,0.802823,9.661801,-0.0062914295,-0.011854151,-0.014611827,-0.08290150761604309,-0.003582925768569112,-0.8712925314903259,1001.79004,
2021.05.19 17:58:36,80.0,89.0,7.491661,4.015214,-22.188951,-0.027682068,0.849832,9.714763,-0.01664956,0.0011580247,-0.008681184,-0.08725593239068985,0.0028494771104305983,-0.8966524600982666,1001.79004,
2021.05.19 17:58:36,80.0,89.0,6.7639313,5.521716,-23.67785,-0.042950496,0.8524415,9.839572,0.008640466,-0.0025251664,-0.0025091171,-0.08641741424798965,0.004365050233900547,-0.7230653762817383,1001.79004,
2021.05.19 17:58:36,80.0,89.0,8.436844,4.361661,-22.151537,-0.05789998,0.791073,9.645465,0.007455169,-0.007234218,0.018977905,-0.08183038979768753,0.0060027469880878925,-0.9323994517326355,1001.79004,
2021.05.19 17:58:36,80.0,89.0,6.930237,4.489313,-22.894438,0.0077443756,0.69374996,9.547856,-0.025902985,4.8111007E-4,0.010884037,-0.07253279536962509,-8.111112401820719E-4,-0.8474169969558716,1001.79004,
2021.05.19 17:58:36,80.0,89.0,6.5588226,5.611411,-22.783201,-0.044048842,0.7979421,9.616008,-0.05287265,0.013519107,0.013511879,-0.08279005438089371,0.004580750595778227,-0.7120121717453003,1001.79004,
2021.05.19 17:58:36,80.0,89.0,7.258026,5.7608624,-22.883768,-0.009696026,0.8763706,9.86722,-0.03169472,0.012516606,0.018799154,-0.08858388662338257,9.826499735936522E-4,-0.7502201199531555,1001.79004,
2021.05.19 17:58:36,80.0,89.0,7.4560623,5.319004,-22.643724,0.09089166,0.7380038,9.74356,-7.788895E-4,-4.591206E-4,0.008564323,-0.07559511065483093,-0.009328112937510014,-0.8302281498908997,1001.79004,
2021.05.19 17:58:36,80.0,89.0,7.2677994,4.2443047,-22.760653,-0.012591223,0.70528346,9.572666,0.0062090578,-0.0018565259,-0.018186059,-0.07354386895895004,0.0013153301551938057,-0.8863884210586548,1001.79004,
2021.05.19 17:58:36,80.0,89.0,7.3585052,3.6932354,-22.858599,-0.07731125,0.77000874,9.663759,-0.01975002,0.0032155458,-0.032165024,-0.07950951904058456,0.007999951019883156,-0.9166606068611145,1001.79004,
2021.05.19 17:58:36,80.0,89.0,8.425217,5.2016335,-21.69222,0.022715649,0.74673,9.832053,-0.0399944,0.00962097,-0.017908305,-0.07580281049013138,-0.00231036264449358,-0.8926311731338501,1001.7895,
2021.05.19 17:58:36,80.0,89.0,8.057785,5.714493,-22.666887,0.021310827,0.70909804,9.789618,-0.019212468,0.0011001024,-0.022086773,-0.07230723649263382,-0.0021768768783658743,-0.8352996706962585,1001.7893,
2021.05.19 17:58:36,80.0,89.0,7.7248306,5.962467,-21.85795,-0.081537835,0.72520083,9.681441,-0.0094893295,-0.0028268343,-0.021767344,-0.07476401329040527,0.008421877399086952,-0.7825678586959839,1001.78906,
2021.05.19 17:58:37,80.0,89.0,8.334457,5.613759,-23.132261,-0.11972348,0.7232969,9.80611,0.004547876,-0.0064492333,8.695787E-4,-0.07362102717161179,0.01220846176147461,-0.833804190158844,1001.78906,
2021.05.19 17:58:37,80.0,89.0,6.819351,4.522853,-22.237295,-0.041870564,0.6870613,9.685142,-0.004925456,0.002255049,0.0079091415,-0.07082042843103409,0.004323148168623447,-0.8350071310997009,1001.78906,
2021.05.19 17:58:37,80.0,89.0,8.053627,5.74253,-23.031122,-0.036394376,0.68885326,9.67942,-8.075882E-4,-0.0061124065,0.004230847,-0.07104650884866714,0.0037599571514874697,-0.8246349096298218,1001.789,
2021.05.19 17:58:37,80.0,89.0,6.301201,5.203207,-23.967043,-0.0525763,0.72506493,9.758979,-0.014234328,0.0021761241,0.006933292,-0.0741598829627037,0.005387427750974894,-0.7249526977539062,1001.7889,
2021.05.19 17:58:37,80.0,89.0,8.266304,3.87992,-23.569578,-0.014376812,0.7328379,9.733985,-0.007052825,0.00351884,0.018997958,-0.0751446783542633,0.0014769698027521372,-0.9701439738273621,1001.7889,
2021.05.19 17:58:37,80.0,89.0,7.6349792,4.9965925,-22.51356,0.084034026,0.6846563,9.753803,-0.0014746166,-0.0055068745,-0.0031248454,-0.07007624208927155,-0.008615300059318542,-0.8736385107040405,1001.78876,
2021.05.19 17:58:37,80.0,89.0,8.678009,6.4408092,-22.280249,0.04599381,0.69408226,9.724753,-0.0063815843,7.999224E-4,-0.015885083,-0.07125112414360046,-0.004729525186121464,-0.8315573930740356,1001.78876,
2021.05.19 17:58:37,80.0,89.0,8.201164,5.831668,-23.197622,-0.035141017,0.66488594,9.787631,0.0056481315,-0.008452356,-0.018158972,-0.06782659888267517,0.0035903342068195343,-0.8321312069892883,1001.78876,
2021.05.19 17:58:37,80.0,89.0,8.682701,5.9634857,-22.551405,-0.09337259,0.69907695,9.6609335,-0.0070506576,0.004040273,-0.0035777392,-0.0722319558262825,0.009664664976298809,-0.8403675556182861,1001.7887,
2021.05.19 17:58:37,80.0,89.0,9.076302,6.1068077,-22.447046,-0.0074105435,0.6625786,9.757168,-0.0041057616,-0.003041723,-0.0019919216,-0.06780274957418442,7.594972266815603E-4,-0.8718596696853638,1001.7887,
2021.05.19 17:58:37,80.0,89.0,8.573891,5.8499346,-23.338827,0.0053228824,0.6816589,9.743409,0.0068188766,-0.0032077169,-0.005980621,-0.0698472112417221,-5.463059060275555E-4,-0.8552167415618896,1001.7887,
2021.05.19 17:58:37,80.0,89.0,8.12323,5.5546856,-23.174059,-0.047049075,0.66567934,9.671264,0.010453075,-0.0055251117,-0.010241969,-0.06872144341468811,0.004864793736487627,-0.843093752861023,1001.7887,
2021.05.19 17:58:37,80.0,89.0,7.835617,5.6384344,-22.600489,0.009405007,0.6437747,9.68221,-0.0013251607,-0.0037734169,7.432406E-4,-0.06639271229505539,-9.71369503531605E-4,-0.8342599868774414,1001.7886,
2021.05.19 17:58:38,80.0,89.0,9.304466,5.8800917,-22.918818,-0.0069865123,0.67395115,9.742756,-0.008845037,-0.003446059,-0.006293727,-0.06906455755233765,7.170980679802597E-4,-0.8948924541473389,1001.7885,
2021.05.19 17:58:38,80.0,89.0,8.1717,5.641245,-22.842539,-0.058165878,0.7323428,9.660909,-0.014737877,0.0039806413,-0.002727131,-0.07565867900848389,0.006020673085004091,-0.8294677138328552,1001.7885,
2021.05.19 17:58:38,80.0,89.0,6.245201,6.5681677,-22.7973,-0.0072844834,0.6883363,9.796136,-0.0044800825,-0.0022449477,-0.0044988203,-0.07015078514814377,7.436076994054019E-4,-0.6525124311447144,1001.7885,
2021.05.19 17:58:38,80.0,89.0,8.050201,6.0237274,-23.126245,-0.014279769,0.70559835,9.736598,-0.008914219,0.0071849274,-6.1806384E-4,-0.07234214246273041,0.0014666066272184253,-0.8067949414253235,1001.7885,
2021.05.19 17:58:38,80.0,89.0,7.568428,6.904418,-22.891218,-0.09251251,0.6571181,9.635256,0.007893692,-0.010539436,-0.0051763305,-0.0680907741189003,0.009601163677871227,-0.7157305479049683,1001.7887,
2021.05.19 17:58:38,80.0,89.0,7.355057,6.0193624,-24.374277,-0.020316675,0.6670596,9.701225,-0.010842528,-0.0073451693,0.0127490945,-0.06865213811397552,0.002094235038384795,-0.7604222893714905,1001.7887,
2021.05.19 17:58:38,80.0,89.0,8.609825,7.1192837,-23.757673,0.0041162274,0.70503646,9.771972,-0.017376874,1.11147994E-4,0.011067698,-0.07202403992414474,-4.2122791637666523E-4,-0.7744762897491455,1001.7887,
2021.05.19 17:58:38,80.0,89.0,8.257973,4.42297,-22.78979,0.12501653,0.64824086,9.814531,0.0043447744,5.345993E-4,-0.018982613,-0.06594796478748322,-0.012737211771309376,-0.9659952521324158,1001.7887,
2021.05.19 17:58:38,80.0,89.0,7.811104,6.428693,-23.024786,-0.033260588,0.6836684,9.73513,0.011496923,-0.011179843,-0.00616724,-0.07011142373085022,0.0034165396355092525,-0.7666603326797485,1001.7887,
2021.05.19 17:58:38,80.0,89.0,9.04319,6.9295626,-22.249498,-0.0058978894,0.66251224,9.684274,0.0023210628,-0.006580941,0.00531352,-0.06830471009016037,6.090171518735588E-4,-0.8195902705192566,1001.7887,
2021.05.19 17:58:38,80.0,89.0,7.806488,7.150243,-23.616697,0.03572217,0.6206073,9.668636,-0.0073833168,-4.117228E-4,-0.0078041498,-0.06409930437803268,-0.0036946272011846304,-0.7399168014526367,1001.7887,
2021.05.19 17:58:38,80.0,89.0,8.20797,5.184948,-23.051561,0.06612122,0.60805446,9.793479,-0.008707037,-0.00259287,-0.035765402,-0.06200667843222618,-0.006751453038305044,-0.9027089476585388,1001.7887,
2021.05.19 17:58:38,80.0,89.0,8.551277,5.663265,-23.117468,0.017875075,0.6850956,9.779292,0.040865377,0.0016851746,-0.05351048,-0.06994136422872543,-0.0018278476782143116,-0.8690526485443115,1001.7887,
2021.05.19 17:58:38,80.0,89.0,7.3711853,5.6573677,-22.532778,-0.031458277,0.65998936,9.804576,0.015987119,-0.022552062,-0.01152662,-0.06721268594264984,0.0032085191924124956,-0.7950344085693359,1001.7887,
2021.05.19 17:58:39,80.0,89.0,8.17054,4.5006266,-22.159891,-0.10616478,0.73709065,9.602365,0.01307524,-0.033335622,0.022875356,-0.07660647481679916,0.011055657640099525,-0.9076936841011047,1001.7887,
2021.05.19 17:58:39,80.0,89.0,7.543297,6.427807,-22.704184,0.015254308,0.77452105,9.683168,-0.0048693437,-0.036923848,0.05535453,-0.0798163041472435,-0.0015753413317725062,-0.7450559139251709,1001.7887,
2021.05.19 17:58:39,80.0,89.0,7.3460464,4.4554234,-23.263052,0.23336345,0.752165,9.544852,-0.056969386,-0.021994077,0.029276453,-0.07861730456352234,-0.024444272741675377,-0.901935338973999,1001.7889,
