Time,X-cord,Y-cord,Mag_x,Mag_y,Mag_z,Acc_x,Acc_y,Acc_z,Gyro_x,Gyro_y,Gyro_z,Orn_x,Orn_y,Orn_z,Pressure,
2021.05.19 18:06:18,40.0,49.0,-10.309555,43.452374,-29.039782,0.16590434,0.6578274,10.685126,-0.14713407,0.053680513,0.080323555,-0.06147977337241173,-0.015525413677096367,0.2148890197277069,1001.69727,
2021.05.19 18:06:18,40.0,49.0,-10.323647,44.480366,-29.683573,0.20475918,0.89682215,9.136834,0.01700719,0.022194564,0.03931659,-0.09781677275896072,-0.022406548261642456,0.20183977484703064,1001.7,
2021.05.19 18:06:18,40.0,49.0,-11.430748,43.35241,-29.633913,0.09779564,0.6852676,9.883658,0.031803735,-0.036050174,0.024481742,-0.06921924650669098,-0.0098943579941988,0.24103829264640808,1001.7012,
2021.05.19 18:06:18,40.0,49.0,-9.900406,43.597363,-30.231485,0.1495858,0.6250322,9.694725,0.02941093,-0.027533818,-0.006345707,-0.06437461823225021,-0.015428382903337479,0.20458757877349854,1001.7012,
2021.05.19 18:06:18,40.0,49.0,-10.261276,44.015244,-31.13006,-0.14574371,0.83492094,9.888608,9.254479E-4,-0.01348765,-0.021794517,-0.08422372490167618,0.014737480320036411,0.22672180831432343,1001.7012,
2021.05.19 18:06:18,40.0,49.0,-11.236137,43.329895,-30.339499,-0.10280267,1.0268451,9.615517,-0.021850355,-0.03355575,-0.015530689,-0.10638119280338287,0.010690923780202866,0.2447037249803543,1001.7012,
2021.05.19 18:06:18,40.0,49.0,-11.615051,42.472595,-28.986055,0.06636772,1.1014589,9.44378,-0.015732275,-0.041710593,0.012864493,-0.11610583961009979,-0.007027549669146538,0.24544531106948853,1001.7012,
2021.05.19 18:06:18,40.0,49.0,-10.480049,42.770935,-29.649725,0.16514176,1.0163223,9.696128,-0.025062015,-0.03616889,0.03409346,-0.10442095249891281,-0.017030077055096626,0.21511587500572205,1001.7012,
2021.05.19 18:06:18,40.0,49.0,-10.270805,42.51301,-29.328966,0.25836295,0.7389655,9.773073,-0.013080528,-0.043275874,0.034605686,-0.07544253021478653,-0.026430048048496246,0.2095976620912552,1001.7008,
2021.05.19 18:06:18,40.0,49.0,-11.958939,43.350964,-29.351492,0.25866973,0.6410944,9.442955,-0.042299233,-0.0033844414,-0.07315144,-0.06776192784309387,-0.027386030182242393,0.24155834317207336,1001.70056,
2021.05.19 18:06:18,40.0,49.0,-12.126984,43.391563,-31.480215,-0.11104151,0.9376046,9.670457,-0.077250786,0.03611899,-0.07691714,-0.09664712846279144,0.01148204505443573,0.263915091753006,1001.70056,
2021.05.19 18:06:19,40.0,49.0,-11.023354,44.069626,-29.020224,-0.45693377,1.2072188,10.165708,-0.010188686,0.009474432,0.034986198,-0.11808233708143234,0.04491830989718437,0.2556436359882355,1001.70056,
2021.05.19 18:06:19,40.0,49.0,-11.12532,43.62187,-30.23464,0.5121409,0.5999165,9.728549,0.054157708,0.021445662,0.10742609,-0.06150263547897339,-0.052594542503356934,0.20656967163085938,1001.70056,
2021.05.19 18:06:19,40.0,49.0,-9.891617,43.568424,-29.762182,0.18775743,0.58037275,9.467437,0.05590302,0.0011148993,0.0153264385,-0.06121336668729782,-0.019829319790005684,0.20239165425300598,1001.7008,
2021.05.19 18:06:19,40.0,49.0,-11.032661,43.525124,-29.345037,-0.29914555,0.9168892,9.494565,1.9702385E-4,0.004521899,-0.05802857,-0.09622392058372498,0.03149661049246788,0.2536190450191498,1001.70123,
2021.05.19 18:06:19,40.0,49.0,-10.009361,44.854713,-29.773485,-0.1757973,0.98767304,9.832267,-0.042532068,2.55938E-4,0.06419931,-0.10010048002004623,0.017877725884318352,0.21796968579292297,1001.7023,
2021.05.19 18:06:19,40.0,49.0,-10.327606,43.032055,-29.001627,0.24352968,0.84746456,9.88067,-7.984168E-4,-0.009120937,0.03564026,-0.0855347067117691,-0.02464209496974945,0.20871147513389587,1001.7023,
2021.05.19 18:06:19,40.0,49.0,-12.07901,43.143433,-28.234331,0.20721418,0.8021433,9.717918,0.008150679,-0.013442923,0.0028678211,-0.0823373794555664,-0.021319665014743805,0.24786929786205292,1001.7023,
2021.05.19 18:06:19,40.0,49.0,-12.007507,43.608616,-28.456213,0.053346414,0.76476306,9.775829,0.009162561,0.00622503,-0.026614131,-0.07806983590126038,-0.005456916522234678,0.25375300645828247,1001.7023,
2021.05.19 18:06:19,40.0,49.0,-10.285011,43.811287,-29.732492,-0.12396115,0.83765346,9.685646,0.008333667,0.009165141,-0.0063880733,-0.08626232296228409,0.012797740288078785,0.22687053680419922,1001.7023,
2021.05.19 18:06:19,40.0,49.0,-10.958061,42.8995,-29.174189,0.10688313,0.8187544,9.880454,-0.010580681,0.012549439,0.026952136,-0.0826723501086235,-0.010817212052643299,0.2313673049211502,1001.7023,
2021.05.19 18:06:19,40.0,49.0,-9.460861,42.79905,-28.369062,0.05338997,0.8551266,9.736919,0.019371668,0.0065315375,0.005277619,-0.08759705722332001,-0.005483195651322603,0.20337437093257904,1001.70154,
2021.05.19 18:06:19,40.0,49.0,-10.926842,43.116146,-28.61986,-0.060790103,0.908539,9.678708,0.02274965,0.016222894,-0.0106253065,-0.09359376132488251,0.006280724890530109,0.23893089592456818,1001.70123,
2021.05.19 18:06:19,40.0,49.0,-11.70623,42.931847,-29.541136,-0.048863295,0.87555075,9.694339,0.012702334,0.012848251,0.021626906,-0.09007016569375992,0.0050403522327542305,0.25536754727363586,1001.70123,
2021.05.19 18:06:20,40.0,49.0,-11.070824,42.738247,-29.144793,-0.0041436343,0.8464294,9.671992,0.005716539,0.012854061,0.013251482,-0.08729104697704315,4.2841577669605613E-4,0.24089235067367554,1001.7012,
2021.05.19 18:06:20,40.0,49.0,-10.047028,43.65334,-29.4746,0.005612552,0.89889497,9.748805,-0.005215954,0.009876954,0.0059240866,-0.09194566309452057,-5.757168983109295E-4,0.21389225125312805,1001.701,
2021.05.19 18:06:20,40.0,49.0,-11.504967,42.862206,-29.054281,0.016594587,0.8737936,9.637593,-0.007435533,-0.006105009,0.010638995,-0.0904177874326706,-0.0017218583961948752,0.2476113736629486,1001.70056,
2021.05.19 18:06:20,40.0,49.0,-10.893326,44.049957,-29.321428,0.034676526,0.87816674,9.695189,-0.012364805,-0.014658325,0.005251217,-0.09033050388097763,-0.0035766579676419497,0.22788549959659576,1001.7002,
2021.05.19 18:06:20,40.0,49.0,-11.747498,43.32808,-29.965643,0.06582814,0.89774376,9.786287,-0.015968407,-0.021865577,-0.012743497,-0.09147677570581436,-0.00672646751627326,0.24647149443626404,1001.69995,
2021.05.19 18:06:20,40.0,49.0,-9.997879,43.659267,-29.953451,0.07178468,0.85393006,9.780761,0.0061421227,-0.02717873,-0.031876095,-0.08708396553993225,-0.007339244708418846,0.2089785933494568,1001.69995,
2021.05.19 18:06:20,40.0,49.0,-9.417023,42.736412,-30.493898,-0.044921804,0.8293205,9.630614,-0.011082684,-0.018507164,-0.025882285,-0.08590009808540344,0.004664445761591196,0.208453968167305,1001.69995,
2021.05.19 18:06:20,40.0,49.0,-9.0241165,43.145836,-30.267443,-0.13569577,0.89935774,9.775304,-0.007286028,-0.012676965,0.0025046705,-0.09173598885536194,0.013880597427487373,0.20366010069847107,1001.7002,
2021.05.19 18:06:20,40.0,49.0,-11.183662,44.95947,-29.63523,-0.0050790035,0.88414985,9.770087,0.0035234252,-0.0125585925,0.014048204,-0.09024975448846817,5.198523867875338E-4,0.23179125785827637,1001.70056,
2021.05.19 18:06:20,40.0,49.0,-11.382767,43.425713,-29.766603,0.16557573,0.85492253,9.758849,0.009265573,-0.007406998,-0.008361997,-0.08736925572156906,-0.016965098679065704,0.2327897697687149,1001.7007,
2021.05.19 18:06:20,40.0,49.0,-11.671455,43.660984,-29.779726,0.10464114,0.85448796,9.709626,0.012547525,-0.008238007,-0.022640677,-0.08777300268411636,-0.010776634328067303,0.24132788181304932,1001.7008,
2021.05.19 18:06:20,40.0,49.0,-10.965317,43.506737,-29.92702,-0.006749472,0.8604924,9.763087,0.014180045,-0.013791382,-0.017230554,-0.08791014552116394,6.913254619576037E-4,0.23460398614406586,1001.701,
2021.05.19 18:06:20,40.0,49.0,-10.36808,43.87345,-28.398123,6.5229525E-4,0.87127155,9.648799,0.004641844,-0.0037076012,-0.011221338,-0.0900542140007019,-6.760377436876297E-5,0.22049087285995483,1001.7012,
2021.05.19 18:06:20,40.0,49.0,-11.90184,42.624367,-28.985064,0.018470919,0.9255782,9.607948,-0.012401392,0.013227246,-0.0045641977,-0.0960381031036377,-0.0019224599236622453,0.2562653124332428,1001.7012,
2021.05.19 18:06:21,40.0,49.0,-11.590614,43.002995,-29.960386,0.10415212,0.9033101,9.899272,0.012834221,-4.3539423E-4,-0.013985906,-0.09099313616752625,-0.01052080187946558,0.24260477721691132,1001.7012,
2021.05.19 18:06:21,40.0,49.0,-11.471512,44.736,-28.97766,0.06793035,0.9355519,9.675412,0.008888364,0.003006097,-0.026950901,-0.0963917076587677,-0.007020810153335333,0.23374225199222565,1001.7012,
2021.05.19 18:06:21,40.0,49.0,-11.207207,41.98414,-29.569635,0.044932093,0.92301947,9.639298,-0.009098306,0.0019835853,-0.02738673,-0.09546378254890442,-0.00466131092980504,0.24318765103816986,1001.70123,
2021.05.19 18:06:21,40.0,49.0,-11.312492,43.509186,-29.106459,0.045436036,0.87458223,9.645087,-0.010007598,0.004751026,-0.02275587,-0.09042815119028091,-0.004710760898888111,0.2384997010231018,1001.7014,
2021.05.19 18:06:21,40.0,49.0,-11.963196,44.108078,-29.619577,0.0061133145,0.8540006,9.603757,-0.021536686,0.002414515,-0.017394869,-0.08869030326604843,-6.365543813444674E-4,0.2511267364025116,1001.7014,
2021.05.19 18:06:21,40.0,49.0,-11.913086,43.478527,-28.992594,-0.052928776,0.9161689,9.647674,-0.03409189,0.0016606239,-0.023391275,-0.09467734396457672,0.0054861148819327354,0.2565482258796692,1001.7014,
2021.05.19 18:06:21,40.0,49.0,-11.101364,43.388237,-29.069738,0.05429786,0.86669683,9.803508,-0.052020248,-0.0030619316,0.0010057301,-0.08817621320486069,-0.005538559053093195,0.23454920947551727,1001.70154,
2021.05.19 18:06:21,40.0,49.0,-11.392502,44.385056,-29.2343,0.109958135,0.8365167,9.804279,-0.022298649,-0.0014682399,-0.01832656,-0.0851101204752922,-0.011214850470423698,0.23252888023853302,1001.70154,
2021.05.19 18:06:21,40.0,49.0,-11.576042,44.27586,-28.341242,0.08012449,0.86905557,9.747882,-0.012419308,-0.002303744,-0.022926396,-0.08891520649194717,-0.00821949727833271,0.2386346459388733,1001.70154,
2021.05.19 18:06:21,40.0,49.0,-11.55294,44.726276,-28.276468,0.038843025,0.8167736,9.824441,0.008073003,-0.007838773,-0.023872862,-0.08294551074504852,-0.003953692968934774,0.23917923867702484,1001.70154,
2021.05.19 18:06:21,40.0,49.0,-11.945908,43.708466,-30.132605,-0.038810264,0.82328415,9.686278,0.01739046,-0.0047564604,-0.027931191,-0.0847904235124588,0.004006704781204462,0.2560077905654907,1001.7014,
2021.05.19 18:06:21,40.0,49.0,-11.026009,43.504967,-28.026766,0.023355553,0.7807185,9.787413,0.00890492,-0.007497892,-0.010932875,-0.07959884405136108,-0.0023862801026552916,0.23586875200271606,1001.70123,
2021.05.19 18:06:21,40.0,49.0,-10.702179,43.49955,-31.156977,0.08353647,0.77364826,9.678915,0.018906407,-0.009838415,-6.483379E-4,-0.07975876331329346,-0.00863055419176817,0.22372987866401672,1001.701,
2021.05.19 18:06:22,40.0,49.0,-10.816841,42.946404,-29.424395,0.020334085,0.83432275,9.68861,0.0014221186,-0.0036323173,-0.008140422,-0.0859016627073288,-0.0020987587049603462,0.23303087055683136,1001.701,
2021.05.19 18:06:22,40.0,49.0,-10.146034,44.048374,-28.869246,0.064235635,0.82533497,9.777066,0.0058484566,0.0016932245,-0.008227962,-0.08421392738819122,-0.0065699368715286255,0.2116941511631012,1001.701,
2021.05.19 18:06:22,40.0,49.0,-10.987953,42.798645,-29.960238,-0.009830411,0.779049,9.787215,0.02008833,-0.0109225605,-0.005181648,-0.07943111658096313,0.0010044131195172668,0.23991572856903076,1001.701,
2021.05.19 18:06:22,40.0,49.0,-11.319138,42.78532,-29.173346,-0.036453996,0.80397797,9.507398,-0.020149738,0.005838336,0.015011236,-0.08436208218336105,0.0038342580664902925,0.24829471111297607,1001.701,
2021.05.19 18:06:22,40.0,49.0,-10.5325165,43.229664,-29.816084,0.09271639,0.78604525,9.683905,-0.02957542,0.007836798,-0.003879451,-0.08098901808261871,-0.009573984891176224,0.22146598994731903,1001.701,
2021.05.19 18:06:22,40.0,49.0,-11.99485,42.63913,-29.540354,0.012011704,0.84484243,9.713059,-0.011060578,-0.002964631,0.013064487,-0.08676162362098694,-0.0012366543523967266,0.25951799750328064,1001.701,
2021.05.19 18:06:22,40.0,49.0,-11.213745,43.38025,-28.617468,0.063364394,0.7827751,9.672889,-0.013434077,-1.5147292E-4,0.010397971,-0.08074695616960526,-0.006550626829266548,0.23748096823692322,1001.7009,
2021.05.19 18:06:22,40.0,49.0,-10.920326,42.659348,-30.553469,0.12361135,0.7949531,9.768769,-0.010119246,-0.0018068494,-0.0070080617,-0.08119160681962967,-0.012653052806854248,0.22988612949848175,1001.70074,
2021.05.19 18:06:22,40.0,49.0,-10.937828,44.02958,-29.44082,8.4587425E-4,0.8443261,9.678195,-0.008405966,-0.012309056,0.003736447,-0.08701971918344498,-8.740000339457765E-5,0.23134556412696838,1001.70074,
2021.05.19 18:06:22,40.0,49.0,-11.747017,43.23426,-28.962389,0.07761552,0.79215795,9.738389,-0.010498552,-6.1385817E-4,-0.00927531,-0.08116257190704346,-0.007969888858497143,0.24816396832466125,1001.70074,
2021.05.19 18:06:22,40.0,49.0,-11.631432,42.736008,-27.780031,0.046022,0.8153713,9.776437,0.0026264973,-0.008115568,-0.007731583,-0.08320818841457367,-0.004707406274974346,0.25073766708374023,1001.70074,
2021.05.19 18:06:22,40.0,49.0,-10.550262,43.815308,-28.732939,0.07769745,0.77616614,9.711008,-6.422992E-4,-0.0064987866,-0.012288241,-0.07975433021783829,-0.008000795729458332,0.22082532942295074,1001.7009,
2021.05.19 18:06:22,40.0,49.0,-12.517166,43.832554,-29.191526,-0.04542123,0.8096843,9.715225,-0.016615078,0.00526786,-0.026774926,-0.08314872533082962,0.004675228614360094,0.2678785026073456,1001.7014,
2021.05.19 18:06:22,40.0,49.0,-11.395523,44.346176,-29.360636,0.067205936,0.82090425,9.839988,-0.02289751,-0.0021704624,-0.012100011,-0.08323066681623459,-0.006829774007201195,0.2355681210756302,1001.7014,
2021.05.19 18:06:23,40.0,49.0,-11.257851,44.679764,-29.000742,0.13258018,0.77136344,9.785073,0.010658919,-0.005608493,-0.022442741,-0.078660748898983,-0.01354839839041233,0.22794343531131744,1001.7016,
2021.05.19 18:06:23,40.0,49.0,-11.768829,43.061348,-30.376913,0.042238686,0.74423194,9.704419,0.0033627516,-0.010834899,-0.024424272,-0.07653946429491043,-0.0043524932116270065,0.25164270401000977,1001.7016,
2021.05.19 18:06:23,40.0,49.0,-11.1907425,44.029152,-29.15045,-0.049198028,0.78179747,9.667687,-0.008471397,-0.0076873954,-0.004110231,-0.08069043606519699,0.005088869947940111,0.24051974713802338,1001.7016,
2021.05.19 18:06:23,40.0,49.0,-11.380447,43.198257,-29.39892,0.10614512,0.68180627,9.917327,0.013492286,-0.011008885,-0.023775764,-0.06863708049058914,-0.010702588595449924,0.240486741065979,1001.70166,
2021.05.19 18:06:23,40.0,49.0,-11.692558,43.690834,-29.47735,0.04137871,0.88322574,9.633563,0.01603228,-0.010414276,-0.018895261,-0.09142570942640305,-0.004295239225029945,0.24528011679649353,1001.70166,
2021.05.19 18:06:23,40.0,49.0,-11.743324,43.834503,-28.928007,0.115989245,0.8317854,9.723943,0.004739721,-0.016701017,-0.0038278992,-0.0853261649608612,-0.011927646584808826,0.24210989475250244,1001.70166,
2021.05.19 18:06:23,40.0,49.0,-11.016167,44.83575,-29.971594,0.1025502,0.69698614,9.796127,0.023520352,-0.017674644,-0.03563894,-0.07102558016777039,-0.010468061082065105,0.22453846037387848,1001.7016,
2021.05.19 18:06:23,40.0,49.0,-13.073196,42.981934,-29.603395,-0.040885206,0.77342516,9.523529,-0.012866475,0.0064514694,-0.021003412,-0.08103345334529877,0.004293046426028013,0.2839435040950775,1001.7014,
2021.05.19 18:06:23,40.0,49.0,-13.4347,43.12683,-29.712278,-0.07609061,0.8499382,9.698517,-0.018142853,-0.0035842862,0.019549074,-0.08740989863872528,0.007845431566238403,0.29152461886405945,1001.7014,
2021.05.19 18:06:23,40.0,49.0,-12.243973,44.06701,-29.647276,0.07322473,0.78913015,9.852571,0.0029502325,-0.0013172122,0.021617308,-0.07992102950811386,-0.007431906647980213,0.2540682256221771,1001.7014,
2021.05.19 18:06:23,40.0,49.0,-11.364883,44.41726,-29.415594,0.1427922,0.77925605,9.674048,-0.0039666444,0.0015235855,0.0050914963,-0.08036892116069794,-0.014759263023734093,0.23014302551746368,1001.70123,
2021.05.19 18:06:23,40.0,49.0,-13.044823,43.36766,-29.612986,0.039394464,0.8099324,9.753765,-0.017491426,0.0023383664,-0.010118817,-0.08284718543291092,-0.004038876388221979,0.27577680349349976,1001.7012,
2021.05.19 18:06:23,40.0,49.0,-12.039337,43.792725,-29.611216,0.021216584,0.8048556,9.687638,-0.014047484,-0.0021731537,-0.0054523484,-0.08289012312889099,-0.002190064173191786,0.2541535198688507,1001.7009,
2021.05.19 18:06:24,40.0,49.0,-11.721138,44.631966,-30.475245,0.10605881,0.77661556,9.680865,-0.024948217,0.0029963402,0.005761989,-0.08004549890756607,-0.01095507200807333,0.23800018429756165,1001.70074,
2021.05.19 18:06:24,40.0,49.0,-11.072792,43.755737,-28.379313,0.18249314,0.72648877,9.785987,-0.018877823,0.004141694,-0.021988919,-0.07408889383077621,-0.018646253272891045,0.22646141052246094,1001.70074,
2021.05.19 18:06:24,40.0,49.0,-11.912178,44.225456,-29.607271,0.0421072,0.7842826,9.6964655,-0.01819501,0.0057444735,-0.02674984,-0.08070690184831619,-0.004342503380030394,0.2483246624469757,1001.70074,
2021.05.19 18:06:24,40.0,49.0,-11.718819,43.981743,-29.05902,-8.359061E-4,0.80460626,9.740209,-0.012978302,0.0011531797,-0.007277938,-0.08241954445838928,8.582014561397955E-5,0.2483382672071457,1001.70074,
2021.05.19 18:06:24,40.0,49.0,-11.562668,44.247803,-29.469881,0.07511494,0.7386072,9.817388,-0.0047379816,-7.257393E-4,-0.0052708993,-0.07509094476699829,-0.007651065941900015,0.23992983996868134,1001.7007,
2021.05.19 18:06:24,40.0,49.0,-11.099358,44.499638,-29.72468,-0.025454596,0.73834515,9.683395,0.0040133502,-1.070009E-4,-0.026826613,-0.07610106468200684,0.0026286786887794733,0.23527348041534424,1001.7007,
2021.05.19 18:06:24,40.0,49.0,-11.202347,44.270905,-28.474794,0.05080958,0.7291581,9.703769,-0.0021778725,0.001258692,-0.010540921,-0.07499977201223373,-0.005236018914729357,0.23441778123378754,1001.7007,
2021.05.19 18:06:24,40.0,49.0,-10.817665,45.746983,-29.71855,0.04373793,0.72990113,9.79756,-0.017065585,0.015632352,-0.010538941,-0.07436014711856842,-0.004464135970920324,0.21977566182613373,1001.70074,
2021.05.19 18:06:24,40.0,49.0,-11.949562,44.18091,-29.377016,0.047491565,0.7319546,9.681914,-0.01693458,0.00579133,-0.011942059,-0.07545575499534607,-0.004905144218355417,0.2497887760400772,1001.70074,
2021.05.19 18:06:24,40.0,49.0,-12.219254,43.975494,-29.643442,0.020608233,0.67427367,9.795632,-0.0027459047,-0.0013050284,-0.009705479,-0.06872555613517761,-0.002103815320879221,0.2588615417480469,1001.70074,
2021.05.19 18:06:24,40.0,49.0,-11.854073,43.391605,-28.970419,-0.057523236,0.70282346,9.646465,-0.007487841,0.003926928,0.006367642,-0.07272833585739136,0.005963070783764124,0.25908181071281433,1001.70074,
2021.05.19 18:06:24,40.0,49.0,-11.683342,43.910164,-29.241877,0.00990029,0.6952571,9.711725,-0.016769132,0.0059938054,0.018555857,-0.07146749645471573,-0.0010194157948717475,0.24870356917381287,1001.7007,
2021.05.19 18:06:24,40.0,49.0,-11.619629,43.364758,-29.016973,0.102650374,0.7540341,9.738473,-0.009142523,0.0058857664,0.009836942,-0.07726992666721344,-0.010540314950048923,0.24377794563770294,1001.7005,
2021.05.19 18:06:25,40.0,49.0,-10.693459,44.668842,-29.376055,0.09204098,0.7362389,9.921672,0.019131191,-0.0019395871,-0.0031121888,-0.07406619191169739,-0.009276495315134525,0.2194157838821411,1001.7005,
2021.05.19 18:06:25,40.0,49.0,-11.905975,44.840363,-29.340189,0.053063672,0.6532728,9.615278,0.017152313,-0.005035416,0.014341095,-0.06783584505319595,-0.0055186268873512745,0.2462121993303299,1001.7005,
2021.05.19 18:06:25,40.0,49.0,-11.538116,44.450653,-30.087576,0.0734317,0.67105913,9.699721,-0.0038093713,-0.0065589775,0.012087068,-0.06907130777835846,-0.007570351008325815,0.2389533668756485,1001.7005,
2021.05.19 18:06:25,40.0,49.0,-12.693085,45.061302,-28.814367,0.18046904,0.667002,9.852715,-0.019822782,-0.022726588,0.0023087687,-0.06758283823728561,-0.018314633518457413,0.2536521255970001,1001.7005,
2021.05.19 18:06:25,40.0,49.0,-12.088081,43.973152,-29.028383,0.07876063,0.8025834,9.621185,0.013010412,-0.033443984,-0.025702951,-0.0832228884100914,-0.008185984566807747,0.25086256861686707,1001.7005,
2021.05.19 18:06:25,40.0,49.0,-12.777603,44.244366,-28.860086,-0.004557068,0.8327215,9.62825,-0.019391526,-0.028279029,0.035359837,-0.08627262711524963,4.733017703983933E-4,0.2680787146091461,1001.70074,
2021.05.19 18:06:25,40.0,49.0,-12.50602,45.228394,-29.91672,0.034301966,0.71265364,9.863998,0.002456991,-0.10189408,0.08416931,-0.07212220132350922,-0.003477477002888918,0.25658178329467773,1001.70074,
2021.05.19 18:06:25,40.0,49.0,-13.110512,44.98336,-28.907404,0.3729141,0.761689,10.263966,-0.04165262,-0.021687765,0.121182494,-0.07402556389570236,-0.03631638363003731,0.2508595287799835,1001.7009,
