Time,X-cord,Y-cord,Mag_x,Mag_y,Mag_z,Acc_x,Acc_y,Acc_z,Gyro_x,Gyro_y,Gyro_z,Orn_x,Orn_y,Orn_z,Pressure,
2021.05.19 18:02:00,63.0,72.0,-13.34507,44.112625,-28.738157,0.016842404,0.98064214,9.856223,0.05093724,-0.030950457,0.01799322,-0.09916820377111435,-0.0017088075401261449,0.27712610363960266,1001.7193,
2021.05.19 18:02:00,63.0,72.0,-12.303566,44.44539,-29.554754,0.07727927,0.9776624,9.273917,0.0076076686,-0.012173105,0.012176229,-0.10502909123897552,-0.008332776837050915,0.2495388686656952,1001.7221,
2021.05.19 18:02:00,63.0,72.0,-12.771843,45.208473,-30.097422,0.011993018,1.0260946,9.645776,-0.107570626,-0.018142495,0.023063049,-0.10597896575927734,-0.0012433434603735805,0.25860410928726196,1001.7221,
2021.05.19 18:02:00,63.0,72.0,-13.057571,44.90423,-29.304625,-0.11952885,0.94453925,10.374522,-0.11017032,0.012282839,-0.006800129,-0.09078782051801682,0.011520873755216599,0.27560800313949585,1001.7212,
2021.05.19 18:02:00,63.0,72.0,-12.431572,44.684967,-28.047487,-0.13492912,1.0078801,9.248135,-0.0154846525,-0.0063203047,-0.033096977,-0.10854211449623108,0.014588839374482632,0.26431113481521606,1001.7211,
2021.05.19 18:02:00,63.0,72.0,-14.663239,43.768944,-28.878988,0.12892558,0.676014,9.234857,0.0022971071,0.004479832,0.009786105,-0.07306500524282455,-0.013959849253296852,0.30196842551231384,1001.7205,
2021.05.19 18:02:00,63.0,72.0,-12.807732,45.249775,-28.756697,0.015625065,0.6519498,9.643214,-0.09278724,0.039637562,-0.0070753936,-0.06750429421663284,-0.0016203157138079405,0.264649897813797,1001.7209,
2021.05.19 18:02:00,63.0,72.0,-12.853806,44.993225,-26.870424,-0.1929032,0.8874461,9.624946,-0.11344065,0.010464571,-0.05252443,-0.09192439913749695,0.02003932185471058,0.27616316080093384,1001.7211,
2021.05.19 18:02:00,63.0,72.0,-12.725037,45.788147,-27.405558,-0.13966088,0.91860324,9.809747,-0.106338665,0.04524045,-0.042358153,-0.09336020052433014,0.01423598825931549,0.2660291790962219,1001.7209,
2021.05.19 18:02:00,63.0,72.0,-11.788818,45.705536,-28.816122,-0.2024312,0.9210263,9.938632,-0.061285187,0.033463765,-0.019640362,-0.09238835424184799,0.02036529965698719,0.25154736638069153,1001.72076,
2021.05.19 18:02:00,63.0,72.0,-12.29319,46.570473,-28.066164,-0.25955716,0.925934,9.967171,-0.0057385694,0.0026859595,0.0021979515,-0.09260130673646927,0.02603532373905182,0.2600323557853699,1001.72076,
2021.05.19 18:02:00,63.0,72.0,-13.361565,46.725826,-27.223783,-0.1698939,0.8880655,9.568695,-0.004301117,0.02027031,0.031075615,-0.09252985566854477,0.01775331422686577,0.27522844076156616,1001.7205,
2021.05.19 18:02:01,63.0,72.0,-12.5457,46.89841,-27.218313,-0.010022428,0.58027864,9.765117,0.001803185,0.008710381,5.532233E-4,-0.059353798627853394,0.0010263497242704034,0.2540184557437897,1001.7205,
2021.05.19 18:02:01,63.0,72.0,-12.496048,46.372025,-28.614649,-0.13448611,0.6345732,9.741986,-0.009519477,0.0035012222,-0.036295608,-0.06503989547491074,0.013803916051983833,0.2617119252681732,1001.7205,
2021.05.19 18:02:01,63.0,72.0,-12.449135,46.97632,-27.623117,-0.3499098,0.8783767,9.705906,-0.020022899,0.025809195,-0.011500729,-0.09019505977630615,0.03603561967611313,0.2664315402507782,1001.7205,
2021.05.19 18:02:01,63.0,72.0,-13.333069,46.951405,-28.057642,-0.19632436,0.8001643,9.944377,0.008461077,0.028665222,-9.235097E-4,-0.08027543872594833,0.019739683717489243,0.27596205472946167,1001.7205,
2021.05.19 18:02:01,63.0,72.0,-12.423973,46.10866,-28.314337,-0.040345624,0.69761604,9.780096,0.013208996,0.03779878,-0.04425084,-0.07120896875858307,0.004125255160033703,0.2555379867553711,1001.7205,
2021.05.19 18:02:01,63.0,72.0,-12.599213,45.833862,-27.971754,-0.1812783,0.6711381,9.932585,0.025313528,0.05004115,-0.07447147,-0.06745558232069016,0.018248844891786575,0.2687128484249115,1001.7205,
2021.05.19 18:02:01,63.0,72.0,-13.459679,46.470764,-27.300207,-0.33467373,0.8152136,9.461556,0.0095052635,0.0426674,-0.035237618,-0.08589491248130798,0.035357214510440826,0.2883685827255249,1001.7205,
2021.05.19 18:02:01,63.0,72.0,-13.618988,46.509888,-28.302874,-0.25699797,0.7267904,9.698865,0.0047214357,0.054762058,-0.0114319865,-0.07476968318223953,0.02649153769016266,0.2881212830543518,1001.7205,
2021.05.19 18:02:01,63.0,72.0,-10.895714,45.7776,-27.977392,-0.40654042,0.67778206,9.888798,0.05989009,0.011883672,-0.0085562775,-0.06837578117847443,0.04108807072043419,0.24791090190410614,1001.7205,
2021.05.19 18:02:01,63.0,72.0,-11.747444,46.87358,-28.687464,-0.53823876,0.7665972,9.503013,0.03108272,0.010164767,0.028879229,-0.08036631345748901,0.05657830461859703,0.26617366075515747,1001.7205,
2021.05.19 18:02:01,63.0,72.0,-12.355286,45.588654,-27.843973,-0.40552548,0.7894728,9.696702,0.011166546,0.02178698,0.048958335,-0.0811668112874031,0.04179661348462105,0.2762226164340973,1001.7205,
2021.05.19 18:02:01,63.0,72.0,-11.549973,45.181854,-28.543165,-0.29430237,0.8138166,9.781296,0.055256207,-0.013765969,0.03491836,-0.08297274261713028,0.030079204589128494,0.2561276853084564,1001.7205,
2021.05.19 18:02:01,63.0,72.0,-11.415634,46.452217,-28.18149,-0.16153319,0.84909314,9.551888,0.02682295,-0.0054571866,0.0334474,-0.08864705264568329,0.016909513622522354,0.2392495572566986,1001.7205,
2021.05.19 18:02:01,63.0,72.0,-11.085205,45.124092,-29.242182,-0.34079957,0.89243346,9.492496,0.040562022,-0.04971365,-0.0013121134,-0.09367909282445908,0.03588658198714256,0.24935302138328552,1001.7205,
2021.05.19 18:02:01,63.0,72.0,-11.314018,44.7698,-28.234392,-0.3476789,0.9239776,9.883516,-3.344007E-5,-0.018563293,-2.2466015E-4,-0.09315849840641022,0.03516315296292305,0.25510501861572266,1001.72034,
2021.05.19 18:02:02,63.0,72.0,-12.861252,43.94206,-28.697607,-0.3394133,0.9469257,9.785462,0.01543751,-0.035848167,0.001248681,-0.09641063213348389,0.03467155992984772,0.28970906138420105,1001.72034,
2021.05.19 18:02:02,63.0,72.0,-12.756149,45.38849,-29.5796,-0.20278728,0.8050323,9.713256,0.030419346,-0.014291981,0.030904528,-0.0826728418469429,0.02087434194982052,0.27354907989501953,1001.72034,
2021.05.19 18:02:02,63.0,72.0,-13.290268,45.657124,-28.913065,-0.28693208,0.82672805,9.686212,0.036204018,-0.035240777,0.032143105,-0.08510751277208328,0.029614074155688286,0.2869707942008972,1001.72034,
2021.05.19 18:02:02,63.0,72.0,-12.278763,45.483437,-27.282675,-0.27978694,0.90928966,9.5397835,-0.011706363,0.006162631,0.043776598,-0.09498786181211472,0.02932003326714039,0.2668074071407318,1001.72034,
2021.05.19 18:02:02,63.0,72.0,-12.007767,45.063187,-28.531237,-0.28153333,0.9649419,9.819672,0.004105594,-0.025086008,0.059307985,-0.09791175276041031,0.028662489727139473,0.263086199760437,1001.72034,
2021.05.19 18:02:02,63.0,72.0,-12.378212,46.08718,-27.984892,-0.11968243,0.9226036,9.816702,-0.0010442976,-0.005780627,0.056997463,-0.09370087832212448,0.012191111221909523,0.2565167248249054,1001.72034,
2021.05.19 18:02:02,63.0,72.0,-11.340584,44.612656,-28.851015,-0.15997666,0.93331003,9.641064,0.031715777,0.0073818704,0.03380495,-0.09649180620908737,0.016591735184192657,0.24550023674964905,1001.72034,
2021.05.19 18:02:02,63.0,72.0,-12.656334,45.097496,-28.31682,-0.2183352,0.92961746,9.686723,0.014870968,-8.143494E-4,0.029920109,-0.0956510677933693,0.022535819560289383,0.2724669873714447,1001.72034,
2021.05.19 18:02:02,63.0,72.0,-10.912636,45.50087,-28.197592,-0.23862791,0.9958884,9.599572,-0.015914863,0.011468772,0.03301129,-0.10334150493144989,0.024853063747286797,0.23666153848171234,1001.7203,
2021.05.19 18:02:02,63.0,72.0,-11.670784,47.489243,-27.209898,-0.16151208,0.98792356,9.72551,-0.015785642,8.964374E-4,0.03136603,-0.1012195348739624,0.016605528071522713,0.2379431128501892,1001.72015,
2021.05.19 18:02:02,63.0,72.0,-11.996292,44.984497,-28.12543,-0.10684717,0.94604367,9.748057,-0.0079544,-0.0035167914,0.012138799,-0.09674069285392761,0.010960428975522518,0.2535702884197235,1001.71985,
2021.05.19 18:02:02,63.0,72.0,-11.262306,43.529877,-28.189978,-0.16781187,0.92848784,9.678924,-0.008046778,0.0016034193,6.448636E-4,-0.09562190622091293,0.017336128279566765,0.25005480647087097,1001.71985,
2021.05.19 18:02:02,63.0,72.0,-11.71727,43.929535,-29.324747,-0.2751572,0.96367794,9.767312,4.3157372E-4,0.0027169038,0.014679542,-0.09830653667449951,0.028163781389594078,0.2630440592765808,1001.71985,
2021.05.19 18:02:03,63.0,72.0,-11.38372,44.905113,-28.766535,-0.06941192,0.9344573,9.609828,-0.0015294414,-0.017692413,0.03886097,-0.09693247824907303,0.007222888059914112,0.23949143290519714,1001.71985,
2021.05.19 18:02:03,63.0,72.0,-11.4394455,45.784897,-28.473108,-0.040402327,0.99670845,9.690784,-0.027395774,-0.006915922,0.015985759,-0.1024898961186409,0.004169125109910965,0.23416627943515778,1001.72015,
2021.05.19 18:02:03,63.0,72.0,-11.880806,46.143993,-28.349016,0.019658102,0.950145,9.8748255,-0.037633974,-0.005338052,-0.015527051,-0.09592343866825104,-0.001990726450458169,0.23842951655387878,1001.7203,
2021.05.19 18:02:03,63.0,72.0,-11.792694,44.21184,-28.394133,-0.15472925,0.95536715,9.784454,-0.014586366,-0.0040235915,-0.063527144,-0.09732071310281754,0.0158124677836895,0.25610992312431335,1001.72034,
2021.05.19 18:02:03,63.0,72.0,-11.992088,46.064857,-27.284346,-0.2546791,0.9321537,9.71375,0.008877119,-0.033975814,-0.05764987,-0.09563667327165604,0.026212409138679504,0.25652483105659485,1001.72034,
2021.05.19 18:02:03,63.0,72.0,-11.833763,44.95958,-27.137602,-0.25385082,0.9113341,9.526616,-0.023761395,-0.009124508,-0.031617913,-0.09533803910017014,0.02664017863571644,0.2593589425086975,1001.72034,
2021.05.19 18:02:03,63.0,72.0,-11.314323,47.05722,-28.491957,-0.1991489,0.9235708,9.707677,-0.013259547,-0.004794673,-0.03211264,-0.09483286738395691,0.020511699840426445,0.23575961589813232,1001.72034,
2021.05.19 18:02:03,63.0,72.0,-12.776344,44.241684,-26.637484,-0.08787946,0.9108396,9.781918,-0.008864456,-0.016036853,-0.0054715867,-0.0928431898355484,0.008983626030385494,0.2728559672832489,1001.7203,
2021.05.19 18:02:03,63.0,72.0,-13.148056,45.63626,-28.09221,-0.10516528,0.90122384,9.645862,0.00709357,-0.036097974,-0.013439153,-0.09315519034862518,0.010902199894189835,0.2730643153190613,1001.7203,
2021.05.19 18:02:03,63.0,72.0,-11.798683,45.920204,-27.494368,-0.11388149,0.92262465,9.7583065,0.0064238235,-0.019154828,-0.0122720925,-0.09426100552082062,0.01166968047618866,0.2458743453025818,1001.72034,
2021.05.19 18:02:03,63.0,72.0,-13.818779,45.409817,-27.87742,-0.2397703,0.99530154,9.680606,0.014981307,-0.0046294252,-0.020905994,-0.1024227887392044,0.024763043969869614,0.2935378849506378,1001.72034,
2021.05.19 18:02:03,63.0,72.0,-12.932907,44.77414,-28.175745,-0.13645007,0.9380977,9.672284,0.020006536,-0.0065964395,0.011363171,-0.09667626023292542,0.014106390066444874,0.2748585641384125,1001.7203,
2021.05.19 18:02:03,63.0,72.0,-13.723457,44.363285,-29.716288,-0.13042186,0.96216273,9.563148,-0.010397075,0.0012041228,0.026028,-0.10026481002569199,0.01363711804151535,0.29142990708351135,1001.7197,
2021.05.19 18:02:04,63.0,72.0,-12.3747635,45.055252,-29.589308,-0.013248291,0.9586024,9.692096,-0.025720557,0.009673699,0.0055046002,-0.0985848680138588,0.0013669162290170789,0.2543864846229553,1001.71967,
2021.05.19 18:02:04,63.0,72.0,-13.080978,46.63109,-29.457327,-0.049525738,0.9529686,9.847178,6.0450437E-4,-0.009062999,-0.016923385,-0.09647416323423386,0.005029391963034868,0.2624380588531494,1001.71967,
2021.05.19 18:02:04,63.0,72.0,-11.360695,45.5112,-27.993486,-0.110018514,0.93501025,9.569427,-0.025532622,0.0025685763,-0.010302631,-0.09739251434803009,0.01149636972695589,0.2387065291404724,1001.7196,
2021.05.19 18:02:04,63.0,72.0,-13.109192,45.161552,-28.881044,-0.068739556,0.8882528,9.627187,-0.02828589,0.0020485017,-0.03294451,-0.09200222790241241,0.007140028290450573,0.2726736068725586,1001.71954,
2021.05.19 18:02:04,63.0,72.0,-11.565315,46.05247,-28.229532,-0.117985696,0.91734725,9.659741,-0.04570636,0.0054108654,-0.027341768,-0.09467505663633347,0.012213559821248055,0.2407808005809784,1001.71954,
2021.05.19 18:02:04,63.0,72.0,-13.657143,45.396935,-27.600904,-0.07050764,0.8986959,9.845227,-0.02488446,0.014255068,-0.05248316,-0.09102779626846313,0.007161483634263277,0.28262168169021606,1001.71954,
2021.05.19 18:02:04,63.0,72.0,-12.071243,45.341354,-27.458227,-0.1985393,0.939656,9.757841,-0.00633891,0.009963232,-0.038708888,-0.09598177671432495,0.020343834534287453,0.25857990980148315,1001.71954,
2021.05.19 18:02:04,63.0,72.0,-12.99424,45.10261,-28.160677,-0.13655294,0.8164508,9.688359,-0.0032364202,-0.0042136465,-0.021927917,-0.08406434953212738,0.014093604870140553,0.2759081721305847,1001.71954,
2021.05.19 18:02:04,63.0,72.0,-12.123474,45.75293,-27.723715,-0.20048231,0.86999583,9.734352,-0.007168078,-0.004386176,-0.034102555,-0.08911814540624619,0.020592430606484413,0.2584134042263031,1001.7196,
2021.05.19 18:02:04,63.0,72.0,-11.8103485,46.16242,-28.709162,-0.22620599,0.8766885,9.761907,-0.004297103,-0.002969866,-0.025267905,-0.08954290300607681,0.02316817082464695,0.25160863995552063,1001.71967,
2021.05.19 18:02:04,63.0,72.0,-12.909088,46.35647,-28.841288,-0.15722133,0.8489681,9.712455,0.0017763765,-0.008350149,-0.0032155556,-0.08717727661132812,0.0161861851811409,0.268158495426178,1001.71967,
2021.05.19 18:02:04,63.0,72.0,-13.213005,45.83678,-27.94832,-0.07044754,0.7892649,9.734375,0.0016403622,-0.0112156775,0.0033244058,-0.08090110123157501,0.007236860226839781,0.2728610932826996,1001.72034,
2021.05.19 18:02:04,63.0,72.0,-11.842239,45.62587,-28.98282,-0.1340342,0.83004004,9.668232,0.0038187269,-0.0148961,-0.016068196,-0.08563411980867386,0.01386247482150793,0.2501182556152344,1001.7204,
2021.05.19 18:02:04,63.0,72.0,-12.15316,46.319767,-29.121237,-0.14989637,0.87346077,9.647546,-0.016034843,-0.001710993,-0.005599757,-0.09028009325265884,0.01553600374609232,0.2530585825443268,1001.72095,
2021.05.19 18:02:05,63.0,72.0,-12.099129,45.906494,-28.92476,-0.11619336,0.81387836,9.845428,0.0029000705,-9.857385E-4,-0.0070567215,-0.08247236162424088,0.011801210232079029,0.25296762585639954,1001.72095,
2021.05.19 18:02:05,63.0,72.0,-12.767151,45.871666,-27.65426,-0.11998131,0.80759,9.708553,3.3422082E-4,-0.0017196059,-0.003622743,-0.08298598229885101,0.012357681058347225,0.26661959290504456,1001.72125,
2021.05.19 18:02:05,63.0,72.0,-13.976669,45.22232,-27.241312,-0.11785368,0.8336129,9.749917,-0.0073233787,0.0026337756,-0.0029109423,-0.08528585731983185,0.012087071314454079,0.29331034421920776,1001.7213,
2021.05.19 18:02:05,63.0,72.0,-11.522202,46.674995,-28.000975,-0.1206897,0.83697563,9.714608,-0.007960748,0.0011347875,-0.0053061913,-0.08593756705522537,0.012422887608408928,0.23814786970615387,1001.72156,
2021.05.19 18:02:05,63.0,72.0,-13.797569,45.16706,-29.299158,-0.13108085,0.81566185,9.715871,-0.003621423,0.001596081,-0.0073134475,-0.0837475135922432,0.013490596786141396,0.29065248370170593,1001.7216,
2021.05.19 18:02:05,63.0,72.0,-13.182152,46.37326,-28.732016,-0.129525,0.8145402,9.735983,1.3735378E-5,1.7418871E-4,-0.009527923,-0.08346113562583923,0.013302956707775593,0.27219492197036743,1001.7216,
2021.05.19 18:02:05,63.0,72.0,-12.995155,46.172173,-28.61918,-0.16778137,0.8536647,9.706007,-0.004498142,-3.2567838E-4,7.3631154E-4,-0.08771342784166336,0.01728462055325508,0.2713436484336853,1001.722,
2021.05.19 18:02:05,63.0,72.0,-13.681915,46.11957,-28.367754,-0.096974306,0.8243215,9.805828,0.010324068,-0.01001014,-0.0048396895,-0.08386317640542984,0.009889133274555206,0.2812705934047699,1001.7221,
2021.05.19 18:02:05,63.0,72.0,-12.160843,46.32513,-28.299467,-0.088125534,0.8048349,9.694634,0.0019352809,-0.0064520603,-0.0040838923,-0.08282525092363358,0.009089884348213673,0.2506565451622009,1001.7221,
2021.05.19 18:02:05,63.0,72.0,-12.032112,46.189724,-26.716627,-0.11582431,0.85340315,9.802325,-8.0799987E-4,-0.010289901,-0.014275225,-0.0868363007903099,0.011815453879535198,0.25016993284225464,1001.7228,
2021.05.19 18:02:05,63.0,72.0,-12.12352,46.399666,-28.641016,-0.08460183,0.8481346,9.755337,0.0051277275,-0.011332618,-0.011951285,-0.08671926707029343,0.008672146126627922,0.24878749251365662,1001.72296,
2021.05.19 18:02:05,63.0,72.0,-12.833466,46.08921,-28.222097,-0.0792619,0.8048501,9.677727,0.020901334,-0.014217751,-0.022065753,-0.08297149091959,0.008189952932298183,0.264363557100296,1001.72296,
2021.05.19 18:02:05,63.0,72.0,-12.754761,46.331947,-27.045137,-0.12270105,0.8194006,9.697675,-9.7002205E-4,-0.0011671433,-0.031252217,-0.0842875987291336,0.012651950120925903,0.26409000158309937,1001.72296,
2021.05.19 18:02:06,63.0,72.0,-13.9177475,46.929886,-29.00474,-0.176868,0.87226176,9.676933,-0.004755646,-0.006325665,-0.016214373,-0.08988037705421448,0.018275244161486626,0.2849200665950775,1001.72296,
2021.05.19 18:02:06,63.0,72.0,-13.887802,45.500595,-28.428389,-0.13782223,0.844759,9.761411,9.286712E-4,2.602896E-4,-0.009521821,-0.0863170251250267,0.014118150807917118,0.2906557619571686,1001.72296,
2021.05.19 18:02:06,63.0,72.0,-13.5347595,46.76426,-26.968805,-0.15034921,0.8518141,9.676669,-0.002967858,-0.002735303,-0.0027861386,-0.08779074996709824,0.01553604006767273,0.27777227759361267,1001.72296,
2021.05.19 18:02:06,63.0,72.0,-12.303314,47.050987,-28.459246,-0.12728025,0.9022922,9.7266655,-0.008654335,0.0038464218,0.007716415,-0.09249220043420792,0.013084955513477325,0.2508460581302643,1001.72296,
2021.05.19 18:02:06,63.0,72.0,-12.721359,44.488663,-28.9139,-0.020811664,0.8774531,9.683507,-0.0057033747,0.0015349523,0.016106715,-0.09036616235971451,0.002149183303117752,0.2660290002822876,1001.72296,
2021.05.19 18:02:06,63.0,72.0,-12.877182,46.097317,-28.122496,-0.059596572,0.86537904,9.776998,-0.0042641135,-0.006492355,-0.002110581,-0.08828004449605942,0.006095514632761478,0.2633841633796692,1001.72296,
2021.05.19 18:02:06,63.0,72.0,-13.566597,46.065277,-28.864012,-0.17208774,0.9190941,9.657726,0.0072578453,-0.0048364326,-0.01534294,-0.09486600011587143,0.017816776409745216,0.28213760256767273,1001.72296,
2021.05.19 18:02:06,63.0,72.0,-12.654251,46.33487,-27.602633,-0.12730588,0.83847445,9.744082,0.0049473955,-0.0054805423,-6.052507E-4,-0.08583085983991623,0.013064200058579445,0.26206663250923157,1001.72296,
2021.05.19 18:02:06,63.0,72.0,-12.488075,45.16472,-27.88973,-0.12484083,0.8622396,9.657589,-0.010999264,-0.0022688007,0.004273025,-0.08903755247592926,0.01292598806321621,0.26441290974617004,1001.72296,
2021.05.19 18:02:06,63.0,72.0,-13.38295,46.558067,-28.620283,-0.13839886,0.8993208,9.670146,-0.01959201,-0.0057739997,0.018195868,-0.0927235409617424,0.014310995116829872,0.2744077444076538,1001.72296,
2021.05.19 18:02:06,63.0,72.0,-13.359375,45.217457,-28.56001,-0.01628726,0.85250705,9.704066,-0.009979297,-0.0016564119,0.0034261732,-0.0876254215836525,0.0016783936880528927,0.27487438917160034,1001.72296,
2021.05.19 18:02:06,63.0,72.0,-12.787605,45.512535,-27.876139,-0.1643505,0.87952876,9.639226,-0.0069340933,-0.009453002,-0.0029590824,-0.09097963571548462,0.01704852283000946,0.2704222798347473,1001.72296,
2021.05.19 18:02:06,63.0,72.0,-11.914421,44.9626,-29.205347,-0.099673904,0.8280017,9.752411,-0.020695813,-0.006688978,0.026949551,-0.08469472080469131,0.01022008154541254,0.2528664469718933,1001.72296,
2021.05.19 18:02:07,63.0,72.0,-13.622055,47.723347,-27.623262,0.02747416,0.7891013,9.64705,-0.015277264,0.0027297835,0.026139341,-0.0816151350736618,-0.002847925992682576,0.26543286442756653,1001.72296,
2021.05.19 18:02:07,63.0,72.0,-13.170059,45.90235,-27.479506,0.06547546,0.76381737,9.835655,-0.026703566,0.007207147,0.003507624,-0.07750074565410614,-0.006656850688159466,0.2647652328014374,1001.72296,
2021.05.19 18:02:07,63.0,72.0,-12.266525,48.29612,-29.550074,-0.13285744,0.8123717,9.870041,0.027489621,-0.015113741,-0.050690424,-0.08211430162191391,0.013459865003824234,0.24548690021038055,1001.72296,
2021.05.19 18:02:07,63.0,72.0,-13.753235,45.63344,-29.03232,-0.17263557,0.8239908,9.590402,0.003298086,-0.037109714,-0.0031286904,-0.08569398522377014,0.01799892447888851,0.2894410490989685,1001.7229,
2021.05.19 18:02:07,63.0,72.0,-13.433746,46.315586,-29.145388,-0.034857843,0.68930763,9.8344965,0.030540772,-0.05902166,-0.03654624,-0.06997591257095337,0.0035444314125925303,0.2735985219478607,1001.7229,
2021.05.19 18:02:07,63.0,72.0,-13.111221,46.18573,-29.66488,-0.1752228,0.8918876,9.596976,0.0036494052,-0.009851402,0.013915684,-0.09265270829200745,0.01825609803199768,0.2732347548007965,1001.7229,
2021.05.19 18:02:07,63.0,72.0,-13.875961,45.911087,-28.286459,-0.054601867,0.8939921,9.690298,-0.0019488845,5.746702E-4,0.036121316,-0.09199454635381699,0.005634634755551815,0.28274866938591003,1001.7229,
2021.05.19 18:02:07,63.0,72.0,-12.742477,46.214966,-29.39823,0.03529941,0.86241156,9.851338,0.027738148,-0.019608993,0.026881255,-0.08731941133737564,-0.0035831942223012447,0.25435519218444824,1001.7229,
2021.05.19 18:02:07,63.0,72.0,-14.52932,46.333466,-27.517614,0.038462233,0.84610176,9.81956,0.06786506,-0.035365533,0.019683404,-0.08595198392868042,-0.003916880115866661,0.2888563871383667,1001.7229,
2021.05.19 18:02:07,63.0,72.0,-13.135254,45.860806,-28.933847,0.08945366,0.87743664,9.103648,-0.097150125,0.108765334,-0.0028995879,-0.09608156234025955,-0.009825817309319973,0.25932446122169495,1001.7229,
