Time,X-cord,Y-cord,Mag_x,Mag_y,Mag_z,Acc_x,Acc_y,Acc_z,Gyro_x,Gyro_y,Gyro_z,Orn_x,Orn_y,Orn_z,Pressure,
2021.05.19 17:52:06,114.0,57.0,10.406914,3.1011057,-23.452066,-0.17628197,0.8531504,10.03374,0.05865522,-0.055101942,-0.07012771,-0.08481110632419586,0.017567113041877747,-1.0995663404464722,1001.58435,
2021.05.19 17:52:06,114.0,57.0,9.266884,2.678771,-24.28274,-0.16051571,1.1083636,9.409555,0.023375772,-0.046056725,-0.049530383,-0.11723409593105316,0.01705714501440525,-1.0132859945297241,1001.58435,
2021.05.19 17:52:06,114.0,57.0,10.1892395,3.1937275,-24.939737,-0.24075043,1.0650009,9.8526125,-0.0061867516,-0.015036343,-0.0043744403,-0.10764330625534058,0.024430327117443085,-1.0201207399368286,1001.5855,
2021.05.19 17:52:06,114.0,57.0,10.210686,4.061755,-24.283384,-0.099296354,0.8090233,9.843663,0.023708116,-0.032072432,-0.01465038,-0.08199876546859741,0.010086995549499989,-1.0255001783370972,1001.58563,
2021.05.19 17:52:06,114.0,57.0,8.305923,3.3298473,-24.772211,-0.14347096,0.7124583,9.637572,0.03683107,-0.041177005,-0.038348816,-0.07378271222114563,0.014885528944432735,-0.9946667551994324,1001.58563,
2021.05.19 17:52:06,114.0,57.0,10.26619,3.6023617,-23.400442,-0.2768165,0.80297595,9.654559,0.022127844,-0.030740932,-0.024613367,-0.08294573426246643,0.028664246201515198,-1.0460444688796997,1001.58563,
2021.05.19 17:52:06,114.0,57.0,9.53112,3.2982883,-24.259947,-0.19427817,0.9161739,9.873542,0.037737522,-0.0215495,0.0018381155,-0.09250805526971817,0.019674105569720268,-1.0214166641235352,1001.58563,
2021.05.19 17:52:06,114.0,57.0,9.744019,3.643858,-24.947348,-0.10462675,0.8547872,9.784314,0.068545,-0.02849342,0.03224652,-0.08713680505752563,0.010692906565964222,-1.0208085775375366,1001.58563,
2021.05.19 17:52:06,114.0,57.0,8.335411,2.7928553,-24.81048,-0.08425235,0.84765726,9.567477,0.038279824,-0.028215434,0.04668625,-0.0883636400103569,0.008805892430245876,-1.020661473274231,1001.58563,
2021.05.19 17:52:07,114.0,57.0,10.001472,3.3624506,-24.349588,0.17767799,0.76913196,9.7690325,-0.0066171167,0.005379478,0.0077776094,-0.07855662703514099,-0.018185876309871674,-1.1050792932510376,1001.58563,
2021.05.19 17:52:07,114.0,57.0,9.938896,2.8567553,-23.857397,0.19029158,0.75140095,9.76995,0.025714997,-0.03658872,-0.0455241,-0.07674379646778107,-0.01947477087378502,-1.1494182348251343,1001.58563,
2021.05.19 17:52:07,114.0,57.0,9.392097,2.7526054,-23.478106,0.05712038,1.0242343,9.355905,-0.014533094,-0.05079722,-0.015951918,-0.10903840512037277,-0.006105200387537479,-1.064696192741394,1001.58563,
2021.05.19 17:52:07,114.0,57.0,9.79171,2.8471012,-24.485296,-0.18179338,1.0821636,9.627288,-0.05774496,-0.022624023,0.04011755,-0.11191622167825699,0.01888089068233967,-1.0313690900802612,1001.586,
2021.05.19 17:52:07,114.0,57.0,9.385803,3.20885,-23.806154,-0.028523946,1.0272437,9.370284,-0.008906644,0.008901776,0.031842854,-0.10919127613306046,0.0030440762639045715,-1.0148036479949951,1001.58673,
2021.05.19 17:52:07,114.0,57.0,8.979164,2.7858028,-23.748133,0.1769038,0.9787443,9.556397,0.009322788,0.067332946,0.008273795,-0.1020444855093956,-0.01850944384932518,-1.0684677362442017,1001.5875,
2021.05.19 17:52:07,114.0,57.0,8.499489,1.5951118,-24.056082,0.1320514,0.9624974,9.898782,-0.033208888,0.0568039,0.014580898,-0.09692066162824631,-0.013339375145733356,-1.1540404558181763,1001.58923,
2021.05.19 17:52:07,114.0,57.0,9.393127,4.1343613,-24.802626,-0.20418501,1.0794791,9.739862,0.018628651,0.014695564,-0.02862788,-0.11035650223493576,0.02096077986061573,-0.9124252796173096,1001.5895,
2021.05.19 17:52:07,114.0,57.0,9.208824,2.6145515,-24.87142,-0.25980535,1.0896984,9.483882,-6.327033E-4,0.029337239,-0.0021733996,-0.11435584723949432,0.02738756127655506,-1.0008476972579956,1001.5895,
2021.05.19 17:52:07,114.0,57.0,8.585609,2.7439165,-24.784952,-0.15370034,1.0042613,9.664902,-0.037474375,0.026434079,0.0011412133,-0.10352350771427155,0.01590159721672535,-0.9960982203483582,1001.5895,
2021.05.19 17:52:07,114.0,57.0,10.279739,3.7089071,-22.683817,-0.191738,1.0109946,10.041589,0.020514574,0.004578425,-0.033317585,-0.10032444447278976,0.019092068076133728,-1.024828314781189,1001.5895,
2021.05.19 17:52:07,114.0,57.0,9.973343,2.973917,-24.163904,-0.2821819,0.98352975,9.517013,0.035430282,-0.007672201,-0.015546596,-0.10293389111757278,0.02964157424867153,-1.0368653535842896,1001.5895,
2021.05.19 17:52:07,114.0,57.0,10.052498,2.530696,-24.154795,-0.37331596,1.0150744,9.687293,0.01142201,0.005409409,0.013779188,-0.10432624816894531,0.038517605513334274,-1.0631139278411865,1001.5895,
2021.05.19 17:52:08,114.0,57.0,9.842522,2.6470442,-23.450151,-0.2821568,1.0666834,9.6824255,0.00824604,-0.02026461,0.06666494,-0.10967830568552017,0.02913288213312626,-1.0519245862960815,1001.5895,
2021.05.19 17:52:08,114.0,57.0,8.419273,2.5822372,-23.289888,-0.1350684,1.048549,9.5965805,-0.021100275,-0.0020553363,0.06531708,-0.1088203713297844,0.014073709957301617,-1.007559895515442,1001.5895,
2021.05.19 17:52:08,114.0,57.0,9.495621,1.9125175,-23.327581,-0.046789777,0.9998171,9.614655,-0.035791487,-0.012322609,0.027415209,-0.10361523181200027,0.004866468254476786,-1.139299750328064,1001.5895,
2021.05.19 17:52:08,114.0,57.0,9.984505,2.5912027,-24.019445,-0.0060254764,1.0280493,9.658086,-0.05526115,0.0011519892,-0.0022582281,-0.10604508966207504,6.238788482733071E-4,-1.0963809490203857,1001.5895,
2021.05.19 17:52:08,114.0,57.0,9.828644,3.2765408,-23.625204,-0.029600391,1.0309027,9.840049,-0.0064022923,-0.008129409,-0.030919613,-0.10438475012779236,0.0030081458389759064,-1.0403152704238892,1001.5901,
2021.05.19 17:52:08,114.0,57.0,9.7761,3.124236,-24.402391,-0.1124176,0.9764784,9.7248535,-0.0096023325,-0.015832756,-0.032644264,-0.10006852447986603,0.01155930943787098,-1.0411697626113892,1001.59033,
2021.05.19 17:52:08,114.0,57.0,9.396187,3.0471363,-24.351435,-0.17682195,0.9154093,9.728983,-0.0126604345,-0.006109808,-0.030475987,-0.09379936009645462,0.01817276142537594,-1.0337610244750977,1001.5905,
2021.05.19 17:52:08,114.0,57.0,8.66172,3.5791426,-24.81664,-0.09551973,0.9384225,9.730515,-0.016320284,-0.008884525,-0.01861259,-0.09613925963640213,0.009816198609769344,-0.9552669525146484,1001.5905,
2021.05.19 17:52:08,114.0,57.0,9.849716,3.9821405,-24.572412,-0.13105725,0.99540615,9.796044,-0.0066915834,-0.0117199505,-0.021035802,-0.10125650465488434,0.013377790339291096,-0.9746960401535034,1001.5905,
2021.05.19 17:52:08,114.0,57.0,10.053925,3.6057386,-24.5245,-0.109686784,0.9387376,9.565422,0.018614106,-0.01810956,-0.014003789,-0.0978190079331398,0.011466506868600845,-1.020540475845337,1001.5905,
2021.05.19 17:52:08,114.0,57.0,7.3409576,2.7099657,-24.77001,-0.09096479,0.9104797,9.594486,-0.027009226,0.010637256,-0.021900885,-0.09460859000682831,0.009480660781264305,-0.9534687995910645,1001.5905,
2021.05.19 17:52:08,114.0,57.0,9.889114,2.8129787,-24.061483,-0.10923644,0.9160612,9.781746,-0.030770818,-0.00615883,-0.021497848,-0.0933719351887703,0.011166912503540516,-1.0870327949523926,1001.5905,
2021.05.19 17:52:08,114.0,57.0,9.380432,3.4794798,-25.509958,-0.08633595,0.9320808,9.673137,-0.03303317,-0.004031318,-0.025755526,-0.09605728834867477,0.00892509426921606,-0.9968079328536987,1001.5905,
2021.05.19 17:52:08,114.0,57.0,8.975624,3.7230597,-24.025053,-0.08282695,0.8786452,9.711134,-0.032045923,7.94637E-4,-0.027303396,-0.09022917598485947,0.008528864942491055,-0.9802228212356567,1001.5905,
2021.05.19 17:52:09,114.0,57.0,9.918976,3.4124022,-24.651384,-0.1452349,0.8716919,9.656017,-0.046014816,-0.0027053996,-0.01567589,-0.0900203138589859,0.015039735473692417,-1.0381450653076172,1001.5905,
2021.05.19 17:52:09,114.0,57.0,10.488434,3.6139011,-25.12155,-0.07437715,0.85837334,9.795666,-0.028445277,-0.0010216782,-0.031189049,-0.0874021053314209,0.007592717185616493,-1.0578469038009644,1001.59076,
2021.05.19 17:52:09,114.0,57.0,9.206177,3.2539072,-24.317923,-0.11598291,0.86510754,9.85366,-0.00438092,-1.0844739E-4,-0.034745432,-0.08756498992443085,0.011769997887313366,-1.0282481908798218,1001.59076,
2021.05.19 17:52:09,114.0,57.0,9.273323,3.625204,-25.091188,-0.16640994,0.8287406,9.677636,-0.011200306,0.0040272577,-0.013778501,-0.08541363477706909,0.017193613573908806,-0.9928776025772095,1001.5907,
2021.05.19 17:52:09,114.0,57.0,8.810562,3.3968782,-24.83394,-0.24251086,0.6872557,9.503063,0.001771203,-0.010162034,-0.016564127,-0.07217028737068176,0.02551369182765484,-1.004708170890808,1001.59033,
2021.05.19 17:52:09,114.0,57.0,11.164864,5.489232,-24.13077,-0.22042495,0.6983161,9.577505,-0.03952588,0.0019584894,-0.0027195283,-0.07276411354541779,0.023010797798633575,-0.9713876247406006,1001.5903,
2021.05.19 17:52:09,114.0,57.0,8.853279,4.1684914,-23.92027,-0.12814508,0.6670695,9.778937,-0.06727616,0.00986089,0.01961903,-0.06810358166694641,0.013103443197906017,-0.9745973944664001,1001.59015,
2021.05.19 17:52:09,114.0,57.0,10.106598,4.7070303,-25.117052,-0.15910555,0.74973124,9.849619,-0.043753162,-0.0037216102,0.013741732,-0.07596142590045929,0.016152068972587585,-0.9724954962730408,1001.5901,
2021.05.19 17:52:09,114.0,57.0,9.164574,4.426052,-25.068853,-0.12028271,0.7262094,9.841137,-0.013482729,-0.0033198933,0.015031442,-0.07365424931049347,0.01222183182835579,-0.9550374746322632,1001.5901,
2021.05.19 17:52:09,114.0,57.0,10.665955,3.9865828,-24.362627,-0.07234124,0.636408,9.81475,5.32566E-4,-0.0044921706,0.0040239333,-0.0647495910525322,0.007370532024651766,-1.083288311958313,1001.5901,
2021.05.19 17:52:09,114.0,57.0,11.129219,4.620199,-24.582087,-0.10207211,0.65135336,9.709083,0.0014874795,-0.007540228,-0.0036627376,-0.0669829472899437,0.010512666776776314,-1.048093318939209,1001.5899,
2021.05.19 17:52:09,114.0,57.0,10.347122,5.126745,-25.206034,-0.12617433,0.6880424,9.7474375,0.009126138,-0.0024938525,-0.0032745588,-0.07046424597501755,0.012943636626005173,-0.9678855538368225,1001.5896,
2021.05.19 17:52:09,114.0,57.0,9.4472885,4.759941,-24.622877,-0.14950393,0.68424606,9.813926,0.016650127,-0.0056794276,0.0068756756,-0.06960126012563705,0.015232677571475506,-0.9511863589286804,1001.5896,
2021.05.19 17:52:09,114.0,57.0,8.708611,4.2318277,-24.50863,-0.13675234,0.64526105,9.628967,0.022350376,-0.0023432542,-0.0027360593,-0.06690572202205658,0.014201225712895393,-0.9586889743804932,1001.5896,
2021.05.19 17:52:10,114.0,57.0,8.684196,4.0141277,-24.783903,-0.14501894,0.6823848,9.706959,0.0014562407,-0.0025264826,-2.9980578E-4,-0.07017524540424347,0.014938577078282833,-0.9655947685241699,1001.5896,
2021.05.19 17:52:10,114.0,57.0,9.355362,3.8633356,-25.107103,-0.15648729,0.72978157,9.749984,-0.008201551,-0.0013135591,0.0118294,-0.07470061630010605,0.016048625111579895,-1.0008095502853394,1001.5896,
2021.05.19 17:52:10,114.0,57.0,9.747734,4.0043554,-25.079416,-0.109521024,0.71690637,9.802926,0.00866343,-0.004347484,0.0028682868,-0.07299737632274628,0.011171814054250717,-1.018772840499878,1001.5896,
2021.05.19 17:52:10,114.0,57.0,9.054314,3.1184397,-25.147741,-0.11803677,0.73084396,9.735051,0.009638828,6.653521E-4,0.008488271,-0.07492740452289581,0.01212433073669672,-1.0515663623809814,1001.5896,
2021.05.19 17:52:10,114.0,57.0,8.735847,4.6466064,-25.115023,-0.118636064,0.6588094,9.720506,0.009208595,-0.0035045894,-0.0015868004,-0.06766670942306519,0.012204115279018879,-0.9258021712303162,1001.58923,
2021.05.19 17:52:10,114.0,57.0,10.2428055,4.5399733,-25.58415,-0.15781453,0.68495053,9.616127,-0.0135042695,0.004745622,0.0031947675,-0.07109970599412918,0.016409970819950104,-0.996309757232666,1001.58923,
2021.05.19 17:52:10,114.0,57.0,10.634048,4.6077347,-25.887362,-0.1273431,0.71866727,9.832512,-0.012234935,0.006108121,0.0049119084,-0.07295507192611694,0.012950503267347813,-1.008289098739624,1001.5894,
2021.05.19 17:52:10,114.0,57.0,8.685257,3.3189602,-25.705824,-0.14862062,0.726455,9.662042,-0.0015463317,0.015645567,-0.0015244978,-0.0750364437699318,0.015380692668259144,-1.0064979791641235,1001.5894,
2021.05.19 17:52:10,114.0,57.0,8.828026,3.9651756,-25.53958,-0.17511566,0.715842,9.6912775,-0.006617708,0.00496339,0.008596394,-0.07371867448091507,0.01806744374334812,-0.9607717394828796,1001.5894,
2021.05.19 17:52:10,114.0,57.0,9.456253,4.514786,-26.30958,-0.12767012,0.6954202,9.804607,0.0068360185,-0.0016435708,0.004122253,-0.07080333679914474,0.013020706363022327,-0.960493803024292,1001.5894,
2021.05.19 17:52:10,114.0,57.0,8.302338,4.293934,-24.453222,-0.12272743,0.7214492,9.725346,0.005071583,-0.0013156788,2.6930403E-4,-0.07404086738824844,0.01261866930872202,-0.9190340042114258,1001.5894,
2021.05.19 17:52:10,114.0,57.0,9.900223,4.1818476,-24.977266,-0.11556264,0.7073322,9.670568,-0.0038604576,-0.0031232412,-0.009098655,-0.07300756126642227,0.01194936316460371,-1.0121630430221558,1001.5895,
2021.05.19 17:52:10,114.0,57.0,9.035286,4.211857,-24.841433,-0.09437189,0.6828807,9.738408,-0.00791131,-0.0077655697,-0.016210442,-0.07000453770160675,0.009690387174487114,-0.976333737373352,1001.5896,
2021.05.19 17:52:11,114.0,57.0,8.509781,4.6866283,-24.369642,-0.21260934,0.6994589,9.681102,-0.0033658023,-0.0011795396,-0.033066332,-0.07210728526115417,0.021957745775580406,-0.8910995125770569,1001.5896,
2021.05.19 17:52:11,114.0,57.0,9.373016,4.7172194,-24.988424,-0.25879258,0.728381,9.692634,-0.010669544,0.0029519156,-0.03489834,-0.07498028874397278,0.02669358253479004,-0.9223951101303101,1001.5896,
2021.05.19 17:52:11,114.0,57.0,9.607941,3.9120464,-25.608889,-0.1438973,0.6569937,9.76971,-0.0075783003,0.0032437167,-0.0065482757,-0.06713967770338058,0.014727857895195484,-1.0230188369750977,1001.5896,
2021.05.19 17:52:11,114.0,57.0,11.101677,3.5180626,-24.613935,-0.12944609,0.6593979,9.742218,-0.008238507,0.008872419,-0.009366474,-0.06757555156946182,0.013286345638334751,-1.1224833726882935,1001.5895,
2021.05.19 17:52:11,114.0,57.0,10.794441,4.0870886,-24.264502,-0.19214766,0.69191766,9.725129,-0.0036289215,-9.064543E-4,-0.011395678,-0.07101389765739441,0.019755279645323753,-1.057510256767273,1001.5895,
2021.05.19 17:52:11,114.0,57.0,10.804131,4.516594,-24.912428,-0.17299283,0.72668,9.739548,-0.004776082,-0.0022442846,0.0019027791,-0.07446157932281494,0.017760029062628746,-1.019423007965088,1001.5895,
2021.05.19 17:52:11,114.0,57.0,10.734299,6.226549,-24.966154,-0.085560806,0.6871733,9.767209,0.0054767895,-0.008559197,-0.015390202,-0.0702367052435875,0.00875978171825409,-0.9222363829612732,1001.5896,
2021.05.19 17:52:11,114.0,57.0,9.448105,4.93484,-25.076952,-0.13372786,0.6986783,9.689042,0.0057091946,-0.0042013344,-0.024144754,-0.07197872549295425,0.013801093213260174,-0.9337342977523804,1001.58966,
2021.05.19 17:52:11,114.0,57.0,9.981766,4.334429,-24.670885,-0.16952355,0.7074918,9.733215,-0.0018690329,0.0021575722,-0.024189958,-0.07254981249570847,0.017415253445506096,-1.0006476640701294,1001.5899,
2021.05.19 17:52:11,114.0,57.0,10.042076,4.868169,-24.546274,-0.19523235,0.74048185,9.697856,-0.0064924443,-0.0063065463,-0.025225116,-0.0761919617652893,0.020128777250647545,-0.9561943411827087,1001.5902,
2021.05.19 17:52:11,114.0,57.0,10.500404,4.5877914,-24.594599,-0.17552994,0.71940416,9.748905,-0.00220009,-0.002495855,-0.025393726,-0.07364792376756668,0.018003148958086967,-1.0041069984436035,1001.5902,
2021.05.19 17:52:11,114.0,57.0,10.726601,4.9743977,-24.413115,-0.1473885,0.7266912,9.710923,-0.013036815,-7.0848165E-4,-0.013303617,-0.07468456029891968,0.015176433138549328,-0.990129828453064,1001.5901,
2021.05.19 17:52:11,114.0,57.0,9.256134,5.1029797,-24.283571,-0.12267283,0.66555053,9.835925,0.014312072,-0.016023856,-0.025395066,-0.06755704432725906,0.012471268884837627,-0.925592303276062,1001.5901,
2021.05.19 17:52:12,114.0,57.0,9.598106,4.733739,-24.304018,-0.19991398,0.718765,9.649406,0.0050411476,-0.016805995,-0.013712208,-0.07433480769395828,0.020714784041047096,-0.9472572207450867,1001.5902,
2021.05.19 17:52:12,114.0,57.0,11.118774,4.900111,-24.55071,-0.17015928,0.7226343,9.675163,-0.0038430055,-0.006445846,-9.5622195E-4,-0.07453971356153488,0.01758541166782379,-1.008788824081421,1001.5902,
2021.05.19 17:52:12,114.0,57.0,10.014198,5.6160946,-25.205553,-0.17710878,0.6783504,9.76186,0.006445748,-0.0102619575,0.0028376174,-0.06936696171760559,0.018140943720936775,-0.9143336415290833,1001.5902,
2021.05.19 17:52:12,114.0,57.0,9.9804,5.035078,-24.003447,-0.19000868,0.6823394,9.664786,-0.008445108,-0.0035720384,0.0111312345,-0.07047003507614136,0.01965736225247383,-0.95503830909729,1001.5902,
2021.05.19 17:52:12,114.0,57.0,10.996735,4.3471336,-25.388865,-0.16375232,0.67777413,9.66331,-0.018193081,5.669954E-4,0.018488308,-0.07001423090696335,0.0169441569596529,-1.0453752279281616,1001.59045,
2021.05.19 17:52:12,114.0,57.0,10.2181015,4.090001,-25.835993,-0.10807213,0.6818235,9.752788,-0.020617444,-0.0034341943,0.018706163,-0.06979279220104218,0.011080699972808361,-1.0355151891708374,1001.5906,
2021.05.19 17:52:12,114.0,57.0,9.097031,4.1790333,-24.900953,-0.087926,0.6705091,9.796482,-0.0097261,-0.0046590366,0.008884335,-0.06833454221487045,0.008975021541118622,-0.9859521389007568,1001.5906,
2021.05.19 17:52:12,114.0,57.0,9.649048,4.5761642,-25.194372,-0.11559886,0.6899218,9.6500025,-0.019353371,0.008835893,0.007045981,-0.07136791944503784,0.011978579685091972,-0.9726324081420898,1001.5906,
2021.05.19 17:52:12,114.0,57.0,9.534958,4.972246,-23.482431,-0.13979046,0.64696175,9.729182,-0.006674798,-1.3209958E-4,0.0070108143,-0.0663924440741539,0.014367172494530678,-0.9534961581230164,1001.5907,
2021.05.19 17:52:12,114.0,57.0,10.867897,5.0430174,-24.403196,-0.08908627,0.6214195,9.692586,-0.017501688,8.9632935E-4,0.018177534,-0.06402254104614258,0.009190917946398258,-1.0156959295272827,1001.5909,
2021.05.19 17:52:12,114.0,57.0,9.6961975,6.1145134,-24.857676,-0.13760625,0.63876146,9.715072,-0.021951586,0.00843058,0.0053246464,-0.06564847379922867,0.01416325569152832,-0.8789131045341492,1001.5914,
2021.05.19 17:52:12,114.0,57.0,9.327568,4.210541,-25.537867,-0.061398994,0.6403775,9.785084,-0.022088138,0.006683947,0.011650011,-0.06534978002309799,0.006274671293795109,-1.0010130405426025,1001.5914,
2021.05.19 17:52:12,114.0,57.0,9.522156,5.0998917,-24.544413,-0.076175354,0.66361433,9.798256,-0.01894446,-3.9632712E-4,0.011490263,-0.06762249767780304,0.007774222642183304,-0.9444257020950317,1001.5914,
2021.05.19 17:52:12,114.0,57.0,10.105392,4.2853575,-25.657412,-0.1464467,0.6552903,9.800767,0.012446261,-0.0021799281,0.008030683,-0.06675432622432709,0.0149412602186203,-1.0180186033248901,1001.59155,
2021.05.19 17:52:13,114.0,57.0,9.29406,4.606062,-23.711123,-0.07878371,0.5832035,9.672208,5.193108E-4,0.0028979739,0.0063824314,-0.060221925377845764,0.008145189844071865,-0.9856743812561035,1001.59204,
2021.05.19 17:52:13,114.0,57.0,9.927032,5.18293,-24.3622,-0.109935306,0.5571869,9.824882,-0.018426329,0.0059010154,0.003970169,-0.05664759874343872,0.011189011856913567,-0.9739358425140381,1001.59216,
2021.05.19 17:52:13,114.0,57.0,9.583,5.570162,-24.341997,-0.12571537,0.6245379,9.679167,0.012272966,-0.0054139653,-0.024697138,-0.06442919373512268,0.012987513095140457,-0.9146941304206848,1001.59235,
2021.05.19 17:52:13,114.0,57.0,9.45137,3.4151278,-24.303827,-0.13043252,0.706361,9.698512,2.7894916E-4,-0.01687723,-0.015296115,-0.07269696891307831,0.013447904027998447,-1.0543893575668335,1001.593,
2021.05.19 17:52:13,114.0,57.0,8.823013,7.5122185,-25.811895,-0.18973882,0.6732406,9.830796,0.0033961998,-0.06414393,0.06905302,-0.06836336106061935,0.01929805614054203,-0.731682300567627,1001.59344,
2021.05.19 17:52:13,114.0,57.0,9.679283,5.5225286,-24.743673,-0.12403578,0.6856362,9.73948,0.048481114,-0.07247716,0.101823606,-0.07027599215507507,0.0127346720546484,-0.9116044640541077,1001.59344,
2021.05.19 17:52:13,114.0,57.0,9.696281,4.3840113,-24.257074,0.18519549,0.66940737,9.840179,0.07881009,-0.078936234,0.06909582,-0.06791132688522339,-0.018818115815520287,-1.036433219909668,1001.5935,
2021.05.19 17:52:13,114.0,57.0,8.653145,4.676264,-25.871183,0.25827402,0.80628663,9.538392,-0.058623917,-0.0071781757,0.049406253,-0.08429943025112152,-0.027070699259638786,-0.9407904148101807,1001.5939,
