Time,X-cord,Y-cord,Mag_x,Mag_y,Mag_z,Acc_x,Acc_y,Acc_z,Gyro_x,Gyro_y,Gyro_z,Orn_x,Orn_y,Orn_z,Pressure,
2021.05.19 17:43:09,124.0,47.0,8.99556,0.869894,-20.732576,-0.13235307,1.3181479,10.064334,-0.010004279,-0.034781236,-0.037049845,-0.13021980226039886,0.013149945996701717,-1.1823137998580933,1001.4594,
2021.05.19 17:43:09,124.0,47.0,9.697189,1.8201208,-19.827665,-0.16383575,1.4336835,9.323443,0.0637695,0.07253723,-0.006787368,-0.15255358815193176,0.01757064275443554,-1.093227505683899,1001.4594,
2021.05.19 17:43:09,124.0,47.0,10.559135,2.159604,-19.52337,-0.253052,1.4322342,9.726632,-0.057318896,0.05404819,-0.024778703,-0.14614936709403992,0.026010537520051003,-1.1075557470321655,1001.4594,
2021.05.19 17:43:09,124.0,47.0,11.015205,2.184801,-20.87678,-0.031447455,1.2538912,9.847812,-0.011441269,-0.016435575,0.0197313,-0.1266447901725769,0.0031933337450027466,-1.1569573879241943,1001.4594,
2021.05.19 17:43:09,124.0,47.0,9.598068,1.7363129,-20.575232,-0.12065235,1.3371326,9.498981,-0.002863081,-0.03331748,-0.013518139,-0.1398358792066574,0.012700925581157207,-1.112654447555542,1001.4606,
2021.05.19 17:43:09,124.0,47.0,10.280998,1.2000599,-21.019335,-0.1587456,1.3228196,9.715682,-0.040267795,-0.01899951,0.017082786,-0.13530310988426208,0.01633765548467636,-1.1840426921844482,1001.4627,
2021.05.19 17:43:09,124.0,47.0,8.535782,1.1767416,-21.741774,-0.16291071,1.3230711,9.699886,-0.012740213,0.01715067,0.006712884,-0.13554519414901733,0.01679353602230549,-1.1034204959869385,1001.464,
2021.05.19 17:43:09,124.0,47.0,9.49218,1.9853582,-22.197245,-0.112755544,1.272834,9.730288,0.007550058,-0.012137142,0.0131955575,-0.13006435334682465,0.011587581597268581,-1.0861979722976685,1001.46423,
2021.05.19 17:43:10,124.0,47.0,9.26741,1.9757662,-21.255693,-0.14637382,1.3256682,9.534368,-0.0096389875,0.0058026616,-0.00718856,-0.13813920319080353,0.015351026318967342,-1.0691488981246948,1001.4649,
2021.05.19 17:43:10,124.0,47.0,8.50119,2.8317146,-19.537497,-0.17832816,1.2785672,9.641277,-0.027207222,0.03640807,-0.0035418204,-0.13182228803634644,0.01849421299993992,-0.9853689074516296,1001.4651,
2021.05.19 17:43:10,124.0,47.0,10.652176,1.7690783,-20.974104,-0.1909986,1.2625818,9.754987,-0.02991944,0.014350368,-0.0059845974,-0.12868943810462952,0.019577084109187126,-1.158993124961853,1001.4652,
2021.05.19 17:43:10,124.0,47.0,10.654793,1.4468803,-20.974081,-0.15319218,1.2908982,9.59651,-0.013621393,-0.006717319,0.00954582,-0.133697971701622,0.015961965546011925,-1.179918646812439,1001.46545,
2021.05.19 17:43:10,124.0,47.0,9.272003,0.109874725,-20.314795,-0.12123691,1.2173687,9.662051,-0.031912267,0.0016295187,0.010104539,-0.12532465159893036,0.012547082267701626,-1.283646821975708,1001.46564,
2021.05.19 17:43:10,124.0,47.0,9.009117,1.3602104,-22.252306,-0.05891784,1.2352705,9.736743,-0.036876023,0.0017344855,-0.017061464,-0.12619048357009888,0.006051009055227041,-1.1327409744262695,1001.46576,
2021.05.19 17:43:10,124.0,47.0,9.925636,1.3814545,-20.465422,-0.21356528,1.2990326,9.828538,0.0018956113,-0.009921346,-0.004061849,-0.13137716054916382,0.02172567881643772,-1.1644951105117798,1001.46576,
2021.05.19 17:43:10,124.0,47.0,10.122505,2.4070902,-21.829199,-0.2232128,1.1659032,9.64577,0.013092994,-0.008328235,0.0013316167,-0.12025653570890427,0.023136872798204422,-1.0883184671401978,1001.46564,
2021.05.19 17:43:10,124.0,47.0,9.35099,2.288395,-21.036856,-0.1609445,1.19161,9.578305,-1.4938507E-4,0.003203829,0.0013294308,-0.12375395745038986,0.016801444813609123,-1.0731959342956543,1001.46545,
2021.05.19 17:43:10,124.0,47.0,9.885643,2.3986883,-21.339445,-0.13593252,1.1964947,9.724679,-0.02270591,-6.060554E-4,0.01037588,-0.12240982800722122,0.013977187685668468,-1.0897955894470215,1001.46545,
2021.05.19 17:43:10,124.0,47.0,9.813377,1.6821318,-21.286165,-0.16054636,1.225861,9.747219,-0.0016407997,-0.00659657,-2.2045244E-4,-0.125091552734375,0.016469502821564674,-1.1403305530548096,1001.46545,
2021.05.19 17:43:10,124.0,47.0,10.109428,1.9987717,-20.336843,-0.22839749,1.228763,9.650798,0.012364311,0.004549246,0.0013693408,-0.12660595774650574,0.02366175875067711,-1.1266645193099976,1001.46545,
2021.05.19 17:43:10,124.0,47.0,9.969299,2.2566032,-21.143007,-0.17654192,1.187344,9.633357,-4.694818E-4,0.0020047985,0.016602606,-0.12261450290679932,0.018324054777622223,-1.10236656665802,1001.46545,
2021.05.19 17:43:11,124.0,47.0,10.107788,0.9987736,-21.477053,-0.16602407,1.2258013,9.618348,-7.306733E-4,0.0041356245,0.0036665765,-0.12674205005168915,0.017259469255805016,-1.2051711082458496,1001.46545,
2021.05.19 17:43:11,124.0,47.0,9.329063,1.1882849,-20.753996,-0.1813104,1.269174,9.650435,-0.008683552,-0.011618506,0.012372574,-0.1307414174079895,0.018785584717988968,-1.1587605476379395,1001.46545,
2021.05.19 17:43:11,124.0,47.0,10.321236,1.8892212,-21.1393,-0.15602604,1.2340369,9.729982,0.0032889661,-0.020517543,0.006392703,-0.12613870203495026,0.016034219413995743,-1.142733097076416,1001.4654,
2021.05.19 17:43:11,124.0,47.0,8.39473,0.9968233,-21.18173,-0.18999644,1.2247992,9.643062,0.008263428,-0.006663292,-7.533906E-4,-0.12631279230117798,0.019700367003679276,-1.1387550830841064,1001.4651,
2021.05.19 17:43:11,124.0,47.0,9.800659,1.2177134,-21.57755,-0.14232358,1.2136441,9.620229,-0.0014358256,-0.0076807113,0.0014796075,-0.12547890841960907,0.014793120324611664,-1.178141713142395,1001.4649,
2021.05.19 17:43:11,124.0,47.0,10.285454,2.1887941,-21.215422,-0.12885393,1.2027106,9.722589,-0.013726887,-0.0020028378,0.0013049641,-0.12306677550077438,0.01325227227061987,-1.1239724159240723,1001.4649,
2021.05.19 17:43:11,124.0,47.0,10.827423,1.2745523,-21.97682,-0.17039402,1.2506524,9.6605,-0.0042636283,-0.006238545,-0.011022669,-0.12872456014156342,0.017636392265558243,-1.1957556009292603,1001.4649,
2021.05.19 17:43:11,124.0,47.0,10.179878,1.53337,-21.084139,-0.13831258,1.2142081,9.683702,-0.00925151,-0.0032664856,-0.0027542522,-0.12472319602966309,0.01428205519914627,-1.1720069646835327,1001.4649,
2021.05.19 17:43:11,124.0,47.0,10.460968,0.27907944,-20.5645,-0.14606744,1.2092361,9.705476,-0.010708682,0.0026636438,-0.0068896245,-0.12394052743911743,0.015048867091536522,-1.2981278896331787,1001.4649,
2021.05.19 17:43:11,124.0,47.0,10.70546,1.9109325,-21.577353,-0.1786027,1.2064586,9.667985,-0.005339031,-0.002701346,-0.0076881954,-0.12412630766630173,0.018471520394086838,-1.151627540588379,1001.4649,
2021.05.19 17:43:11,124.0,47.0,9.956497,3.5329628,-20.752836,-0.17088199,1.2465912,9.582852,-0.0086074555,-0.0032387094,-0.007260128,-0.12933886051177979,0.017830168828368187,-0.9964476823806763,1001.4649,
2021.05.19 17:43:11,124.0,47.0,9.145569,0.9878874,-20.574564,-0.114523895,1.1826125,9.771655,-0.02319501,-0.0063954885,0.011440368,-0.1204308494925499,0.011719472706317902,-1.1996448040008545,1001.4649,
2021.05.19 17:43:11,124.0,47.0,10.266396,2.1570206,-20.475214,-0.09849464,1.1639223,9.750943,-0.007336635,-0.013720368,-0.001992343,-0.11879698187112808,0.010100693441927433,-1.1434803009033203,1001.4649,
2021.05.19 17:43:11,124.0,47.0,9.648933,2.2559404,-21.19457,-0.14727786,1.189102,9.573959,0.0036674298,-0.0059270044,-0.013832029,-0.12355443090200424,0.015381958335638046,-1.0894700288772583,1001.4649,
2021.05.19 17:43:12,124.0,47.0,8.830551,2.4128323,-21.359755,-0.12678377,1.1778377,9.743111,-0.020473458,5.548254E-4,-0.010463094,-0.12029542028903961,0.013011923991143703,-1.0441488027572632,1001.46466,
2021.05.19 17:43:12,124.0,47.0,9.062325,2.7069616,-20.37205,-0.13267268,1.1834353,9.697598,-0.0058367485,0.0035077774,-0.013279486,-0.1214221715927124,0.013680129311978817,-1.0388175249099731,1001.46466,
2021.05.19 17:43:12,124.0,47.0,8.933792,0.6937752,-21.664896,-0.14922883,1.1816167,9.690143,-0.005057793,-6.1549246E-5,-0.010688875,-0.12132676690816879,0.015398846939206123,-1.2016240358352661,1001.4646,
2021.05.19 17:43:12,124.0,47.0,9.270889,2.0203342,-21.704176,-0.12423567,1.1430548,9.67149,-0.010438889,-7.0370187E-4,-0.008588884,-0.11763273924589157,0.012844850309193134,-1.1007893085479736,1001.46423,
2021.05.19 17:43:12,124.0,47.0,9.266632,3.2259436,-20.504614,-0.16476811,1.1287338,9.731641,-0.009256722,0.004754893,-0.01189053,-0.11545361578464508,0.01692955754697323,-1.0113581418991089,1001.464,
2021.05.19 17:43:12,124.0,47.0,10.382805,4.179002,-21.041834,-0.19635944,1.1598243,9.651767,-0.008361185,-0.008775154,-0.007386389,-0.1195690780878067,0.020341597497463226,-0.9794144630432129,1001.464,
2021.05.19 17:43:12,124.0,47.0,8.813698,3.0880337,-21.066477,-0.13254626,1.1516464,9.697103,-0.010700295,0.001066217,0.00523184,-0.11819729208946228,0.01366779487580061,-0.9924898743629456,1001.4639,
2021.05.19 17:43:12,124.0,47.0,10.721039,2.648179,-20.90397,-0.115525536,1.1100229,9.802587,-0.0093584135,0.002088226,0.007748443,-0.11274966597557068,0.01178466435521841,-1.1256190538406372,1001.4635,
2021.05.19 17:43:12,124.0,47.0,9.0405655,1.8389902,-21.300596,-0.15411443,1.1251894,9.692313,0.011148788,-0.0071432325,-6.426377E-4,-0.11555907875299454,0.01589934527873993,-1.1118855476379395,1001.46344,
2021.05.19 17:43:12,124.0,47.0,9.430901,2.1042814,-21.429842,-0.14242865,1.1384791,9.619175,0.006574475,-0.0049434532,0.0017768103,-0.11779434978961945,0.014805661514401436,-1.1011954545974731,1001.4631,
2021.05.19 17:43:12,124.0,47.0,9.1978,2.5871468,-21.861452,-0.08413347,1.117234,9.720921,-0.0077848528,-0.0033229245,0.002310244,-0.11442456394433975,0.008654670789837837,-1.0577229261398315,1001.4626,
2021.05.19 17:43:12,124.0,47.0,9.334084,2.5067816,-20.252932,-0.08795784,1.1343951,9.744121,-6.469919E-4,-0.005123411,-0.013531262,-0.11589203029870987,0.009026514366269112,-1.08415949344635,1001.4626,
2021.05.19 17:43:12,124.0,47.0,9.410919,2.7800684,-20.82244,-0.18712068,1.2025414,9.6489,0.0072988607,-0.013344545,-0.016936155,-0.1239674985408783,0.019390523433685303,-1.0342837572097778,1001.46246,
2021.05.19 17:43:12,124.0,47.0,8.560013,1.160903,-20.75696,-0.14652878,1.1482815,9.682238,-0.0016220631,-0.007216786,-0.002082935,-0.11803192645311356,0.015132617205381393,-1.1578832864761353,1001.46216,
2021.05.19 17:43:12,124.0,47.0,9.824127,1.7811127,-21.036127,-0.13557017,1.1105375,9.727727,-0.006432851,-0.0059756213,-0.0045762365,-0.11365901678800583,0.013935566879808903,-1.1582690477371216,1001.4621,
2021.05.19 17:43:13,124.0,47.0,10.928894,2.5888844,-21.975336,-0.13545807,1.1711015,9.614045,4.4008845E-4,-0.0062789307,-0.0058293897,-0.12120243161916733,0.014088669791817665,-1.111975908279419,1001.4621,
2021.05.19 17:43:13,124.0,47.0,9.208832,2.103488,-19.946226,-0.13001287,1.2032682,9.727832,-9.171339E-5,-0.0050469274,0.0028662826,-0.12305737286806107,0.013364245183765888,-1.1000093221664429,1001.4621,
2021.05.19 17:43:13,124.0,47.0,9.90377,1.997364,-21.245916,-0.14817554,1.1739075,9.78029,0.0057840007,-0.009518825,0.0070365923,-0.11944283545017242,0.01514926552772522,-1.1289255619049072,1001.4617,
2021.05.19 17:43:13,124.0,47.0,9.588058,2.1986694,-21.480047,-0.05395864,1.1380273,9.596752,-7.0494926E-4,-0.0070949467,0.01630979,-0.1180315688252449,0.005622535012662411,-1.1083701848983765,1001.46155,
2021.05.19 17:43:13,124.0,47.0,8.581711,2.2490158,-20.77339,-0.03508776,1.1289457,9.72996,-0.016679864,-0.013545323,0.007625503,-0.11551053822040558,0.003606140846386552,-1.0721973180770874,1001.46155,
2021.05.19 17:43:13,124.0,47.0,9.247917,2.810896,-21.43025,-0.105381854,1.1871847,9.681485,-0.0016073962,-0.005484681,-0.013986148,-0.12200794368982315,0.010884455405175686,-1.0302295684814453,1001.46155,
2021.05.19 17:43:13,124.0,47.0,9.946289,3.570509,-21.698877,-0.18567462,1.1712016,9.646156,-0.00356998,-0.002245466,-0.010977008,-0.12080281972885132,0.019246183335781097,-0.9951939582824707,1001.46136,
2021.05.19 17:43:13,124.0,47.0,9.097618,3.513648,-22.022604,-0.07247391,1.0943352,9.658521,-0.0086657535,-0.001776957,0.0036448888,-0.11281827837228775,0.007503483444452286,-0.9809771180152893,1001.4613,
2021.05.19 17:43:13,124.0,47.0,9.294563,2.1885424,-20.704062,-0.10154727,1.1322285,9.656997,-0.015381246,-0.008413313,-0.0056871865,-0.11670514196157455,0.010515022091567516,-1.1020920276641846,1001.4611,
2021.05.19 17:43:13,124.0,47.0,11.042366,2.9848852,-21.565485,-0.12780261,1.1814541,9.668046,-0.015941527,-0.0031509835,0.0058129146,-0.12158852815628052,0.013218303211033344,-1.091080904006958,1001.46094,
2021.05.19 17:43:13,124.0,47.0,9.167465,2.054288,-20.462847,-0.10747603,1.1243945,9.670613,0.011506424,-0.009941061,0.010241101,-0.11574240773916245,0.011113215237855911,-1.1120333671569824,1001.46075,
2021.05.19 17:43:13,124.0,47.0,9.988258,2.6133041,-21.865934,-0.054522585,1.0744085,9.587051,0.0045513967,-0.0075321905,0.012929313,-0.11160126328468323,0.005687045399099588,-1.098535180091858,1001.4604,
2021.05.19 17:43:13,124.0,47.0,10.388321,2.2145023,-21.321539,-0.066991635,1.1058999,9.73449,-0.016331088,-0.0017945219,0.0022902978,-0.11311870068311691,0.006881775334477425,-1.1474162340164185,1001.46027,
2021.05.19 17:43:14,124.0,47.0,10.315926,1.4977827,-21.38568,-0.0946185,1.1454307,9.726151,-0.0062805964,-0.0062916433,-0.0032095148,-0.11722266674041748,0.00972795020788908,-1.1939362287521362,1001.45935,
2021.05.19 17:43:14,124.0,47.0,7.2121887,2.1907816,-21.76023,-0.096924484,1.1332392,9.724154,-0.004022032,-0.002265947,4.5407377E-4,-0.11600955575704575,0.00996706448495388,-0.9788759350776672,1001.45935,
2021.05.19 17:43:14,124.0,47.0,8.757896,1.8508644,-21.685724,-0.056257624,1.0979525,9.703481,-2.7963892E-5,-0.003726182,-7.938603E-4,-0.11266928166151047,0.0057976096868515015,-1.1102179288864136,1001.4593,
2021.05.19 17:43:14,124.0,47.0,9.232941,2.8138723,-21.042067,-0.0936329,1.100696,9.66229,-0.010255919,-0.008392934,-0.006324802,-0.11342243105173111,0.009690246544778347,-1.0493046045303345,1001.4589,
2021.05.19 17:43:14,124.0,47.0,9.9301605,1.3897247,-20.883013,-0.10928729,1.1363717,9.650215,-0.015653826,-0.0064691054,0.0014894432,-0.11720886081457138,0.011324371211230755,-1.194027304649353,1001.4584,
2021.05.19 17:43:14,124.0,47.0,8.394302,1.9282293,-21.045214,-0.06679165,1.0758697,9.716986,-3.4654187E-4,-0.0066925087,-0.0020284872,-0.11026880145072937,0.006873592734336853,-1.0961527824401855,1001.4575,
2021.05.19 17:43:14,124.0,47.0,8.884171,2.589614,-22.28745,-0.12139859,1.0991324,9.654336,-0.0031761487,-0.0024722181,-0.007961137,-0.11335160583257675,0.012573852203786373,-1.0351423025131226,1001.4564,
2021.05.19 17:43:14,124.0,47.0,8.613113,2.774331,-20.767633,-0.093038715,1.1190809,9.67141,-0.0065673487,0.0091172345,-0.002633328,-0.11519263684749603,0.009619677439332008,-1.0212862491607666,1001.45636,
2021.05.19 17:43:14,124.0,47.0,9.509186,2.167282,-21.334959,-0.057236493,1.094957,9.7714,-4.7041406E-4,-0.004418411,-0.00533286,-0.11158990114927292,0.0058574858121573925,-1.120556354522705,1001.45636,
2021.05.19 17:43:14,124.0,47.0,9.829788,2.7892618,-23.112246,-0.11609783,1.1256291,9.682038,6.612687E-4,-0.0037025549,0.001789723,-0.11573167890310287,0.01199047826230526,-1.052075743675232,1001.45636,
2021.05.19 17:43:14,124.0,47.0,8.733871,2.704255,-22.449465,-0.09329482,1.1031256,9.680545,-0.0013663529,-0.0078376755,0.0030123624,-0.11345818638801575,0.009637054055929184,-1.0194320678710938,1001.45636,
2021.05.19 17:43:14,124.0,47.0,9.965981,2.6236887,-21.580675,-0.08410258,1.0927016,9.636705,-0.009536764,-0.008986602,0.004406885,-0.11290302872657776,0.00872709508985281,-1.0941908359527588,1001.45636,
2021.05.19 17:43:14,124.0,47.0,9.410416,2.390851,-20.87634,-0.07288072,1.122728,9.770427,-0.014402331,-0.0044215606,0.0018616947,-0.11440587788820267,0.0074591804295778275,-1.095194935798645,1001.45636,
2021.05.19 17:43:15,124.0,47.0,9.187401,2.1595392,-20.83272,-0.028454995,1.0802449,9.798726,0.0018911782,-0.009244365,0.0056775366,-0.10979955643415451,0.002903940388932824,-1.1187107563018799,1001.45636,
2021.05.19 17:43:15,124.0,47.0,10.424965,2.3509083,-21.017836,-0.10228435,1.1238326,9.634487,0.014473736,-0.012547789,-0.006369544,-0.11611559987068176,0.010616081766784191,-1.1323840618133545,1001.45636,
2021.05.19 17:43:15,124.0,47.0,10.228287,3.438861,-20.455801,-0.021842465,1.0839211,9.695628,0.0044590514,-0.001870278,-0.008486339,-0.11133226752281189,0.0022528120316565037,-1.0609965324401855,1001.45636,
2021.05.19 17:43:15,124.0,47.0,9.622017,1.9821348,-22.030954,-0.045778174,1.0673466,9.753789,0.009266262,-6.3445565E-5,-0.010677729,-0.10899404436349869,0.004693338647484779,-1.1402443647384644,1001.45636,
2021.05.19 17:43:15,124.0,47.0,8.871727,2.602231,-22.293478,-0.041189075,1.0980908,9.700077,0.005057348,0.004268033,-0.0026661134,-0.11272343248128891,0.004246236756443977,-1.0446194410324097,1001.45636,
2021.05.19 17:43:15,124.0,47.0,9.719894,3.6658602,-22.133253,-0.0455483,1.1187072,9.766732,0.002300252,-0.0014457951,-0.0076749804,-0.11404436826705933,0.0046635838225483894,-1.0006515979766846,1001.45636,
2021.05.19 17:43:15,124.0,47.0,9.921402,1.8700819,-22.539213,-0.10924708,1.1204109,9.631248,0.010529976,-6.2378973E-4,-0.009864591,-0.11580288410186768,0.011342495679855347,-1.1372084617614746,1001.45636,
2021.05.19 17:43:15,124.0,47.0,9.522858,2.383256,-20.917994,-0.10065559,1.1362394,9.679981,3.637605E-4,0.0037672354,-0.0031998868,-0.11683939397335052,0.010397950187325478,-1.093106985092163,1001.45636,
2021.05.19 17:43:15,124.0,47.0,8.85836,2.161312,-21.076567,-0.08377898,1.1159606,9.738701,0.0014663341,0.004044232,7.542558E-4,-0.11408846080303192,0.008602472953498363,-1.087354063987732,1001.45636,
2021.05.19 17:43:15,124.0,47.0,8.394394,1.7880516,-21.911955,-0.17211695,1.1831454,9.655899,-0.0040195286,0.0044732867,0.020313896,-0.1219039186835289,0.017823169007897377,-1.0626254081726074,1001.45636,
2021.05.19 17:43:15,124.0,47.0,8.461922,2.0063982,-23.15616,-0.02584225,1.1394275,9.691616,0.0030889635,-0.0019736716,0.0041448767,-0.11703071743249893,0.0026664475444704294,-1.0607597827911377,1001.45654,
2021.05.19 17:43:15,124.0,47.0,9.820168,2.4890404,-22.35945,-0.032697894,1.1335968,9.674485,-0.001257895,-7.4626517E-4,-0.0014137723,-0.1166413202881813,0.003379794070497155,-1.0903937816619873,1001.4568,
2021.05.19 17:43:15,124.0,47.0,9.794601,1.992115,-21.044882,-0.08622912,1.1326162,9.739026,0.011003091,-0.0012474445,9.859074E-4,-0.1157720759510994,0.008853746578097343,-1.1396540403366089,1001.4572,
2021.05.19 17:43:16,124.0,47.0,9.190773,2.2782087,-22.288645,-0.01788156,1.1152993,9.618314,7.264187E-4,-0.014610708,0.010580318,-0.11544006317853928,0.001859113690443337,-1.0848757028579712,1001.4573,
2021.05.19 17:43:16,124.0,47.0,9.74498,0.92992973,-20.749308,-0.040502165,1.1260046,9.702651,-0.010706057,0.012334164,-0.015213676,-0.11553341150283813,0.004174315836280584,-1.2396749258041382,1001.4573,
2021.05.19 17:43:16,124.0,47.0,8.85968,3.023346,-21.28486,-0.18648958,1.2145201,9.691276,-0.0041799685,0.01966329,-0.023955649,-0.12464818358421326,0.019240664318203926,-0.9799726009368896,1001.45734,
2021.05.19 17:43:16,124.0,47.0,9.342819,1.8167171,-21.746138,-0.15481432,1.1087389,9.637463,-0.008786708,-6.865732E-4,0.012098363,-0.11452648788690567,0.016062423586845398,-1.1241451501846313,1001.4574,
2021.05.19 17:43:16,124.0,47.0,11.396889,1.1452818,-21.573656,-0.15723915,1.0551772,9.66297,-0.018276744,-0.013436557,0.013178078,-0.10875280201435089,0.01627090759575367,-1.263912558555603,1001.4575,
2021.05.19 17:43:16,124.0,47.0,8.924332,2.3970327,-21.976053,-0.18605085,1.1863565,9.658235,-0.0055869482,-0.0049580955,0.028842185,-0.12219899892807007,0.019261058419942856,-1.0322185754776,1001.4575,
2021.05.19 17:43:16,124.0,47.0,9.783104,2.1811628,-21.493624,-0.054316014,1.1010689,9.828763,0.008356476,-0.01784831,0.008361183,-0.11155835539102554,0.005526174791157246,-1.1293824911117554,1001.4583,
2021.05.19 17:43:16,124.0,47.0,8.596474,2.7316008,-22.025648,-0.075213395,1.1358641,9.642149,0.02266148,-0.025841136,0.0044164616,-0.11725800484418869,0.007800322491675615,-1.0094596147537231,1001.4584,
2021.05.19 17:43:16,124.0,47.0,9.640587,2.5497723,-21.843267,-0.048497748,1.1401037,9.642886,0.0079894615,-0.026533164,-0.0024889857,-0.11768480390310287,0.005029338411986828,-1.0792477130889893,1001.4586,
2021.05.19 17:43:16,124.0,47.0,8.418503,2.4279385,-22.404486,-0.029401382,1.1501783,9.707852,-0.004251967,-0.02047865,-0.005317514,-0.1179288774728775,0.003028609324246645,-1.0268874168395996,1001.4587,
2021.05.19 17:43:16,124.0,47.0,10.850052,2.3427296,-21.299265,-0.03767367,1.1763369,9.737297,0.001655136,-0.02784919,-0.0046462826,-0.12022382766008377,0.003868987550958991,-1.1448615789413452,1001.4587,
2021.05.19 17:43:16,124.0,47.0,9.50898,2.4673176,-20.728865,-0.0052810744,1.1717477,9.702325,0.01149489,-0.030259002,-0.0030611276,-0.12018769234418869,5.443101981654763E-4,-1.0915507078170776,1001.4588,
2021.05.19 17:43:16,124.0,47.0,8.580856,2.731062,-22.711061,-0.039378345,1.1844202,9.728328,0.03970573,-0.052404013,0.008493844,-0.121152363717556,0.004047779832035303,-0.9992197155952454,1001.45886,
2021.05.19 17:43:16,124.0,47.0,8.060333,2.3386612,-21.429922,0.08809348,1.1325635,9.93081,0.18603054,-0.13695416,-0.053048227,-0.11355038732290268,-0.00887049175798893,-1.0489856004714966,1001.459,
