Time,X-cord,Y-cord,Mag_x,Mag_y,Mag_z,Acc_x,Acc_y,Acc_z,Gyro_x,Gyro_y,Gyro_z,Orn_x,Orn_y,Orn_z,Pressure,
2021.02.09 08:30:15,61.0,24.0,23.279999,3.36,-32.28,-0.5626374,0.06943185,9.433155,0.16432275,0.099571034,-0.16310102,-0.00734721589833498,0.05957408994436264,-1.403182029724121,1023.2947,
2021.02.09 08:30:15,61.0,24.0,23.039999,3.4199998,-32.16,-0.1388637,0.23223756,8.858546,0.069027774,-0.05131268,-0.015271631,-0.02620699442923069,0.015674391761422157,-1.383479118347168,1023.2947,
2021.02.09 08:30:15,61.0,24.0,22.859999,3.36,-32.219997,0.33279404,0.35194764,9.296685,-0.11362094,-0.13561209,-0.009773844,-0.03781505674123764,-0.03578178212046623,-1.383662223815918,1023.2947,
2021.02.09 08:30:15,61.0,24.0,22.56,3.1799998,-32.46,-0.1604115,0.21787235,9.622296,-0.19914207,-0.10262536,-0.032986723,-0.022635437548160553,0.016669269651174545,-1.39448881149292,1023.2947,
2021.02.09 08:30:15,61.0,24.0,22.619999,3.1799998,-32.46,0.12449849,0.23223756,10.3932295,-0.16432275,-0.07941248,0.02076942,-0.02233976125717163,-0.011978233233094215,-1.4029567241668701,1023.29663,
2021.02.09 08:30:15,61.0,24.0,22.74,3.48,-32.52,0.19632454,0.2753332,9.742006,0.016493361,-0.051923547,-0.018325957,-0.028249219059944153,-0.02014964632689953,-1.3855191469192505,1023.29663,
2021.02.09 08:30:15,61.0,24.0,22.5,3.6,-32.7,-0.009576807,0.34955344,9.3661175,0.018325957,-0.050701816,-0.025045475,-0.037303730845451355,0.0010224945144727826,-1.3595480918884277,1023.29663,
2021.02.09 08:30:15,61.0,24.0,22.68,3.72,-32.76,0.16280572,0.31364042,9.871294,-0.04520403,0.01038471,0.007941248,-0.03175798058509827,-0.016491349786520004,-1.369143009185791,1023.29663,
2021.02.09 08:30:15,61.0,24.0,22.68,3.8999999,-32.76,0.06464344,0.22744916,9.631873,-0.03176499,0.019547688,-0.02565634,-0.023609299212694168,-0.006711308378726244,-1.369674801826477,1023.30054,
2021.02.09 08:30:15,61.0,24.0,22.5,3.78,-32.88,0.059855044,0.24899697,9.526528,-0.05131268,0.032375857,-0.027488936,-0.02613075263798237,-0.006282903254032135,-1.369471788406372,1023.30054,
2021.02.09 08:30:15,61.0,24.0,23.1,3.84,-32.399998,0.1436521,0.2633622,9.856929,-0.062308256,0.018325957,-0.02321288,-0.026709293946623802,-0.0145726865157485,-1.374180555343628,1023.30054,
2021.02.09 08:30:15,61.0,24.0,23.46,3.48,-32.04,-0.107739076,0.32321724,9.519346,-0.07391469,0.010995574,-0.05681047,-0.033938512206077576,0.011317424476146698,-1.3752775192260742,1023.30054,
2021.02.09 08:30:15,61.0,24.0,23.76,3.06,-32.46,-0.17956513,0.33279404,9.782708,-0.09040806,-0.01160644,-0.03359759,-0.033999763429164886,0.018353300169110298,-1.3923923969268799,1023.3064,
2021.02.09 08:30:15,61.0,24.0,23.82,3.06,-32.04,-0.21068975,0.31603462,9.967062,-0.05009095,0.008552114,-0.004276057,-0.03169020637869835,0.02113545499742031,-1.3958611488342285,1023.3064,
2021.02.09 08:30:15,61.0,24.0,24.18,3.0,-32.28,-0.1604115,0.22266077,9.80665,0.030543262,0.045814894,0.015882496,-0.022698143497109413,0.016355963423848152,-1.4139174222946167,1023.3064,
2021.02.09 08:30:15,61.0,24.0,24.359999,2.9399998,-32.219997,-0.0023942017,0.22026655,9.56723,-0.004276057,0.030543262,0.027488936,-0.023018954321742058,2.502502466086298E-4,-1.4207749366760254,1023.3064,
2021.02.09 08:30:15,61.0,24.0,23.58,2.9399998,-31.74,-0.031124622,0.17477672,9.94312,-0.023823744,-0.009162978,0.01038471,-0.017575757578015327,0.003130256896838546,-1.4228817224502563,1023.302,
2021.02.09 08:30:15,61.0,24.0,23.64,2.46,-32.219997,-0.10295067,0.19871874,9.557653,0.032986723,0.022602014,0.012217305,-0.020787382498383522,0.010771125555038452,-1.4370259046554565,1023.302,
2021.02.09 08:30:15,61.0,24.0,23.58,2.6399999,-32.04,-0.047884032,0.272939,9.583989,0.01038471,0.013439035,0.005497787,-0.028470590710639954,0.004996211268007755,-1.4201778173446655,1023.302,
2021.02.09 08:30:15,61.0,24.0,23.519999,3.12,-32.28,-0.19632454,0.25378537,9.770737,-0.021380283,0.0,0.0012217305,-0.0259629487991333,0.020090410485863686,-1.39893639087677,1023.302,
2021.02.09 08:30:15,61.0,24.0,24.48,3.1799998,-32.219997,-0.11492168,0.28491,9.861717,0.017104227,0.0036651916,0.007941248,-0.028880512341856956,0.011652786284685135,-1.4016096591949463,1023.3025,
2021.02.09 08:30:15,61.0,24.0,24.42,3.24,-31.8,-0.06703765,0.28491,9.593566,0.040927973,0.0036651916,0.018325957,-0.029688576236367226,0.006987657863646746,-1.3994333744049072,1023.3025,
2021.02.09 08:30:15,61.0,24.0,24.18,3.12,-31.98,-0.08379706,0.25378537,9.710882,0.013439035,-0.019547688,0.02565634,-0.026127204298973083,0.00862897653132677,-1.40662682056427,1023.3025,
2021.02.09 08:30:15,61.0,24.0,23.76,3.12,-31.92,-0.062249243,0.33758244,9.888053,0.040317107,-0.029932396,0.027488936,-0.03412650525569916,0.006295316386967897,-1.393862009048462,1023.3025,
2021.02.09 08:30:15,61.0,24.0,23.34,3.06,-31.859999,-0.033518825,0.39025488,9.440337,0.030543262,-0.002443461,0.028710667,-0.04131529852747917,0.00355058116838336,-1.384545087814331,1023.2964,
2021.02.09 08:30:16,61.0,24.0,23.58,3.24,-32.28,-0.14844051,0.34955344,9.837775,-0.02076942,-0.014660766,0.02076942,-0.0355127789080143,0.01508768368512392,-1.382641077041626,1023.2964,
2021.02.09 08:30:16,61.0,24.0,23.46,3.06,-31.679998,0.038307227,0.39983168,9.531317,0.0061086523,0.050701816,0.020158553,-0.04192434251308441,-0.004019069019705057,-1.3871471881866455,1023.2964,
2021.02.09 08:30:16,61.0,24.0,23.82,3.06,-31.8,-0.038307227,0.32561144,10.0341,-0.040927973,-0.03359759,0.0018325958,-0.03243887051939964,0.003817685879766941,-1.3997836112976074,1023.2964,
2021.02.09 08:30:16,61.0,24.0,24.3,3.06,-31.98,-0.088585466,0.33279404,9.662998,0.03176499,0.01282817,0.004276057,-0.03442498669028282,0.009167236275970936,-1.3989461660385132,1023.2949,
2021.02.09 08:30:16,61.0,24.0,24.119999,3.36,-31.859999,-0.16280572,0.24181437,9.682152,0.013439035,-0.017715093,0.012217305,-0.02496655285358429,0.016813451424241066,-1.3960018157958984,1023.2949,
2021.02.09 08:30:16,61.0,24.0,24.24,3.48,-32.04,-0.0023942017,0.34715924,9.667787,-0.004276057,-0.009162978,0.037873644,-0.03589344397187233,2.476473164279014E-4,-1.3820921182632446,1023.2949,
2021.02.09 08:30:16,61.0,24.0,24.119999,3.1799998,-31.92,-0.02873042,0.33279404,9.744401,-0.023823744,-0.009162978,0.034208454,-0.034138914197683334,0.002948394510895014,-1.3949042558670044,1023.2949,
2021.02.09 08:30:16,61.0,24.0,24.0,3.36,-32.219997,0.0047884034,0.34476504,9.768343,-0.02687807,-0.01160644,0.034208454,-0.035279467701911926,-4.901959910057485E-4,-1.385810375213623,1023.2905,
2021.02.09 08:30:16,61.0,24.0,23.939999,2.9399998,-32.1,0.021547815,0.30885202,9.868899,0.0,-0.014660766,0.017104227,-0.031285203993320465,-0.0021834024228155613,-1.4081066846847534,1023.2905,
2021.02.09 08:30:16,61.0,24.0,24.0,2.8799999,-32.34,-0.023942016,0.32561144,9.718064,0.02076942,-0.01282817,0.017104227,-0.03349316120147705,0.002463656011968851,-1.4065988063812256,1023.2905,
2021.02.09 08:30:16,61.0,24.0,23.939999,3.0,-32.46,0.033518825,0.33997664,9.64145,-0.017104227,-0.01282817,0.007941248,-0.03524716570973396,-0.0034765193704515696,-1.4003814458847046,1023.2905,
2021.02.09 08:30:16,61.0,24.0,24.0,2.6399999,-32.7,-0.09816227,0.28491,9.861717,-0.02443461,-0.02443461,0.007941248,-0.02888103947043419,0.009953543543815613,-1.4202944040298462,1023.29004,
2021.02.09 08:30:16,61.0,24.0,24.0,2.52,-32.579998,-0.007182605,0.31124622,9.715671,0.01038471,0.0,0.017715093,-0.03202452138066292,7.392802508547902E-4,-1.423290729522705,1023.29004,
2021.02.09 08:30:16,61.0,24.0,23.76,2.58,-32.82,0.02873042,0.32321724,9.706094,-0.014049901,-0.01160644,0.0036651916,-0.03328799828886986,-0.002960030920803547,-1.418219804763794,1023.29004,
2021.02.09 08:30:16,61.0,24.0,24.0,2.58,-32.82,0.05746084,0.32321724,9.876082,-0.015882496,-0.010995574,-0.002443461,-0.03271504119038582,-0.005818116012960672,-1.4211395978927612,1023.29004,
2021.02.09 08:30:16,61.0,24.0,23.88,2.6399999,-32.28,0.033518825,0.33758244,9.694122,0.015271631,0.007330383,-0.014049901,-0.03480914235115051,-0.0034576302859932184,-1.415381908416748,1023.2971,
2021.02.09 08:30:16,61.0,24.0,24.06,2.9399998,-32.1,0.055066638,0.29209262,9.610326,-0.032986723,-0.0036651916,-0.020158553,-0.030383771285414696,-0.005729882512241602,-1.4109089374542236,1023.2971,
2021.02.09 08:30:16,61.0,24.0,24.24,3.24,-32.04,-0.035913024,0.2777274,10.0341,-0.019547688,0.004886922,-0.03176499,-0.02767111547291279,0.003579082665964961,-1.4013450145721436,1023.2971,
2021.02.09 08:30:16,61.0,24.0,24.0,3.06,-32.04,-0.047884032,0.29927522,9.617508,0.009162978,0.017715093,-0.03359759,-0.031107328832149506,0.00497879832983017,-1.402165174484253,1023.2971,
2021.02.09 08:30:16,61.0,24.0,23.64,2.9399998,-32.28,-0.04309563,0.260968,9.840169,-0.007330383,-0.007941248,-0.02321288,-0.026514213532209396,0.004379534162580967,-1.4105756282806396,1023.2986,
2021.02.09 08:30:16,61.0,24.0,23.519999,2.58,-32.219997,-0.007182605,0.2873042,9.598354,-0.008552114,0.018936822,-0.021991149,-0.029923709109425545,7.483161753043532E-4,-1.4211161136627197,1023.2986,
2021.02.09 08:30:16,61.0,24.0,23.58,2.22,-32.16,-0.08140286,0.15322891,9.940725,-0.023823744,-0.012217305,-0.02687807,-0.015412520617246628,0.0081886425614357,-1.4547326564788818,1023.2986,
2021.02.09 08:30:16,61.0,24.0,24.06,2.34,-32.219997,0.02873042,0.23942018,9.662998,0.004276057,0.005497787,-0.009162978,-0.024771828204393387,-0.002973231952637434,-1.4417113065719604,1023.2986,
2021.02.09 08:30:16,61.0,24.0,24.359999,2.52,-32.1,-0.090979666,0.23702596,9.91439,-0.026267206,-0.007330383,-0.02687807,-0.02390170842409134,0.009176269173622131,-1.4348504543304443,1023.28516,
2021.02.09 08:30:16,61.0,24.0,24.24,2.52,-32.28,-0.05746084,0.17956513,9.835381,0.032375857,-0.0067195175,-0.0012217305,-0.0182547178119421,0.005842192564159632,-1.442144751548767,1023.28516,
2021.02.09 08:30:17,61.0,24.0,24.18,2.52,-32.46,0.05267244,0.29209262,9.859323,0.02687807,-0.008552114,6.1086525E-4,-0.02961694821715355,-0.005342348478734493,-1.4290090799331665,1023.28516,
2021.02.09 08:30:17,61.0,24.0,23.88,2.58,-32.04,-0.06943185,0.22744916,9.61272,0.047036625,6.1086525E-4,-0.020158553,-0.023656241595745087,0.0072227888740599155,-1.4304356575012207,1023.28516,
2021.02.09 08:30:17,61.0,24.0,23.699999,2.76,-31.8,-0.035913024,0.32800564,9.629479,0.015271631,0.005497787,0.002443461,-0.03404925391077995,0.0037294700741767883,-1.4092084169387817,1023.30225,
2021.02.09 08:30:17,61.0,24.0,23.939999,3.1799998,-31.619999,-0.1388637,0.2681506,9.727641,-0.021991149,0.004276057,0.0012217305,-0.027556056156754494,0.014274196699261665,-1.3996484279632568,1023.30225,
2021.02.09 08:30:17,61.0,24.0,24.18,3.06,-31.38,-0.090979666,0.2777274,9.880871,-0.02321288,0.01038471,0.032986723,-0.028098993003368378,0.00920739583671093,-1.4070749282836914,1023.30225,
2021.02.09 08:30:17,61.0,24.0,23.82,2.6399999,-31.679998,-0.0047884034,0.29209262,9.794679,0.002443461,0.0012217305,0.04337143,-0.029812725260853767,4.888779949396849E-4,-1.421379566192627,1023.30225,
2021.02.09 08:30:17,61.0,24.0,23.88,2.58,-31.56,0.079008654,0.2801216,9.672575,0.01160644,-6.1086525E-4,0.037873644,-0.028951335698366165,-0.008168134838342667,-1.4273293018341064,1023.3052,
2021.02.09 08:30:17,61.0,24.0,23.699999,2.3999999,-31.74,0.14844051,0.30166942,9.727641,-0.009773844,0.0012217305,0.025045475,-0.030998028814792633,-0.015258477069437504,-1.4322750568389893,1023.3052,
2021.02.09 08:30:17,61.0,24.0,23.279999,2.58,-31.859999,0.01436521,0.2896984,9.902418,-0.021380283,0.013439035,6.1086525E-4,-0.029246944934129715,-0.0014506758889183402,-1.421459674835205,1023.3052,
2021.02.09 08:30:17,61.0,24.0,23.58,2.76,-32.1,0.011971008,0.29209262,9.837775,-0.0018325958,0.02076942,-0.002443461,-0.029682178050279617,-0.0012168404646217823,-1.4149683713912964,1023.3052,
2021.02.09 08:30:17,61.0,24.0,23.939999,2.76,-32.219997,-0.08619126,0.20829555,9.916783,0.025045475,-0.0018325958,0.0061086523,-0.021000465378165245,0.008691234514117241,-1.426396131515503,1023.30835,
2021.02.09 08:30:17,61.0,24.0,24.06,2.34,-32.28,0.01436521,0.2873042,9.64145,0.030543262,0.0030543262,0.010995574,-0.029790008440613747,-0.0014899419620633125,-1.434783697128296,1023.30835,
2021.02.09 08:30:17,61.0,24.0,24.3,2.7,-32.16,-0.011971008,0.30645782,9.67018,-0.028710667,-0.002443461,-0.0061086523,-0.031680382788181305,0.0012379295658320189,-1.4187134504318237,1023.30835,
2021.02.09 08:30:17,61.0,24.0,24.06,3.06,-31.859999,-0.038307227,0.2681506,9.873688,6.1086525E-4,-0.005497787,0.0012217305,-0.02715122327208519,0.0038797089364379644,-1.4082111120224,1023.30835,
2021.02.09 08:30:17,61.0,24.0,24.0,3.0,-31.92,-0.007182605,0.29209262,9.835381,0.035430185,-0.0067195175,0.0018325958,-0.02968941628932953,7.302822778001428E-4,-1.407651662826538,1023.3096,
2021.02.09 08:30:17,61.0,24.0,24.3,3.06,-31.8,0.009576807,0.25857377,9.519346,0.02076942,0.012217305,-0.0012217305,-0.02715628407895565,-0.0010060358326882124,-1.4109970331192017,1023.3096,
2021.02.09 08:30:17,61.0,24.0,24.3,2.6399999,-31.56,-0.02633622,0.24899697,9.720459,-0.02565634,-0.0018325958,-0.0067195175,-0.025610068812966347,0.002709353109821677,-1.429312825202942,1023.3096,
2021.02.09 08:30:17,61.0,24.0,24.84,1.9799999,-31.74,-0.01436521,0.2896984,9.945514,-0.0018325958,0.0018325958,-0.004886922,-0.02912028506398201,0.0014443900436162949,-1.4541890621185303,1023.3096,
2021.02.09 08:30:17,61.0,24.0,24.66,2.28,-31.74,-0.07182605,0.2873042,9.722853,0.01282817,-0.0012217305,-0.007330383,-0.02953997068107128,0.007387208752334118,-1.4396460056304932,1023.30444,
2021.02.09 08:30:17,61.0,24.0,24.48,2.34,-31.98,0.007182605,0.29688102,9.763555,0.01038471,-0.0036651916,-0.007941248,-0.03039768896996975,-7.356545538641512E-4,-1.43651282787323,1023.30444,
2021.02.09 08:30:17,61.0,24.0,24.3,2.28,-31.98,-0.12210429,0.2753332,9.679757,-0.007330383,0.01160644,-0.015882496,-0.02843429520726204,0.012613726779818535,-1.4377938508987427,1023.30444,
2021.02.09 08:30:17,61.0,24.0,24.3,2.76,-31.8,-0.08619126,0.30645782,9.868899,-0.004886922,-0.007330383,-0.008552114,-0.03104172646999359,0.008733402006328106,-1.4158462285995483,1023.30444,
2021.02.09 08:30:17,61.0,24.0,24.24,2.28,-31.619999,-0.05746084,0.30166942,9.794679,0.021380283,0.0018325958,-6.1086525E-4,-0.030789053067564964,0.005866469349712133,-1.4362248182296753,1023.31104,
2021.02.09 08:30:17,61.0,24.0,24.359999,2.6399999,-31.38,-0.01436521,0.31124622,9.775525,0.014660766,-0.004886922,-0.002443461,-0.03182854875922203,0.001469506649300456,-1.422255039215088,1023.31104,
2021.02.09 08:30:17,61.0,24.0,24.779999,2.8799999,-31.439999,-0.047884032,0.29209262,9.734824,0.018325957,-0.0012217305,0.002443461,-0.02999556064605713,0.004918799735605717,-1.4166874885559082,1023.31104,
2021.02.09 08:30:18,61.0,24.0,24.42,2.7,-31.56,0.0047884034,0.30885202,9.627085,0.004886922,0.004886922,-6.1086525E-4,-0.032070569694042206,-4.973887116648257E-4,-1.420112133026123,1023.31104,
2021.02.09 08:30:18,61.0,24.0,24.48,2.8799999,-31.679998,-0.090979666,0.25857377,9.775525,-0.015882496,0.0036651916,-6.1086525E-4,-0.026443829759955406,0.00930661428719759,-1.4180666208267212,1023.3096,
2021.02.09 08:30:18,61.0,24.0,24.24,2.04,-31.56,-0.023942016,0.30166942,9.785102,-0.004886922,-0.004886922,0.004886922,-0.03081960417330265,0.002446777420118451,-1.4467253684997559,1023.3096,
2021.02.09 08:30:18,61.0,24.0,24.18,2.04,-31.8,-0.0047884034,0.33279404,9.552865,6.1086525E-4,0.01160644,0.002443461,-0.03482300415635109,5.012530600652099E-4,-1.4413176774978638,1023.3096,
2021.02.09 08:30:18,61.0,24.0,24.359999,1.9799999,-31.74,-0.04070143,0.2705448,9.816227,-0.032375857,-0.005497787,-0.0030543262,-0.02755376510322094,0.004146317485719919,-1.453439474105835,1023.3096,
2021.02.09 08:30:18,61.0,24.0,24.359999,1.9799999,-31.619999,-0.02633622,0.29448682,9.78989,-0.014049901,0.004886922,-0.0012217305,-0.030071530491113663,0.002690137829631567,-1.4506036043167114,1023.31445,
2021.02.09 08:30:18,61.0,24.0,24.48,2.3999999,-31.74,-0.045489833,0.31364042,9.607931,-0.0067195175,0.007330383,-0.0061086523,-0.03263195604085922,0.004734577611088753,-1.4304137229919434,1023.31445,
2021.02.09 08:30:18,61.0,24.0,24.24,2.46,-31.8,-0.016759412,0.3184288,9.832987,-0.03726278,0.008552114,-0.0018325958,-0.0323723740875721,0.0017044054111465812,-1.427513837814331,1023.31445,
2021.02.09 08:30:18,61.0,24.0,24.06,2.76,-32.04,-0.074220255,0.25378537,9.92636,-0.017104227,0.0036651916,-0.0061086523,-0.02556052803993225,0.00747694680467248,-1.4215130805969238,1023.31445,
2021.02.09 08:30:18,61.0,24.0,23.88,3.0,-32.1,0.009576807,0.33518824,9.643845,0.013439035,0.0012217305,0.0018325958,-0.034742701798677444,-9.93048306554556E-4,-1.4004815816879272,1023.3169,
2021.02.09 08:30:18,61.0,24.0,23.88,3.1799998,-31.679998,-0.038307227,0.2681506,9.753978,-0.010995574,0.0012217305,-0.010995574,-0.02748427540063858,0.003927323967218399,-1.4018521308898926,1023.3169,
2021.02.09 08:30:18,61.0,24.0,24.18,3.06,-31.74,-0.09816227,0.23463176,9.813833,0.017715093,0.01282817,6.1086525E-4,-0.023902520537376404,0.010002105496823788,-1.4119101762771606,1023.3169,
2021.02.09 08:30:18,61.0,24.0,24.66,3.0,-31.32,-0.031124622,0.31364042,9.615114,-0.015271631,0.004276057,-0.007941248,-0.0326077863574028,0.0032370402477681637,-1.4084612131118774,1023.3169,
2021.02.09 08:30:18,61.0,24.0,24.9,2.76,-31.26,-0.074220255,0.2681506,9.892841,0.009162978,-0.002443461,-0.005497787,-0.027098121121525764,0.007502279710024595,-1.42542564868927,1023.3152,
2021.02.09 08:30:18,61.0,24.0,25.019999,2.8799999,-31.74,-0.04070143,0.29448682,9.830592,0.019547688,-0.0030543262,0.002443461,-0.02994695119559765,0.0041402592323720455,-1.418021559715271,1023.3152,
2021.02.09 08:30:18,61.0,24.0,25.019999,3.12,-31.74,-0.17956513,0.24420857,9.947908,0.055588737,-0.0061086523,0.015271631,-0.024539809674024582,0.01804858073592186,-1.4122234582901,1023.3152,
2021.02.09 08:30:18,61.0,24.0,24.84,3.06,-31.619999,0.079008654,0.32561144,9.560047,0.06780604,0.01282817,0.014660766,-0.03404528275132179,-0.008264274336397648,-1.4078154563903809,1023.3152,
2021.02.09 08:30:18,61.0,24.0,24.84,3.36,-31.32,-0.10055647,0.2825158,9.734824,0.0061086523,-0.01282817,0.0012217305,-0.02901146002113819,0.010329194366931915,-1.3981705904006958,1023.323,
2021.02.09 08:30:18,61.0,24.0,24.66,3.06,-31.32,-0.031124622,0.35434186,9.78989,0.022602014,0.0030543262,0.0036651916,-0.03617869317531586,0.0031792507506906986,-1.4016762971878052,1023.323,
2021.02.09 08:30:18,61.0,24.0,24.3,2.6399999,-31.019999,-0.12210429,0.31364042,9.792285,0.03604105,-0.0030543262,0.002443461,-0.032015904784202576,0.012468790635466576,-1.4196767807006836,1023.323,
2021.02.09 08:30:18,61.0,24.0,24.48,2.22,-31.199999,-0.05746084,0.33518824,9.516952,0.014049901,0.004886922,0.014660766,-0.0352049358189106,0.006037662737071514,-1.4348831176757812,1023.323,
2021.02.09 08:30:18,61.0,24.0,24.24,1.92,-31.619999,-0.055066638,0.33039984,9.923966,-0.012217305,-0.014660766,0.01038471,-0.03328032046556473,0.005548796616494656,-1.4477711915969849,1023.3196,
2021.02.09 08:30:18,61.0,24.0,24.06,1.92,-31.199999,0.0023942017,0.39743748,9.689334,0.029932396,0.0030543262,0.01282817,-0.04099505767226219,-2.4709664285182953E-4,-1.438742756843567,1023.3196,
2021.02.09 08:30:18,61.0,24.0,24.119999,2.34,-30.96,-0.076614454,0.38307226,9.718064,0.004276057,-0.007941248,0.0036651916,-0.03939695656299591,0.007883552461862564,-1.4225711822509766,1023.3196,
2021.02.09 08:30:18,61.0,24.0,24.119999,2.7,-31.14,-0.088585466,0.33997664,9.615114,0.004886922,0.004276057,0.009773844,-0.035342343151569366,0.009212887845933437,-1.41241455078125,1023.3196,
2021.02.09 08:30:19,61.0,24.0,24.18,2.7,-31.26,-0.07182605,0.35913026,9.892841,-0.016493361,-0.01160644,0.016493361,-0.036285143345594406,0.007260278332978487,-1.411888599395752,1023.31055,
2021.02.09 08:30:19,61.0,24.0,24.539999,3.0,-31.74,-0.011971008,0.41180268,9.694122,0.014049901,0.0,0.021991149,-0.0424540676176548,0.0012348722666501999,-1.3952534198760986,1023.31055,
2021.02.09 08:30:19,61.0,24.0,24.539999,2.58,-32.219997,-0.009576807,0.40462008,9.662998,-0.012217305,0.004276057,0.02076942,-0.04184867441654205,9.91079956293106E-4,-1.4119246006011963,1023.31055,
2021.02.09 08:30:19,61.0,24.0,24.66,2.7,-32.34,-0.088585466,0.36391866,9.873688,-0.015271631,-0.005497787,0.02076942,-0.03683926537632942,0.008971631526947021,-1.4122066497802734,1023.31055,
2021.02.09 08:30:19,61.0,24.0,24.66,2.46,-32.28,-0.007182605,0.4333505,9.595961,0.004276057,0.01160644,0.027488936,-0.04512900486588478,7.485027890652418E-4,-1.413215160369873,1023.3108,
2021.02.09 08:30:19,61.0,24.0,24.66,1.9799999,-32.34,-0.05746084,0.41180268,9.868899,-0.022602014,-0.004276057,0.017715093,-0.04170241951942444,0.005822350271046162,-1.4354486465454102,1023.3108,
2021.02.09 08:30:19,61.0,24.0,24.9,1.9799999,-32.04,-0.016759412,0.41180268,9.749189,0.009162978,0.0,0.021991149,-0.0422145277261734,0.0017190553480759263,-1.4374721050262451,1023.3108,
2021.02.09 08:30:19,61.0,24.0,24.48,1.8,-32.219997,0.02633622,0.39025488,9.727641,0.016493361,-0.012217305,0.022602014,-0.04009649530053139,-0.0027073523961007595,-1.4457775354385376,1023.3108,
2021.02.09 08:30:19,61.0,24.0,24.24,2.1,-32.04,0.019153614,0.38307226,9.639056,0.013439035,-0.004276057,0.019547688,-0.039720695465803146,-0.0019870814867317677,-1.4330631494522095,1023.31006,
2021.02.09 08:30:19,61.0,24.0,23.82,2.46,-32.219997,0.02873042,0.44532153,9.763555,-0.01160644,-0.0036651916,0.0067195175,-0.045578811317682266,-0.0029426102992147207,-1.4082322120666504,1023.31006,
2021.02.09 08:30:19,61.0,24.0,23.46,2.82,-32.219997,-0.04070143,0.40940848,9.959879,0.02076942,-0.007941248,-0.0012217305,-0.04108229652047157,0.004086516331881285,-1.3949555158615112,1023.31006,
2021.02.09 08:30:19,61.0,24.0,23.34,3.06,-31.859999,-0.023942016,0.4333505,9.655815,0.044593163,-0.004276057,-6.1086525E-4,-0.044849514961242676,0.0024795385543257,-1.3801993131637573,1023.31006,
2021.02.09 08:30:19,61.0,24.0,23.34,3.1799998,-32.04,0.007182605,0.4141969,9.536105,-0.013439035,-0.004886922,-0.008552114,-0.04340730980038643,-7.532009622082114E-4,-1.3777772188186646,1023.3074,
2021.02.09 08:30:19,61.0,24.0,23.46,2.8799999,-31.74,-0.019153614,0.37828386,9.892841,0.010995574,-0.007330383,-0.007941248,-0.038219451904296875,0.0019361060112714767,-1.3976467847824097,1023.3074,
2021.02.09 08:30:19,61.0,24.0,23.58,2.7,-31.8,0.011971008,0.44532153,9.61272,0.01160644,-0.0012217305,-0.008552114,-0.046293143182992935,-0.0012453292729333043,-1.3961577415466309,1023.3074,
2021.02.09 08:30:19,61.0,24.0,23.699999,2.28,-31.8,0.02633622,0.4165911,9.536105,-0.014049901,-0.0018325958,-0.009162978,-0.04365773871541023,-0.002761730458587408,-1.4180160760879517,1023.3074,
2021.02.09 08:30:19,61.0,24.0,23.76,2.28,-31.5,0.01436521,0.39743748,9.797073,-0.04153884,-0.014049901,-0.016493361,-0.04054468870162964,-0.0014662746107205749,-1.422621488571167,1023.3037,
2021.02.09 08:30:19,61.0,24.0,24.18,2.58,-31.5,-0.007182605,0.4285621,9.809045,-0.0061086523,0.004276057,-0.017715093,-0.043662723153829575,7.32242944650352E-4,-1.4085854291915894,1023.3037,
2021.02.09 08:30:19,61.0,24.0,23.88,2.76,-31.439999,-0.016759412,0.40462008,9.713276,-0.0012217305,-0.010995574,-0.020158553,-0.041632261127233505,0.0017254112754017115,-1.4016928672790527,1023.3037,
2021.02.09 08:30:19,61.0,24.0,23.939999,2.82,-31.619999,0.009576807,0.41180268,9.67018,0.0012217305,0.002443461,-0.010995574,-0.04255906119942665,-9.903438622131944E-4,-1.3988959789276123,1023.3037,
2021.02.09 08:30:19,61.0,24.0,23.939999,2.7,-31.859999,0.011971008,0.4237737,9.737218,-0.0067195175,-0.007941248,-0.02443461,-0.043493546545505524,-0.001229406800121069,-1.4022043943405151,1023.31274,
2021.02.09 08:30:19,61.0,24.0,23.76,2.76,-31.679998,0.02873042,0.4333505,9.646238,-0.004886922,0.01282817,-0.021380283,-0.044893912971019745,-0.0029783977661281824,-1.3974976539611816,1023.31274,
2021.02.09 08:30:19,61.0,24.0,24.18,2.46,-31.8,-0.059855044,0.39264908,9.720459,-0.02565634,-0.002443461,-0.02687807,-0.040371377021074295,0.0061575579456985,-1.4158002138137817,1023.31274,
2021.02.09 08:30:19,61.0,24.0,23.76,2.6399999,-31.92,0.021547815,0.39983168,9.655815,-0.016493361,0.010995574,-0.02076942,-0.04138463735580444,-0.002231585793197155,-1.4062886238098145,1023.31274,
2021.02.09 08:30:19,61.0,24.0,24.0,2.6399999,-31.8,-0.07182605,0.38067806,9.873688,-0.03359759,0.0,-0.029321533,-0.03853469341993332,0.00727436225861311,-1.4093959331512451,1023.2981,
2021.02.09 08:30:20,61.0,24.0,23.64,2.82,-31.92,-0.050278235,0.39743748,9.742006,0.02443461,0.0061086523,-0.01282817,-0.04077311232686043,0.005160927772521973,-1.3969054222106934,1023.2981,
2021.02.09 08:30:20,61.0,24.0,23.22,3.0,-31.56,0.033518825,0.40701428,9.586384,-0.0012217305,0.007330383,-0.02076942,-0.0424317941069603,-0.0034964894875884056,-1.3871806859970093,1023.2981,
2021.02.09 08:30:20,61.0,24.0,23.22,3.36,-31.5,-0.12210429,0.35194764,9.856929,-0.029321533,0.007330383,-0.02076942,-0.03568771108984947,0.012387027032673359,-1.3765047788619995,1023.2981,
2021.02.09 08:30:20,61.0,24.0,23.039999,3.54,-31.8,-0.035913024,0.40222588,9.811439,0.010995574,0.005497787,-6.1086525E-4,-0.04097238928079605,0.0036603056360036135,-1.3625882863998413,1023.302,
2021.02.09 08:30:20,61.0,24.0,22.98,3.48,-32.1,0.023942016,0.37828386,9.581595,0.02687807,0.005497787,-0.0018325958,-0.03945964574813843,-0.002498745219781995,-1.3680143356323242,1023.302,
2021.02.09 08:30:20,61.0,24.0,22.8,3.54,-32.579998,-0.038307227,0.34237084,9.696517,-0.014660766,0.009773844,-0.0067195175,-0.03529370576143265,0.003950596787035465,-1.3667775392532349,1023.302,
2021.02.09 08:30:20,61.0,24.0,22.859999,3.6,-32.34,-0.0023942017,0.39264908,9.864111,-0.0030543262,-0.007330383,-0.0067195175,-0.03978481888771057,2.4271843722090125E-4,-1.3602559566497803,1023.302,
2021.02.09 08:30:20,61.0,24.0,22.68,3.36,-32.28,0.07182605,0.3854665,9.653421,0.032986723,0.0061086523,-0.0018325958,-0.03990825265645981,-0.007440338842570782,-1.3711135387420654,1023.303,
2021.02.09 08:30:20,61.0,24.0,22.859999,3.36,-32.219997,-0.045489833,0.39743748,9.624691,0.0,0.01160644,-0.018936822,-0.04126962646842003,0.004726333077996969,-1.3670817613601685,1023.303,
2021.02.09 08:30:20,61.0,24.0,22.92,3.4199998,-32.219997,-0.055066638,0.35673606,9.782708,0.0012217305,0.0018325958,-0.008552114,-0.03644925728440285,0.005628917366266251,-1.371334195137024,1023.303,
2021.02.09 08:30:20,61.0,24.0,23.1,3.0,-32.219997,0.05746084,0.41180268,9.672575,0.0018325958,0.0,-0.021380283,-0.042547810822725296,-0.0059405239298939705,-1.3856624364852905,1023.303,
2021.02.09 08:30:20,61.0,24.0,23.1,3.4199998,-31.92,-0.007182605,0.37349546,9.677363,0.0036651916,0.013439035,-0.016493361,-0.03857559710741043,7.422066992148757E-4,-1.371989369392395,1023.3032,
2021.02.09 08:30:20,61.0,24.0,22.92,3.36,-31.679998,-0.01436521,0.37828386,9.679757,-0.01282817,-0.0030543262,-0.023823744,-0.039059970527887344,0.0014840455260127783,-1.3725064992904663,1023.3032,
2021.02.09 08:30:20,61.0,24.0,22.98,3.9599998,-31.679998,-0.10295067,0.36391866,9.672575,0.01038471,0.005497787,-0.010995574,-0.03760389983654022,0.010643161833286285,-1.3468352556228638,1023.3032,
2021.02.09 08:30:20,61.0,24.0,22.859999,4.14,-31.5,-0.04309563,0.40701428,9.543288,-0.02076942,0.01038471,-0.020158553,-0.04262300580739975,0.004515774082392454,-1.3339765071868896,1023.3032,
2021.02.09 08:30:20,61.0,24.0,22.859999,4.08,-31.679998,-0.1340753,0.39983168,9.742006,-0.01038471,0.012217305,-0.010995574,-0.041015129536390305,0.013761727139353752,-1.3349523544311523,1023.31177,
2021.02.09 08:30:20,61.0,24.0,22.68,3.9599998,-31.679998,-0.15083471,0.36152446,9.696517,-0.008552114,-0.010995574,-0.0018325958,-0.037262190133333206,0.01555430144071579,-1.3426737785339355,1023.31177,
2021.02.09 08:30:20,61.0,24.0,22.98,3.48,-31.8,-0.16759412,0.38067806,9.885659,0.039095376,-0.007330383,0.02443461,-0.038483571261167526,0.016951633617281914,-1.3636418581008911,1023.31177,
2021.02.09 08:30:20,61.0,24.0,22.68,3.72,-32.1,-0.076614454,0.37110126,9.825804,0.095294975,-0.03970624,0.061086524,-0.03774894401431084,0.007797112688422203,-1.3542011976242065,1023.31177,
2021.02.09 08:30:20,61.0,24.0,22.92,3.3,-32.52,0.10295067,0.47884035,9.454702,0.10567969,0.010995574,0.042760566,-0.05059950426220894,-0.010888402350246906,-1.3621348142623901,1023.3137,
2021.02.09 08:30:20,61.0,24.0,23.22,3.4199998,-32.52,0.11492168,0.51235914,9.267955,-0.009162978,0.02443461,0.016493361,-0.055222418159246445,-0.012399260886013508,-1.3543686866760254,1023.3137,
2021.02.09 08:30:20,61.0,24.0,23.22,3.24,-32.7,-0.074220255,0.44771573,9.730036,-0.06414085,0.02076942,-0.005497787,-0.04598001390695572,0.007627804763615131,-1.3669747114181519,1023.3137,
2021.02.09 08:30:20,61.0,24.0,23.64,2.82,-32.76,-0.08379706,0.4357447,9.646238,-0.03604105,0.042760566,0.007330383,-0.045140113681554794,0.008686800487339497,-1.3885254859924316,1023.3137,
2021.02.09 08:30:20,61.0,24.0,23.46,3.3,-32.399998,-0.04309563,0.44532153,9.734824,-0.054367006,0.025045475,0.0018325958,-0.04571289196610451,0.0044269259087741375,-1.3685146570205688,1023.31616,
2021.02.09 08:30:20,61.0,24.0,23.519999,3.0,-32.579998,-0.093373865,0.4237737,9.828198,-0.03359759,0.02321288,0.004886922,-0.04308951273560524,0.009500322863459587,-1.3830173015594482,1023.31616,
2021.02.09 08:30:21,61.0,24.0,23.58,2.76,-32.579998,0.0,0.4213795,9.634268,0.0067195175,0.02076942,0.01282817,-0.04370971769094467,1.0E-6,-1.3953100442886353,1023.31616,
2021.02.09 08:30:21,61.0,24.0,23.22,3.0,-32.52,-0.038307227,0.39264908,9.548077,-0.01282817,0.015882496,0.009773844,-0.04109988361597061,0.004012014251202345,-1.3851042985916138,1023.31616,
2021.02.09 08:30:21,61.0,24.0,23.4,2.76,-32.64,-0.0047884034,0.4285621,9.600749,-0.0421497,0.03481932,6.1086525E-4,-0.04460878670215607,4.987530410289764E-4,-1.3925272226333618,1023.30396,
2021.02.09 08:30:21,61.0,24.0,23.22,2.76,-32.399998,-0.1388637,0.37110126,9.682152,-0.03848451,0.017104227,0.007330383,-0.03830569609999657,0.01434125192463398,-1.3962873220443726,1023.30396,
2021.02.09 08:30:21,61.0,24.0,22.92,3.0,-32.1,-0.0023942017,0.39743748,9.583989,-0.028099801,0.020158553,0.027488936,-0.04144515469670296,2.498126414138824E-4,-1.3841133117675781,1023.30396,
2021.02.09 08:30:21,61.0,24.0,23.279999,3.24,-31.859999,-0.29448682,0.25857377,8.645462,-0.040927973,0.018325957,0.032375857,-0.02988237887620926,0.03404942527413368,-1.383076548576355,1023.30396,
2021.02.09 08:30:21,61.0,24.0,23.699999,3.48,-31.92,-0.10295067,0.33039984,10.141838,-0.20097467,-0.053145275,0.077579886,-0.032564710825681686,0.010150737129151821,-1.3795678615570068,1023.3074,
