Time,X-cord,Y-cord,Mag_x,Mag_y,Mag_z,Acc_x,Acc_y,Acc_z,Gyro_x,Gyro_y,Gyro_z,Orn_x,Orn_y,Orn_z,Pressure,
2021.02.09 08:36:23,79.0,24.0,39.18,4.14,-40.68,-0.29448682,0.8379706,9.052477,0.28527406,0.30604348,-0.0061086523,-0.09225652366876602,0.03251960873603821,-1.3627979755401611,1023.3999,
2021.02.09 08:36:23,79.0,24.0,39.18,4.3199997,-40.26,0.33518824,0.9528923,8.420407,0.37995818,0.111177474,0.124005646,-0.11259682476520538,-0.03978564962744713,-1.3619253635406494,1023.3999,
2021.02.09 08:36:23,79.0,24.0,39.6,3.8999999,-40.62,-0.19871874,0.9935937,9.476251,0.108123146,0.025045475,0.093462385,-0.1044464185833931,0.020967112854123116,-1.362223744392395,1023.3999,
2021.02.09 08:36:23,79.0,24.0,39.719997,3.48,-40.739998,-0.37828386,0.93373865,9.677363,-0.16615535,-0.09162979,0.015882496,-0.09611617773771286,0.03906966745853424,-1.3759280443191528,1023.3999,
2021.02.09 08:36:23,79.0,24.0,39.78,3.1799998,-40.5,-0.1412579,0.91937345,9.785102,-0.1282817,-0.029321533,0.036651913,-0.09367172420024872,0.014435013756155968,-1.3938626050949097,1023.3928,
2021.02.09 08:36:23,79.0,24.0,39.78,3.1799998,-40.86,0.21547815,0.9911995,9.56723,-0.11728613,-0.0720821,0.08857546,-0.10320930182933807,-0.022518714889883995,-1.3937703371047974,1023.3928,
2021.02.09 08:36:23,79.0,24.0,39.42,3.4199998,-40.86,0.18914193,0.90261406,9.639056,-0.08552113,-0.053145275,0.04337143,-0.09335120022296906,-0.019619934260845184,-1.3950515985488892,1023.3928,
2021.02.09 08:36:23,79.0,24.0,39.239998,3.3,-40.86,0.021547815,0.8882488,9.629479,-0.12339478,-0.03970624,-0.05375614,-0.09198213368654251,-0.002237688982859254,-1.3938997983932495,1023.3928,
2021.02.09 08:36:24,79.0,24.0,39.3,3.54,-41.1,-0.019153614,0.7062895,9.775525,-0.1282817,0.0030543262,-0.13316862,-0.07212533801794052,0.001959341112524271,-1.4066015481948853,1023.39844,
2021.02.09 08:36:24,79.0,24.0,38.879997,3.48,-41.1,-0.17717093,0.59136784,9.481039,-0.16737708,-0.005497787,-0.15393804,-0.062282197177410126,0.018684692680835724,-1.4126704931259155,1023.39844,
2021.02.09 08:36:24,79.0,24.0,39.0,3.72,-41.28,0.1340753,0.51954174,9.660604,-0.17348573,0.081855945,-0.13805555,-0.053722504526376724,-0.013877672143280506,-1.4227322340011597,1023.39844,
2021.02.09 08:36:24,79.0,24.0,39.239998,4.14,-41.1,0.19153613,0.4285621,10.2735195,-0.24129178,-0.008552114,-0.111177474,-0.04168381169438362,-0.018641512840986252,-1.4263485670089722,1023.39844,
2021.02.09 08:36:24,79.0,24.0,39.059998,4.2,-41.04,0.045489833,0.320823,9.871294,-0.18570304,-0.076358154,-0.12217305,-0.03248882293701172,-0.004608261864632368,-1.4309455156326294,1023.3933,
2021.02.09 08:36:24,79.0,24.0,39.239998,4.92,-40.98,-0.1364695,0.25139117,9.727641,-0.020158553,-0.028710667,-0.1441642,-0.02583468146622181,0.014028122648596764,-1.4170563220977783,1023.3933,
2021.02.09 08:36:24,79.0,24.0,39.239998,5.16,-40.8,0.059855044,0.33758244,9.299079,0.09101892,-0.10934488,-0.12889257,-0.036286093294620514,-0.006436575204133987,-1.4045659303665161,1023.3933,
2021.02.09 08:36:24,79.0,24.0,39.059998,5.8799996,-40.92,-0.055066638,0.23223756,9.588778,0.095294975,-0.07269296,-0.093462385,-0.024214593693614006,0.005742758046835661,-1.3955472707748413,1023.3933,
2021.02.09 08:36:24,79.0,24.0,39.059998,6.6,-40.739998,-0.019153614,0.25617957,9.375694,0.008552114,-0.052534413,-0.10873401,-0.027316942811012268,0.00204289797693491,-1.3754459619522095,1023.3816,
2021.02.09 08:36:24,79.0,24.0,38.879997,6.66,-40.62,0.05267244,0.40701428,9.64145,0.010995574,-0.014660766,-0.12217305,-0.04218936711549759,-0.005463069770485163,-1.3602052927017212,1023.3816,
2021.02.09 08:36:24,79.0,24.0,38.879997,6.8399997,-40.98,0.074220255,0.47165772,9.725247,-0.064751714,-0.010995574,-0.12095132,-0.048458896577358246,-0.007631560787558556,-1.3498584032058716,1023.3816,
2021.02.09 08:36:24,79.0,24.0,38.76,6.42,-41.1,-0.10534488,0.17477672,10.206482,-0.106901415,0.01282817,-0.13683382,-0.017121504992246628,0.010321003384888172,-1.3869116306304932,1023.3816,
2021.02.09 08:36:24,79.0,24.0,38.7,6.3599997,-41.46,-0.17477672,0.12210429,10.010158,-0.05131268,-0.02076942,-0.10629055,-0.012195575051009655,0.01745816320180893,-1.3917176723480225,1023.3882,
2021.02.09 08:36:24,79.0,24.0,38.64,6.7799997,-41.579998,0.0047884034,0.045489833,9.0237465,0.09101892,-0.0067195175,-0.026267206,-0.005041081923991442,-5.306446691974998E-4,-1.391945719718933,1023.3882,
2021.02.09 08:36:24,79.0,24.0,38.46,6.96,-41.28,0.22266077,0.04070143,9.093178,0.06841691,0.01038471,-0.008552114,-0.004474669694900513,-0.024481680244207382,-1.39177668094635,1023.3882,
2021.02.09 08:36:24,79.0,24.0,38.28,7.56,-41.04,0.23223756,0.08140286,9.406818,-0.06719518,0.018936822,-0.021991149,-0.008650749921798706,-0.02468320168554783,-1.3721719980239868,1023.3882,
2021.02.09 08:36:24,79.0,24.0,37.92,7.62,-41.04,0.12928689,0.05746084,9.895236,-0.1563815,0.032375857,-0.061086524,-0.005806358531117439,-0.013064825907349586,-1.369286298751831,1023.38574,
2021.02.09 08:36:24,79.0,24.0,37.86,7.62,-41.16,-0.11252748,-0.0023942017,10.218452,-0.17165314,0.05009095,-0.0720821,2.342875668546185E-4,0.011011739261448383,-1.3700774908065796,1023.38574,
2021.02.09 08:36:24,79.0,24.0,37.44,7.62,-41.16,-0.12928689,-0.009576807,10.163386,-0.13133603,0.07086037,-0.05497787,9.422084549441934E-4,0.012720161117613316,-1.36824631690979,1023.38574,
2021.02.09 08:36:24,79.0,24.0,37.44,7.2599998,-41.219997,0.18435353,-0.016759412,9.583989,0.027488936,0.05497787,0.023823744,0.0017483634874224663,-0.019233202561736107,-1.384896159172058,1023.38574,
2021.02.09 08:36:24,79.0,24.0,38.04,7.14,-40.92,0.4165911,0.12689269,9.696517,0.10995574,-0.009162978,0.059253927,-0.013073613867163658,-0.04293655976653099,-1.3806602954864502,1023.4004,
2021.02.09 08:36:24,79.0,24.0,38.1,7.3199997,-40.68,0.12449849,0.2777274,9.919178,0.06536258,-0.03481932,0.054367006,-0.027989516034722328,-0.012550631538033485,-1.3555195331573486,1023.4004,
2021.02.09 08:36:24,79.0,24.0,38.34,7.2599998,-40.98,0.15562311,0.45010993,9.854534,0.056199603,-0.037873644,-0.0030543262,-0.045638006180524826,-0.01579071767628193,-1.3416054248809814,1023.4004,
2021.02.09 08:36:24,79.0,24.0,38.579998,7.68,-40.68,0.23463176,0.4405331,9.3733,0.13500121,-0.020158553,0.023823744,-0.04694947972893715,-0.025026703253388405,-1.334434151649475,1023.4004,
2021.02.09 08:36:24,79.0,24.0,38.28,7.7999997,-40.32,0.06943185,0.12210429,9.581595,0.12095132,-0.009773844,0.01038471,-0.0127426041290164,-0.007246249821037054,-1.3586041927337646,1023.39746,
2021.02.09 08:36:25,79.0,24.0,38.399998,7.2,-40.32,-0.22266077,-0.0023942017,10.582372,-0.017104227,-0.025045475,0.016493361,2.2619427181780338E-4,0.021037619560956955,-1.3815574645996094,1023.39746,
2021.02.09 08:36:25,79.0,24.0,38.76,6.96,-40.32,-0.06943185,0.49559975,8.911219,-0.008552114,-0.028710667,0.10262536,-0.055556342005729675,0.007791352458298206,-1.3357895612716675,1023.39746,
2021.02.09 08:36:25,79.0,24.0,38.82,6.7799997,-40.68,0.23942018,0.5434838,8.851364,0.17470746,-0.0067195175,0.16982053,-0.06130177527666092,-0.027042364701628685,-1.3443491458892822,1023.39746,
2021.02.09 08:36:25,79.0,24.0,39.239998,6.3599997,-41.04,0.04070143,0.51954174,10.187328,0.03726278,-0.02443461,0.06536258,-0.050954267382621765,-0.003995278384536505,-1.3599368333816528,1023.3999,
2021.02.09 08:36:25,79.0,24.0,39.54,6.18,-40.379997,0.110133275,0.45729253,9.854534,-0.050701816,-0.014049901,-0.0012217305,-0.04636812210083008,-0.011175433173775673,-1.372759461402893,1023.3999,
2021.02.09 08:36:25,79.0,24.0,39.66,6.12,-40.2,-0.107739076,0.22505496,9.188946,0.018325957,0.062308256,-0.015882496,-0.024485347792506218,0.011724320240318775,-1.391215205192566,1023.3999,
2021.02.09 08:36:25,79.0,24.0,39.48,5.8799996,-39.96,0.074220255,0.093373865,9.0716305,0.04886922,0.05497787,0.02076942,-0.01029224507510662,-0.008181395940482616,-1.4141325950622559,1023.3999,
2021.02.09 08:36:25,79.0,24.0,39.48,6.12,-40.14,0.110133275,0.5410896,9.679757,-0.018325957,0.03481932,0.11362094,-0.05583736300468445,-0.011377198621630669,-1.3652620315551758,1023.4099,
2021.02.09 08:36:25,79.0,24.0,39.36,6.06,-40.68,-0.023942016,0.7374141,10.28549,-0.10323623,-0.028099801,0.08246681,-0.071571946144104,0.0023277427535504103,-1.3464436531066895,1023.4099,
2021.02.09 08:36:25,79.0,24.0,38.76,6.18,-40.32,-0.36631286,0.5626374,9.991004,-0.07819075,-0.01038471,-0.009773844,-0.05621728673577309,0.03664785251021385,-1.3461313247680664,1023.4099,
2021.02.09 08:36:25,79.0,24.0,38.52,5.94,-40.8,-0.035913024,0.48123455,10.09156,-0.010995574,0.0421497,-0.034208454,-0.04765043407678604,0.003558703465387225,-1.3681877851486206,1023.4099,
2021.02.09 08:36:25,79.0,24.0,38.219997,5.94,-40.32,-0.047884032,0.30645782,9.603143,0.012217305,0.01282817,0.04153884,-0.03190101683139801,0.004986246582120657,-1.3828932046890259,1023.4131,
2021.02.09 08:36:25,79.0,24.0,37.98,6.24,-40.26,-0.031124622,0.37349546,9.399636,0.096516706,0.03176499,0.04153884,-0.039713986217975616,0.003311245935037732,-1.366569995880127,1023.4131,
2021.02.09 08:36:25,79.0,24.0,38.28,6.06,-40.62,-0.0023942017,0.5674258,9.524135,0.0580322,-0.002443461,0.04642576,-0.0595073364675045,2.5138258934020996E-4,-1.3530935049057007,1023.4131,
2021.02.09 08:36:25,79.0,24.0,38.64,6.06,-40.44,0.009576807,0.5410896,9.749189,0.0012217305,-0.040317107,0.015271631,-0.05544407293200493,-9.8231784068048E-4,-1.3596762418746948,1023.4131,
2021.02.09 08:36:25,79.0,24.0,38.46,5.7599998,-40.8,-0.15322891,0.50517654,10.115502,-0.049480084,0.007941248,-0.004276057,-0.04989365488290787,0.01514676958322525,-1.3670825958251953,1023.39526,
2021.02.09 08:36:25,79.0,24.0,38.28,5.64,-41.1,-0.25857377,0.50757074,10.024523,-0.0421497,-0.015882496,-0.012217305,-0.05057291314005852,0.025788404047489166,-1.3651924133300781,1023.39526,
2021.02.09 08:36:25,79.0,24.0,38.46,5.52,-40.92,-0.12449849,0.51714754,9.68694,0.064751714,-0.021991149,-0.015882496,-0.053331028670072556,0.012851492501795292,-1.3700214624404907,1023.39526,
2021.02.09 08:36:25,79.0,24.0,38.46,5.58,-41.219997,-0.17238252,0.47644615,9.526528,0.12583824,-0.049480084,0.004886922,-0.04996277019381523,0.01809302344918251,-1.370228886604309,1023.39526,
2021.02.09 08:36:25,79.0,24.0,38.46,5.4,-41.219997,0.021547815,0.5793968,9.483433,0.106901415,-0.040927973,0.040317107,-0.06101967766880989,-0.002272149547934532,-1.3687270879745483,1023.40234,
2021.02.09 08:36:25,79.0,24.0,38.34,5.3399997,-41.04,0.16519992,0.59136784,10.0269165,0.0580322,-0.03848451,0.03970624,-0.058901820331811905,-0.016474155709147453,-1.3756942749023438,1023.40234,
2021.02.09 08:36:25,79.0,24.0,38.16,5.2799997,-41.219997,0.21308395,0.6368576,10.01734,0.07880162,-0.034208454,0.0030543262,-0.06347575783729553,-0.02126830257475376,-1.3727500438690186,1023.40234,
2021.02.09 08:36:25,79.0,24.0,37.92,5.22,-40.8,0.01436521,0.6679823,9.301474,0.1459968,-0.027488936,-0.030543262,-0.07169150561094284,-0.0015444003511220217,-1.360063076019287,1023.40234,
2021.02.09 08:36:25,79.0,24.0,37.739998,5.2799997,-40.62,0.41180268,0.82360536,9.52174,0.16432275,0.0036651916,-0.029321533,-0.08620242029428482,-0.043221741914749146,-1.3558716773986816,1023.3972,
2021.02.09 08:36:25,79.0,24.0,38.579998,4.8599997,-40.739998,0.2873042,0.7613561,9.557653,0.118507855,-0.09468412,-0.031154128,-0.07945571839809418,-0.03005106933414936,-1.3727366924285889,1023.3972,
2021.02.09 08:36:26,79.0,24.0,39.059998,5.04,-40.8,0.047884032,0.6991069,9.270349,0.11178834,-0.017104227,-0.047036625,-0.07526975125074387,-0.0051652430556714535,-1.367908000946045,1023.3972,
2021.02.09 08:36:26,79.0,24.0,39.3,4.92,-40.68,0.059855044,0.80445176,9.548077,0.026267206,0.021991149,-0.05375614,-0.08405259996652603,-0.006268724333494902,-1.3640286922454834,1023.3972,
2021.02.09 08:36:26,79.0,24.0,39.719997,4.38,-40.8,0.045489833,0.79487497,9.483433,-0.018325957,0.007941248,-0.03359759,-0.08362080901861191,-0.004796731751412153,-1.3788641691207886,1023.4038,
2021.02.09 08:36:26,79.0,24.0,39.18,4.74,-40.44,0.04309563,0.81402856,10.022128,-0.028099801,0.0067195175,-0.007941248,-0.08104446530342102,-0.0043000211007893085,-1.3706189393997192,1023.4038,
2021.02.09 08:36:26,79.0,24.0,39.059998,4.56,-40.26,0.22266077,0.8571242,9.91439,-0.06536258,-0.027488936,0.0036651916,-0.08621649444103241,-0.02245456911623478,-1.374781847000122,1023.4038,
2021.02.09 08:36:26,79.0,24.0,39.12,4.68,-40.44,0.17477672,0.8355764,9.902418,-0.0030543262,-0.0061086523,0.014049901,-0.08416858315467834,-0.01764806918799877,-1.372456669807434,1023.4038,
2021.02.09 08:36:26,79.0,24.0,38.82,5.04,-41.1,0.22026655,0.8331822,9.526528,0.04642576,-0.002443461,0.009162978,-0.08721400052309036,-0.023117268458008766,-1.3596608638763428,1023.395,
2021.02.09 08:36:26,79.0,24.0,38.879997,4.68,-41.34,0.1604115,0.8499416,9.868899,0.0580322,0.02321288,-0.01038471,-0.0858999639749527,-0.01625281386077404,-1.367439866065979,1023.395,
2021.02.09 08:36:26,79.0,24.0,38.52,4.8599997,-41.399998,0.1364695,0.82121116,9.835381,0.02443461,0.0061086523,-0.030543262,-0.08329441398382187,-0.013874474912881851,-1.362978219985962,1023.395,
2021.02.09 08:36:26,79.0,24.0,38.46,4.62,-41.46,0.031124622,0.8810662,9.646238,0.087964594,0.010995574,-0.032375857,-0.09108459949493408,-0.0032265959307551384,-1.3574587106704712,1023.395,
2021.02.09 08:36:26,79.0,24.0,38.579998,4.8599997,-40.62,0.059855044,0.89303726,9.390059,0.09407325,0.015882496,-0.017104227,-0.09481742978096008,-0.006374211981892586,-1.351395606994629,1023.3928,
2021.02.09 08:36:26,79.0,24.0,38.46,5.22,-41.34,0.06464344,0.91219085,9.512163,0.09285152,0.009162978,-0.012217305,-0.09560276567935944,-0.006795767694711685,-1.3396563529968262,1023.3928,
2021.02.09 08:36:26,79.0,24.0,38.579998,5.16,-41.7,-0.01436521,0.92895025,9.773131,0.004276057,0.015882496,-0.029321533,-0.09476663917303085,0.0014698667218908668,-1.3390944004058838,1023.3928,
2021.02.09 08:36:26,79.0,24.0,38.219997,4.92,-41.579998,-0.009576807,0.90021986,9.703699,0.010995574,0.009162978,-0.026267206,-0.09250597655773163,9.869229979813099E-4,-1.3456683158874512,1023.3928,
2021.02.09 08:36:26,79.0,24.0,38.219997,4.5,-42.3,0.10295067,0.91219085,9.473856,0.028099801,-0.002443461,-0.002443461,-0.09598353505134583,-0.01086639054119587,-1.3546383380889893,1023.3794,
2021.02.09 08:36:26,79.0,24.0,38.1,4.2599998,-41.82,0.17956513,1.0103531,9.653421,0.0067195175,0.010995574,0.0061086523,-0.10426510870456696,-0.018599046394228935,-1.355149745941162,1023.3794,
2021.02.09 08:36:26,79.0,24.0,37.8,4.68,-41.7,0.033518825,1.0366893,9.646238,-0.0067195175,0.015882496,-0.018936822,-0.10705927759408951,-0.0034747938625514507,-1.3355436325073242,1023.3794,
2021.02.09 08:36:26,79.0,24.0,37.86,4.7999997,-42.12,-0.011971008,0.9864111,9.832987,-0.03481932,-0.005497787,-0.040927973,-0.09998195618391037,0.0012174330186098814,-1.3374841213226318,1023.3794,
2021.02.09 08:36:26,79.0,24.0,37.739998,5.04,-41.94,0.0023942017,0.9528923,9.528923,0.0061086523,0.01282817,-0.028710667,-0.09966865181922913,-2.512562496121973E-4,-1.332070231437683,1023.3906,
2021.02.09 08:36:26,79.0,24.0,38.04,5.3399997,-41.64,0.055066638,0.9600749,9.703699,0.016493361,0.0030543262,-0.016493361,-0.09861654043197632,-0.005674747750163078,-1.3301609754562378,1023.3906,
2021.02.09 08:36:26,79.0,24.0,38.04,4.92,-41.399998,0.1388637,1.0079589,9.624691,0.014660766,0.002443461,0.0,-0.1043352261185646,-0.014426859095692635,-1.3383055925369263,1023.3906,
2021.02.09 08:36:26,79.0,24.0,38.1,5.04,-41.28,-0.016759412,0.92176765,9.770737,-0.0061086523,0.005497787,-0.017715093,-0.09406109899282455,0.001715264399535954,-1.3408784866333008,1023.3906,
2021.02.09 08:36:26,79.0,24.0,38.16,5.1,-41.219997,0.011971008,0.9744401,9.5385,0.017104227,0.01282817,-0.0030543262,-0.10180537402629852,-0.0012550193350762129,-1.3330975770950317,1023.39453,
2021.02.09 08:36:26,79.0,24.0,37.86,4.7999997,-41.76,0.021547815,0.9911995,9.782708,0.01160644,0.01038471,0.004276057,-0.10097674280405045,-0.002202639589086175,-1.338534951210022,1023.39453,
2021.02.09 08:36:26,79.0,24.0,38.219997,4.7999997,-42.0,0.031124622,1.0366893,9.746795,0.004886922,0.007941248,0.010995574,-0.10596315562725067,-0.003193307900801301,-1.3353170156478882,1023.39453,
2021.02.09 08:36:27,79.0,24.0,38.1,4.62,-42.0,-0.19632454,0.92895025,9.452309,0.037873644,0.02687807,0.014049901,-0.0979420393705368,0.020767023786902428,-1.3391005992889404,1023.39453,
2021.02.09 08:36:27,79.0,24.0,37.98,4.74,-41.879997,0.06703765,1.0031705,9.813833,0.04153884,0.06536258,0.028710667,-0.10186386853456497,-0.006830827798694372,-1.341091275215149,1023.3862,
2021.02.09 08:36:27,79.0,24.0,38.34,4.98,-41.52,0.15801731,1.0486604,9.617508,0.005497787,0.0,0.05497787,-0.10859300941228867,-0.016428692266345024,-1.3348233699798584,1023.3862,
2021.02.09 08:36:27,79.0,24.0,38.1,4.98,-41.46,0.12449849,0.9744401,9.500193,0.016493361,0.034208454,0.04520403,-0.10220439732074738,-0.013104088604450226,-1.3387013673782349,1023.3862,
2021.02.09 08:36:27,79.0,24.0,38.04,5.16,-41.28,-0.038307227,0.9983821,9.662998,-0.0067195175,0.018936822,0.020158553,-0.10295399278402328,0.003964300267398357,-1.3277676105499268,1023.3862,
2021.02.09 08:36:27,79.0,24.0,38.399998,4.92,-40.98,-0.011971008,0.9744401,9.830592,-0.053145275,0.014049901,0.0018325958,-0.0988004207611084,0.0012177295284345746,-1.3416998386383057,1023.376,
2021.02.09 08:36:27,79.0,24.0,38.219997,4.5,-40.92,0.10295067,1.0199299,9.787497,-0.043982297,0.016493361,0.014049901,-0.10382696241140366,-0.010518203489482403,-1.3499996662139893,1023.376,
2021.02.09 08:36:27,79.0,24.0,38.46,4.44,-40.559998,0.17717093,1.0295067,9.497798,-0.01160644,0.0018325958,0.01038471,-0.10795406997203827,-0.018651733174920082,-1.3522989749908447,1023.376,
2021.02.09 08:36:27,79.0,24.0,38.7,4.2,-40.2,-0.0023942017,0.9911995,9.646238,0.023823744,0.009162978,-0.0036651916,-0.10239565372467041,2.4820055114105344E-4,-1.3597677946090698,1023.376,
2021.02.09 08:36:27,79.0,24.0,38.579998,4.14,-40.739998,0.1316811,1.0510546,9.504981,-0.0061086523,-0.015271631,-0.03176499,-0.11012142896652222,-0.013853018172085285,-1.3561451435089111,1023.3811,
2021.02.09 08:36:27,79.0,24.0,38.579998,4.5,-41.04,0.009576807,1.0103531,9.873688,-0.01282817,-0.0018325958,-0.03970624,-0.10197286307811737,-9.699318325147033E-4,-1.350441336631775,1023.3811,
2021.02.09 08:36:27,79.0,24.0,38.28,4.44,-41.64,0.10295067,0.9864111,9.639056,-0.044593163,-0.048258353,-0.059864793,-0.10197403281927109,-0.01068016979843378,-1.3519080877304077,1023.3811,
2021.02.09 08:36:27,79.0,24.0,38.34,4.74,-41.879997,-0.01436521,0.92176765,9.706094,0.0067195175,-0.028099801,-0.06414085,-0.09468385577201843,0.0014800187200307846,-1.3477165699005127,1023.3811,
2021.02.09 08:36:27,79.0,24.0,38.34,4.8599997,-41.76,-0.06943185,0.93373865,9.52174,0.015271631,-0.03176499,-0.055588737,-0.09774874895811081,0.007291799411177635,-1.339950442314148,1023.3833,
2021.02.09 08:36:27,79.0,24.0,38.34,4.44,-41.16,0.074220255,1.0031705,9.691729,-0.0061086523,-0.02687807,-0.0421497,-0.10313760489225388,-0.007657953538000584,-1.3512922525405884,1023.3833,
2021.02.09 08:36:27,79.0,24.0,38.64,4.44,-40.86,0.10534488,0.9648633,9.52174,-0.018936822,-0.042760566,-0.04520403,-0.10098180919885635,-0.011063164100050926,-1.3568482398986816,1023.3833,
2021.02.09 08:36:27,79.0,24.0,38.76,4.2599998,-41.04,0.062249243,0.94810385,9.452309,-0.014660766,-0.01282817,-0.051923547,-0.09996742755174637,-0.006585517432540655,-1.3610371351242065,1023.3833,
2021.02.09 08:36:27,79.0,24.0,38.64,4.62,-41.16,0.047884032,0.93852705,9.667787,-0.070249505,-0.019547688,-0.05375614,-0.09677334129810333,-0.0049529061652719975,-1.3539692163467407,1023.3926,
2021.02.09 08:36:27,79.0,24.0,38.46,5.2799997,-41.34,-0.06464344,0.878672,9.706094,-0.10873401,-0.028710667,-0.058643065,-0.09027978777885437,0.006659989710897207,-1.3391057252883911,1023.3926,
2021.02.09 08:36:27,79.0,24.0,38.46,6.0,-41.46,0.019153614,0.8619126,9.900024,-0.0842994,-0.020158553,-0.043982297,-0.08684252202510834,-0.001934701343998313,-1.3274823427200317,1023.3926,
2021.02.09 08:36:27,79.0,24.0,38.28,6.0,-41.219997,0.050278235,0.8619126,9.737218,-0.039095376,-0.019547688,-0.029321533,-0.08828605711460114,-0.0051634651608765125,-1.326539158821106,1023.3926,
2021.02.09 08:36:27,79.0,24.0,37.86,6.3599997,-40.92,0.06943185,0.8714894,9.651027,0.027488936,-0.014660766,-0.017715093,-0.09005361050367355,-0.007194120436906815,-1.314716100692749,1023.39404,
2021.02.09 08:36:27,79.0,24.0,37.68,6.18,-41.16,0.090979666,0.8643068,9.449914,0.028710667,-0.019547688,-0.022602014,-0.09120391309261322,-0.009627267718315125,-1.3171546459197998,1023.39404,
2021.02.09 08:36:27,79.0,24.0,37.739998,5.8199997,-41.16,-0.059855044,0.8475474,9.734824,0.015882496,0.0030543262,-0.015271631,-0.086842842400074,0.006148471496999264,-1.3254026174545288,1023.39404,
2021.02.09 08:36:27,79.0,24.0,37.68,6.06,-41.399998,0.016759412,0.91697925,9.490616,-0.012217305,-0.01038471,-0.01038471,-0.09632043540477753,-0.0017658912111073732,-1.3116899728775024,1023.39404,
2021.02.09 08:36:28,79.0,24.0,38.1,5.4,-41.64,0.0047884034,0.85473,9.648633,-0.0067195175,0.008552114,0.010995574,-0.08835495263338089,-4.962778766639531E-4,-1.3376680612564087,1023.3977,
2021.02.09 08:36:28,79.0,24.0,38.16,5.4,-41.82,0.08619126,0.8882488,9.813833,-0.030543262,-0.007941248,0.016493361,-0.09026046097278595,-0.0087824035435915,-1.33841872215271,1023.3977,
2021.02.09 08:36:28,79.0,24.0,37.92,5.7,-41.94,0.0,0.8475474,9.619903,-0.021380283,-0.005497787,0.027488936,-0.08787662535905838,1.0E-6,-1.3288278579711914,1023.3977,
2021.02.09 08:36:28,79.0,24.0,38.04,5.7599998,-42.42,0.11731588,0.89782566,9.504981,0.015882496,-0.007941248,0.040927973,-0.09417186677455902,-0.012341941706836224,-1.324872374534607,1023.3977,
2021.02.09 08:36:28,79.0,24.0,38.1,6.06,-42.239998,0.04309563,0.8451532,9.727641,-0.0067195175,0.0018325958,0.057421334,-0.086663156747818,-0.004430194851011038,-1.3231892585754395,1023.39087,
2021.02.09 08:36:28,79.0,24.0,38.04,6.3599997,-42.42,-0.107739076,0.7613561,9.725247,-0.035430185,0.012217305,0.032986723,-0.07812242954969406,0.011077833361923695,-1.3185175657272339,1023.39087,
2021.02.09 08:36:28,79.0,24.0,38.34,6.06,-42.42,0.11731588,0.8355764,9.500193,-0.007941248,0.019547688,0.052534413,-0.08772122859954834,-0.01234816201031208,-1.3259124755859375,1023.39087,
2021.02.09 08:36:28,79.0,24.0,38.1,6.12,-42.0,0.12928689,0.8283938,9.545682,-0.0018325958,0.019547688,0.07086037,-0.08655726909637451,-0.013543189503252506,-1.3254114389419556,1023.39087,
2021.02.09 08:36:28,79.0,24.0,38.04,5.94,-42.12,0.059855044,0.7781156,9.864111,-0.037873644,0.030543262,0.05497787,-0.07871903479099274,-0.00606788694858551,-1.334637999534607,1023.3884,
2021.02.09 08:36:28,79.0,24.0,38.04,5.64,-41.7,0.12210429,0.79966336,9.55047,-0.054367006,0.02565634,0.050701816,-0.08352860808372498,-0.012784463353455067,-1.3401163816452026,1023.3884,
2021.02.09 08:36:28,79.0,24.0,37.98,5.64,-41.52,0.15801731,0.82360536,9.502586,0.017715093,0.015882496,0.056199603,-0.08644375950098038,-0.016627341508865356,-1.3384578227996826,1023.3884,
2021.02.09 08:36:28,79.0,24.0,38.52,5.52,-41.579998,0.093373865,0.80924016,9.660604,-0.017104227,0.017715093,0.04153884,-0.0835680440068245,-0.009665126912295818,-1.3450062274932861,1023.3884,
2021.02.09 08:36:28,79.0,24.0,38.579998,5.7599998,-41.34,0.12928689,0.79008657,9.794679,-0.032986723,0.018325957,0.028710667,-0.08048361539840698,-0.013198940083384514,-1.3441063165664673,1023.38916,
2021.02.09 08:36:28,79.0,24.0,39.0,5.46,-41.399998,0.20590134,0.81881696,9.524135,-0.008552114,0.0036651916,0.017715093,-0.08574201911687851,-0.021615535020828247,-1.3509615659713745,1023.38916,
2021.02.09 08:36:28,79.0,24.0,38.7,5.8199997,-41.579998,0.079008654,0.79248077,9.734824,-6.1086525E-4,0.008552114,0.007330383,-0.08122500777244568,-0.00811590626835823,-1.3405832052230835,1023.38916,
2021.02.09 08:36:28,79.0,24.0,38.46,5.58,-41.399998,0.079008654,0.79008657,9.593566,-0.017715093,0.002443461,-0.017104227,-0.08216767013072968,-0.008235401473939419,-1.3445061445236206,1023.38916,
2021.02.09 08:36:28,79.0,24.0,38.04,5.52,-41.46,0.093373865,0.7661445,9.7563715,-0.019547688,0.008552114,-0.017104227,-0.07836321741342545,-0.009570260532200336,-1.3476959466934204,1023.385,
2021.02.09 08:36:28,79.0,24.0,37.38,5.4,-41.399998,0.1340753,0.81402856,9.56723,-0.0036651916,0.004886922,-0.019547688,-0.08487235009670258,-0.014013096690177917,-1.341844081878662,1023.385,
2021.02.09 08:36:28,79.0,24.0,37.92,5.16,-41.04,0.04070143,0.7661445,9.8042555,0.007330383,0.0030543262,-0.026267206,-0.07798492908477783,-0.004151380620896816,-1.3555115461349487,1023.385,
2021.02.09 08:36:28,79.0,24.0,37.86,5.4,-41.399998,0.11492168,0.79008657,9.605537,0.004276057,-0.017104227,-0.040317107,-0.08206263929605484,-0.011963536962866783,-1.346785545349121,1023.385,
2021.02.09 08:36:28,79.0,24.0,38.219997,5.4,-41.34,0.033518825,0.7781156,9.651027,0.02565634,-0.009773844,-0.03481932,-0.08045066148042679,-0.003473069751635194,-1.3479357957839966,1023.3843,
2021.02.09 08:36:28,79.0,24.0,38.34,5.94,-41.7,0.090979666,0.79008657,9.560047,0.016493361,-0.014049901,-0.04153884,-0.08245352655649185,-0.009516367688775063,-1.3345774412155151,1023.3843,
2021.02.09 08:36:28,79.0,24.0,37.98,6.06,-42.059998,0.076614454,0.7661445,9.730036,-0.009773844,-6.1086525E-4,-0.03604105,-0.07857560366392136,-0.007873852737247944,-1.3321729898452759,1023.3843,
2021.02.09 08:36:28,79.0,24.0,38.04,6.12,-41.64,0.035913024,0.7757214,9.677363,-0.0018325958,0.0018325958,-0.03848451,-0.07998676598072052,-0.0037110168486833572,-1.3290812969207764,1023.3843,
2021.02.09 08:36:28,79.0,24.0,38.1,6.3599997,-42.059998,0.079008654,0.81163436,9.536105,0.009162978,-0.009773844,-0.029321533,-0.08490420132875443,-0.008285022340714931,-1.3193364143371582,1023.3862,
2021.02.09 08:36:29,79.0,24.0,38.76,6.18,-41.579998,0.0047884034,0.7062895,9.773131,-0.0036651916,0.004886922,-0.034208454,-0.0721430629491806,-4.899558844044805E-4,-1.3388538360595703,1023.3862,
2021.02.09 08:36:29,79.0,24.0,38.64,6.18,-41.04,0.06943185,0.78529817,9.639056,-0.01038471,-0.014660766,-0.029932396,-0.08128880709409714,-0.007203054614365101,-1.3322174549102783,1023.3862,
2021.02.09 08:36:29,79.0,24.0,38.76,6.0,-41.28,0.05267244,0.78290397,9.581595,0.021380283,-0.004276057,-0.022602014,-0.08152680844068527,-0.00549719575792551,-1.3360360860824585,1023.3862,
2021.02.09 08:36:29,79.0,24.0,38.579998,5.94,-41.1,0.038307227,0.7469909,9.672575,-0.002443461,0.0,-0.030543262,-0.07707413285970688,-0.0039603752084076405,-1.3407009840011597,1023.38135,
2021.02.09 08:36:29,79.0,24.0,38.7,6.3599997,-41.219997,0.07182605,0.7541735,9.694122,-0.009162978,-0.002443461,-0.023823744,-0.07763847708702087,-0.007409100886434317,-1.331508994102478,1023.38135,
2021.02.09 08:36:29,79.0,24.0,38.579998,6.2999997,-41.399998,0.04070143,0.80445176,9.5385,0.009773844,-0.004276057,-0.017104227,-0.08413747698068619,-0.004267042502760887,-1.3245078325271606,1023.38135,
2021.02.09 08:36:29,79.0,24.0,38.28,6.42,-41.46,-0.055066638,0.7350199,9.797073,0.0012217305,0.002443461,-0.02443461,-0.07488296180963516,0.005620663985610008,-1.32561457157135,1023.38135,
2021.02.09 08:36:29,79.0,24.0,38.64,6.6,-41.579998,0.05267244,0.80924016,9.557653,-0.007941248,-0.012217305,-0.017715093,-0.0844665914773941,-0.005510966293513775,-1.3173786401748657,1023.3789,
2021.02.09 08:36:29,79.0,24.0,38.219997,6.3599997,-41.7,0.035913024,0.7565677,9.540894,0.017715093,-0.002443461,-0.0030543262,-0.07913123071193695,-0.0037640975788235664,-1.3250609636306763,1023.3789,
2021.02.09 08:36:29,79.0,24.0,38.1,6.54,-41.76,0.05746084,0.78050977,9.682152,-0.008552114,-0.0018325958,-0.0067195175,-0.08043789863586426,-0.0059346482157707214,-1.3192189931869507,1023.3789,
2021.02.09 08:36:29,79.0,24.0,38.46,6.7799997,-41.76,-0.047884032,0.7374141,9.703699,-0.034208454,0.0030543262,-0.0030543262,-0.07584640383720398,0.004934576340019703,-1.3165932893753052,1023.3789,
2021.02.09 08:36:29,79.0,24.0,38.1,6.2999997,-41.64,0.21787235,0.80924016,9.718064,-0.023823744,-0.007941248,0.002443461,-0.08305929601192474,-0.022415559738874435,-1.3281042575836182,1023.37573,
2021.02.09 08:36:29,79.0,24.0,38.28,6.18,-42.0,0.11731588,0.7757214,9.560047,-0.017104227,-0.014660766,0.028710667,-0.08095855265855789,-0.012270859442651272,-1.330190896987915,1023.37573,
2021.02.09 08:36:29,79.0,24.0,38.34,5.94,-41.94,0.06703765,0.7374141,9.643845,-0.02076942,-0.0067195175,0.01038471,-0.07631440460681915,-0.006951228715479374,-1.3394534587860107,1023.37573,
2021.02.09 08:36:29,79.0,24.0,37.92,6.24,-41.879997,0.0023942017,0.7182605,9.607931,-0.052534413,0.019547688,0.019547688,-0.07461823523044586,-2.491901395842433E-4,-1.3292587995529175,1023.37573,
2021.02.09 08:36:29,79.0,24.0,37.92,6.54,-41.879997,0.076614454,0.7422025,9.909601,-0.08368854,0.018936822,0.02443461,-0.07475551217794418,-0.007731182035058737,-1.3241711854934692,1023.38184,
2021.02.09 08:36:29,79.0,24.0,37.8,6.54,-41.28,0.033518825,0.6560113,9.653421,-0.047647487,0.03176499,0.014049901,-0.06785161793231964,-0.0034722082782536745,-1.3300631046295166,1023.38184,
2021.02.09 08:36:29,79.0,24.0,38.219997,6.6,-41.28,0.088585466,0.6919243,9.562442,0.014660766,0.034208454,0.026267206,-0.07222955673933029,-0.009263630956411362,-1.3285999298095703,1023.38184,
2021.02.09 08:36:29,79.0,24.0,38.7,6.0,-41.16,0.16280572,0.7469909,9.56723,0.009162978,0.044593163,0.03604105,-0.07790876179933548,-0.017015375196933746,-1.3429739475250244,1023.38184,
2021.02.09 08:36:29,79.0,24.0,39.12,5.7,-40.86,-0.11731588,0.6727707,9.895236,-0.031154128,0.06780604,0.004886922,-0.06788013130426407,0.011855239048600197,-1.3544840812683105,1023.3877,
2021.02.09 08:36:29,79.0,24.0,39.059998,5.8799996,-41.219997,0.01436521,0.7302315,9.52174,-0.009162978,0.06414085,0.015271631,-0.07654105871915817,-0.0015086737694218755,-1.3444336652755737,1023.3877,
2021.02.09 08:36:29,79.0,24.0,39.48,5.7,-40.98,-0.062249243,0.6823475,9.600749,0.022602014,0.062308256,0.028099801,-0.07095152139663696,0.006483699195086956,-1.3546854257583618,1023.3877,
2021.02.09 08:36:29,79.0,24.0,39.48,5.8799996,-40.92,0.021547815,0.7374141,9.560047,-0.007330383,0.047647487,0.017715093,-0.07698235660791397,-0.002253940561786294,-1.3471016883850098,1023.3877,
2021.02.09 08:36:29,79.0,24.0,39.239998,5.8799996,-41.16,-0.10534488,0.6943185,9.722853,-0.02443461,0.06047566,0.022602014,-0.07128579169511795,0.010834346525371075,-1.3470622301101685,1023.3943,
2021.02.09 08:36:29,79.0,24.0,39.6,5.7,-40.559998,-0.10295067,0.7422025,8.944737,-0.04642576,0.04153884,0.028099801,-0.0827813372015953,0.011509127914905548,-1.3429886102676392,1023.3943,
2021.02.09 08:36:30,79.0,24.0,39.059998,5.64,-40.44,0.08379706,0.6943185,10.407595,-0.025045475,0.042760566,0.025045475,-0.06661181151866913,-0.008051356300711632,-1.3631341457366943,1023.3943,
2021.02.09 08:36:30,79.0,24.0,38.879997,5.7599998,-40.14,-0.30406362,0.79966336,11.848905,-0.059253927,-0.021380283,0.03726278,-0.06736408174037933,0.025656118988990784,-1.349439024925232,1023.3943,
