Time,X-cord,Y-cord,Mag_x,Mag_y,Mag_z,Acc_x,Acc_y,Acc_z,Gyro_x,Gyro_y,Gyro_z,Orn_x,Orn_y,Orn_z,Pressure,
2021.02.09 08:34:07,77.0,16.0,9.48,-32.94,-40.379997,-0.3184288,0.6440403,10.342952,0.10751228,0.16371189,-0.07269296,-0.06215885281562805,0.03077731281518936,-2.8767104148864746,1023.3733,
2021.02.09 08:34:07,77.0,16.0,9.42,-33.059998,-40.14,-0.46447513,0.50038815,9.229648,0.2669481,0.08857546,-0.032375857,-0.05409396067261696,0.0502818338572979,-2.9062259197235107,1023.3733,
2021.02.09 08:34:07,77.0,16.0,9.42,-33.36,-40.379997,-0.107739076,0.5530606,8.573636,0.15027285,0.0036651916,0.03848451,-0.06441280245780945,0.01256566122174263,-2.858931064605713,1023.3694,
2021.02.09 08:34:07,77.0,16.0,9.24,-33.48,-39.96,0.095768064,0.7038953,8.985439,-0.15332718,-0.019547688,0.032375857,-0.07817324250936508,-0.010657736100256443,-2.832472801208496,1023.3694,
2021.02.09 08:34:07,77.0,16.0,8.76,-33.36,-39.6,-0.01436521,0.61770403,9.959879,-0.30787608,-0.04337143,-0.02443461,-0.06193983554840088,0.00144230667501688,-2.866584062576294,1023.3694,
2021.02.09 08:34:07,77.0,16.0,8.76,-33.42,-40.02,0.019153614,0.39743748,10.093954,-0.1966986,-0.087964594,-0.026267206,-0.03935341536998749,-0.001897530979476869,-2.870734453201294,1023.3694,
2021.02.09 08:34:07,77.0,16.0,8.88,-32.88,-40.2,-0.11492168,0.30166942,9.880871,-0.16249016,-0.13439035,-0.010995574,-0.03051910549402237,0.01163019984960556,-2.881701946258545,1023.3718,
2021.02.09 08:34:07,77.0,16.0,9.059999,-32.7,-40.739998,0.32800564,0.38307226,10.0029745,-0.07147124,-0.13927728,-0.026267206,-0.03825658932328224,-0.032779064029455185,-2.819448232650757,1023.3718,
2021.02.09 08:34:07,77.0,16.0,9.179999,-32.64,-41.16,0.17238252,0.25378537,9.361329,0.007330383,-0.035430185,-0.045814894,-0.027098743245005608,-0.018412239849567413,-2.8361945152282715,1023.3718,
2021.02.09 08:34:07,77.0,16.0,9.36,-32.399998,-41.34,0.30885202,0.38067806,9.44752,-0.09407325,-0.07941248,-0.06963864,-0.04025069996714592,-0.03267969563603401,-2.8062946796417236,1023.3718,
2021.02.09 08:34:07,77.0,16.0,9.36,-31.92,-41.64,0.23942018,0.33279404,10.041282,-0.0983493,-0.051923547,-0.061086524,-0.03312104940414429,-0.02383906953036785,-2.8147575855255127,1023.3716,
2021.02.09 08:34:07,77.0,16.0,9.54,-31.92,-41.879997,0.24420857,0.40701428,9.792285,-0.02321288,-0.032375857,-0.10140363,-0.04152798280119896,-0.02493370696902275,-2.8042187690734863,1023.3716,
2021.02.09 08:34:07,77.0,16.0,9.54,-32.04,-42.239998,-0.08619126,0.19871874,9.694122,-0.02321288,-0.029932396,-0.093462385,-0.020495207980275154,0.00889084953814745,-2.8556110858917236,1023.3716,
2021.02.09 08:34:07,77.0,16.0,9.36,-31.859999,-42.6,0.055066638,0.18195933,10.089166,0.059253927,-0.040927973,-0.036651913,-0.018032899126410484,-0.0054579428397119045,-2.842301845550537,1023.3716,
2021.02.09 08:34:07,77.0,16.0,9.3,-31.859999,-42.54,0.22744916,0.34237084,9.646238,0.14538592,-0.0018325958,-0.02443461,-0.03546793386340141,-0.02357468567788601,-2.8143060207366943,1023.37866,
2021.02.09 08:34:07,77.0,16.0,9.059999,-31.74,-42.42,0.2657564,0.39504328,9.512163,0.10567969,0.0061086523,-0.04642576,-0.041490308940410614,-0.027931321412324905,-2.8122611045837402,1023.37866,
2021.02.09 08:34:07,77.0,16.0,9.179999,-31.679998,-41.94,-0.035913024,0.39743748,9.703699,0.057421334,-0.002443461,-0.05681047,-0.040934160351753235,0.003700945293530822,-2.8487884998321533,1023.37866,
2021.02.09 08:34:07,77.0,16.0,8.7,-32.1,-41.34,0.01436521,0.35913026,9.883265,0.087964594,0.017715093,-0.014660766,-0.03632119670510292,-0.0014534873189404607,-2.8625833988189697,1023.37866,
2021.02.09 08:34:07,77.0,16.0,8.58,-32.28,-41.399998,0.08140286,0.4261679,9.533711,0.13927728,0.029932396,-0.01282817,-0.04466978833079338,-0.008538215421140194,-2.8558053970336914,1023.37646,
2021.02.09 08:34:08,77.0,16.0,8.46,-32.219997,-41.16,0.023942016,0.39983168,9.320627,0.08124508,0.019547688,-0.014660766,-0.042871080338954926,-0.002568707335740328,-2.867180824279785,1023.37646,
2021.02.09 08:34:08,77.0,16.0,8.46,-32.16,-41.1,-0.035913024,0.4381389,9.677363,-6.1086525E-4,0.01038471,-0.005497787,-0.045243408530950546,0.0037110168486833572,-2.8737165927886963,1023.37646,
2021.02.09 08:34:08,77.0,16.0,8.82,-32.04,-41.34,-0.021547815,0.49320555,9.923966,0.05009095,0.0421497,0.021380283,-0.04965746030211449,0.002171287080273032,-2.8579366207122803,1023.37646,
2021.02.09 08:34:08,77.0,16.0,9.0,-32.399998,-40.92,-0.009576807,0.5746084,9.334992,0.07269296,0.0421497,0.015882496,-0.06147664040327072,0.0010259037371724844,-2.8498048782348633,1023.36914,
2021.02.09 08:34:08,77.0,16.0,9.12,-32.7,-40.739998,-0.021547815,0.5674258,9.531317,-0.0061086523,0.034208454,0.004276057,-0.059462450444698334,0.0022607347927987576,-2.851292848587036,1023.36914,
2021.02.09 08:34:08,77.0,16.0,9.42,-32.76,-40.739998,-0.035913024,0.6344634,9.682152,-0.042760566,0.05375614,-0.01160644,-0.06543517112731934,0.003709181444719434,-2.8421578407287598,1023.36914,
2021.02.09 08:34:08,77.0,16.0,9.84,-32.76,-40.2,-0.08379706,0.5434838,9.868899,-0.028099801,0.042760566,-0.019547688,-0.05501280725002289,0.008490819483995438,-2.8396501541137695,1023.36914,
2021.02.09 08:34:08,77.0,16.0,9.719999,-32.64,-40.079998,-0.062249243,0.5434838,9.691729,-0.002443461,0.032986723,-0.002443461,-0.056017253547906876,0.00642283633351326,-2.839287281036377,1023.3782,
2021.02.09 08:34:08,77.0,16.0,9.599999,-32.76,-40.8,0.1388637,0.641646,9.847352,-0.02687807,0.032375857,-0.007330383,-0.0650608167052269,-0.014100693166255951,-2.815098524093628,1023.3782,
2021.02.09 08:34:08,77.0,16.0,9.36,-32.76,-40.92,-0.17238252,0.5243302,10.022128,-0.0036651916,0.019547688,-0.040927973,-0.05226187780499458,0.01719849556684494,-2.865692377090454,1023.3782,
2021.02.09 08:34:08,77.0,16.0,9.12,-32.88,-41.16,-0.19393034,0.4333505,9.349358,0.07819075,0.012217305,-0.023823744,-0.04630773514509201,0.020739663392305374,-2.880502223968506,1023.3782,
2021.02.09 08:34:08,77.0,16.0,8.88,-33.239998,-40.739998,-0.08379706,0.49320555,9.545682,-6.1086525E-4,0.0067195175,-0.018936822,-0.05162002891302109,0.008778305724263191,-2.8740530014038086,1023.37646,
2021.02.09 08:34:08,77.0,16.0,8.82,-32.76,-40.02,-0.107739076,0.545878,9.859323,0.01282817,0.0,-0.036651913,-0.055306918919086456,0.010927199386060238,-2.8733255863189697,1023.37646,
2021.02.09 08:34:08,77.0,16.0,8.82,-32.88,-40.02,-0.16759412,0.49559975,9.473856,0.05009095,0.004276057,-0.014660766,-0.05225655436515808,0.0176883265376091,-2.883596658706665,1023.37646,
2021.02.09 08:34:08,77.0,16.0,8.76,-32.82,-40.02,-0.093373865,0.521936,9.581595,0.01038471,-0.0061086523,-0.017715093,-0.05441640317440033,0.009744818322360516,-2.8745248317718506,1023.37646,
2021.02.09 08:34:08,77.0,16.0,9.179999,-32.399998,-40.44,-0.15083471,0.5315128,9.409213,-0.037873644,0.0018325958,-0.016493361,-0.056421346962451935,0.01602916046977043,-2.8650755882263184,1023.3833,
2021.02.09 08:34:08,77.0,16.0,9.599999,-32.7,-40.86,-0.16280572,0.5363012,9.7803135,-0.047647487,0.0061086523,-0.0012217305,-0.054772332310676575,0.016644731163978577,-2.8562750816345215,1023.3833,
2021.02.09 08:34:08,77.0,16.0,9.66,-32.34,-40.5,-0.1364695,0.56982,9.7563715,-0.0012217305,-0.0030543262,-0.0067195175,-0.05833294615149498,0.013986819423735142,-2.846529006958008,1023.3833,
2021.02.09 08:34:08,77.0,16.0,10.139999,-32.399998,-40.86,-0.12210429,0.5386954,9.655815,0.018936822,-0.0061086523,0.005497787,-0.0557275153696537,0.012645000591874123,-2.8318557739257812,1023.3833,
2021.02.09 08:34:08,77.0,16.0,9.96,-32.28,-40.86,-0.12689269,0.51235914,9.629479,0.015271631,-0.014049901,0.007941248,-0.053152624517679214,0.013176760636270046,-2.837859630584717,1023.38574,
2021.02.09 08:34:08,77.0,16.0,9.719999,-32.1,-40.92,-0.055066638,0.5770026,9.526528,-0.007330383,0.0036651916,0.02076942,-0.060493066906929016,0.0057802824303507805,-2.8311898708343506,1023.38574,
2021.02.09 08:34:08,77.0,16.0,9.78,-32.46,-40.559998,-0.031124622,0.59136784,9.653421,-0.02321288,0.0012217305,-0.002443461,-0.0611831471323967,0.0032241952139884233,-2.8295979499816895,1023.38574,
2021.02.09 08:34:08,77.0,16.0,9.48,-32.64,-40.62,-0.059855044,0.545878,9.725247,-0.02321288,0.0061086523,-0.007330383,-0.05607008561491966,0.006154526025056839,-2.845991373062134,1023.38574,
2021.02.09 08:34:08,77.0,16.0,9.48,-32.46,-40.62,-0.107739076,0.5506664,9.797073,0.005497787,0.002443461,-0.013439035,-0.05614476650953293,0.010996623896062374,-2.850268840789795,1023.3948,
2021.02.09 08:34:08,77.0,16.0,9.719999,-32.82,-40.32,-0.045489833,0.59376204,9.646238,0.020158553,0.007330383,-0.014049901,-0.061475493013858795,0.004715775605291128,-2.836667537689209,1023.3948,
2021.02.09 08:34:09,77.0,16.0,9.719999,-32.28,-41.04,-0.11971009,0.60812724,9.696517,0.016493361,0.0012217305,-0.037873644,-0.06262926012277603,0.01234505232423544,-2.8402488231658936,1023.3948,
2021.02.09 08:34:09,77.0,16.0,9.84,-32.34,-40.86,-0.19632454,0.5386954,9.763555,0.028710667,0.014049901,-0.021991149,-0.05510710924863815,0.020105184987187386,-2.8499040603637695,1023.3948,
2021.02.09 08:34:09,77.0,16.0,10.0199995,-32.46,-40.739998,-0.17717093,0.5434838,9.713276,0.055588737,-0.007330383,-0.007330383,-0.05588511750102043,0.01823805831372738,-2.842897891998291,1023.3833,
2021.02.09 08:34:09,77.0,16.0,9.84,-32.52,-40.92,-0.11731588,0.60812724,9.392453,0.031154128,-0.004276057,-0.007941248,-0.06465110182762146,0.01248979102820158,-2.8382351398468018,1023.3833,
2021.02.09 08:34:09,77.0,16.0,9.719999,-32.82,-40.379997,-0.02633622,0.59855044,9.744401,-0.0012217305,-0.02443461,-0.0036651916,-0.06134776026010513,0.0027026962488889694,-2.8342607021331787,1023.3833,
2021.02.09 08:34:09,77.0,16.0,9.24,-32.82,-40.14,-0.06703765,0.61291564,9.677363,0.013439035,-0.004886922,-0.017715093,-0.06324898451566696,0.006927153095602989,-2.853243589401245,1023.3833,
2021.02.09 08:34:09,77.0,16.0,9.059999,-33.18,-40.079998,-0.22026655,0.5554548,9.627085,0.018325957,-0.005497787,-0.021991149,-0.057618148624897,0.022875890135765076,-2.8832333087921143,1023.3711,
2021.02.09 08:34:09,77.0,16.0,9.059999,-33.059998,-40.26,-0.18914193,0.6344634,9.619903,0.002443461,-6.1086525E-4,-0.004886922,-0.06584514677524567,0.01965899020433426,-2.8754782676696777,1023.3711,
2021.02.09 08:34:09,77.0,16.0,9.059999,-33.12,-40.739998,-0.10055647,0.58657944,9.861717,0.007330383,-0.01160644,0.01160644,-0.05940737575292587,0.010196295566856861,-2.8665974140167236,1023.3711,
2021.02.09 08:34:09,77.0,16.0,9.42,-33.0,-40.8,-0.076614454,0.6512229,9.500193,0.036651913,0.008552114,0.012217305,-0.06843910366296768,0.00806434080004692,-2.8485403060913086,1023.3711,
2021.02.09 08:34:09,77.0,16.0,9.78,-32.579998,-40.8,-0.15322891,0.5626374,9.662998,0.002443461,-0.013439035,0.0036651916,-0.058153003454208374,0.015855954959988594,-2.847447633743286,1023.37256,
2021.02.09 08:34:09,77.0,16.0,9.9,-32.52,-40.44,-0.031124622,0.6536171,9.727641,-0.0067195175,-0.016493361,0.005497787,-0.06709054857492447,0.0031995954923331738,-2.8241055011749268,1023.37256,
2021.02.09 08:34:09,77.0,16.0,10.2,-32.94,-40.14,-0.1340753,0.61530983,9.648633,0.0067195175,0.007330383,0.01038471,-0.06367934495210648,0.013894888572394848,-2.8336246013641357,1023.37256,
2021.02.09 08:34:09,77.0,16.0,10.2,-33.3,-40.32,-0.055066638,0.6703765,9.545682,-0.018936822,-6.1086525E-4,0.0036651916,-0.0701119676232338,0.005768684204667807,-2.8246653079986572,1023.37256,
2021.02.09 08:34:09,77.0,16.0,9.96,-33.6,-40.739998,-0.07182605,0.62249243,9.801862,-0.015271631,-0.0030543262,-0.004886922,-0.06342069804668427,0.007327665574848652,-2.8389837741851807,1023.374,
2021.02.09 08:34:09,77.0,16.0,10.32,-34.14,-40.5,-0.079008654,0.60812724,9.77792,0.004886922,-0.013439035,-0.005497787,-0.062111902981996536,0.008080137893557549,-2.8349175453186035,1023.374,
2021.02.09 08:34:09,77.0,16.0,10.139999,-33.54,-40.739998,-0.04070143,0.6512229,9.569624,0.010995574,6.1086525E-4,0.0018325958,-0.06794566661119461,0.004253164399415255,-2.8276209831237793,1023.374,
2021.02.09 08:34:09,77.0,16.0,10.38,-33.12,-40.14,-0.1364695,0.6368576,9.744401,0.0061086523,-0.009162978,-0.02076942,-0.06525705754756927,0.014003998599946499,-2.829458236694336,1023.374,
2021.02.09 08:34:09,77.0,16.0,10.679999,-33.239998,-39.899998,-0.16998832,0.6368576,9.629479,0.014049901,6.1086525E-4,0.0018325958,-0.06602980941534042,0.01765107549726963,-2.825756549835205,1023.3721,
2021.02.09 08:34:09,77.0,16.0,10.679999,-33.059998,-39.96,-0.09816227,0.6392518,9.600749,0.010995574,-0.007330383,0.004886922,-0.06648194044828415,0.010224082507193089,-2.8150272369384766,1023.3721,
2021.02.09 08:34:09,77.0,16.0,10.86,-33.42,-40.079998,-0.08379706,0.61770403,9.507375,-0.017104227,-0.01038471,0.009162978,-0.06487734615802765,0.008813672699034214,-2.812310218811035,1023.3721,
2021.02.09 08:34:09,77.0,16.0,10.74,-33.719997,-40.5,-0.062249243,0.6512229,9.825804,-0.014660766,-0.022602014,0.008552114,-0.06617869436740875,0.006335197947919369,-2.815139055252075,1023.3721,
2021.02.09 08:34:09,77.0,16.0,10.98,-33.719997,-40.26,-0.14604631,0.61052144,9.509769,0.012217305,-0.0036651916,0.019547688,-0.064103864133358,0.015356295742094517,-2.8196463584899902,1023.3718,
2021.02.09 08:34:09,77.0,16.0,11.099999,-33.719997,-40.5,0.035913024,0.6464345,9.55047,-0.03848451,-0.0030543262,0.014660766,-0.06758257001638412,-0.0037603231612592936,-2.7924814224243164,1023.3718,
2021.02.09 08:34:09,77.0,16.0,11.219999,-34.079998,-40.02,-0.059855044,0.6368576,9.782708,-0.031154128,0.008552114,-0.012217305,-0.06500739604234695,0.0061183772049844265,-2.8053834438323975,1023.3718,
2021.02.09 08:34:10,77.0,16.0,11.28,-33.96,-39.899998,-0.038307227,0.6392518,9.739613,-0.009162978,0.0036651916,6.1086525E-4,-0.06553970277309418,0.00393311632797122,-2.7998526096343994,1023.3718,
2021.02.09 08:34:10,77.0,16.0,10.86,-33.96,-39.719997,0.04070143,0.6392518,9.660604,-0.002443461,0.005497787,-0.007330383,-0.06607408821582794,-0.004213110078126192,-2.8025259971618652,1023.3755,
2021.02.09 08:34:10,77.0,16.0,10.44,-34.079998,-39.66,-0.088585466,0.58897364,9.7324295,-0.022602014,0.0018325958,-0.017104227,-0.06044039502739906,0.009101839736104012,-2.8330001831054688,1023.3755,
2021.02.09 08:34:10,77.0,16.0,10.26,-33.84,-39.36,0.0047884034,0.62728083,9.737218,-0.007941248,6.1086525E-4,-0.005497787,-0.06433204561471939,-4.91762941237539E-4,-2.8237063884735107,1023.3755,
2021.02.09 08:34:10,77.0,16.0,10.32,-33.66,-39.42,-0.01436521,0.6392518,9.64145,-6.1086525E-4,0.0067195175,-0.012217305,-0.06620548665523529,0.0014899418456479907,-2.8217177391052246,1023.3755,
2021.02.09 08:34:10,77.0,16.0,10.32,-33.42,-39.899998,-0.06464344,0.5722142,9.737218,-0.017104227,-0.002443461,-0.015882496,-0.05869687348604202,0.006638702470809221,-2.8281161785125732,1023.376,
2021.02.09 08:34:10,77.0,16.0,10.0199995,-33.12,-40.14,-0.10055647,0.5793968,9.818622,0.016493361,-0.002443461,-0.012217305,-0.05893855541944504,0.010241045616567135,-2.838200092315674,1023.376,
2021.02.09 08:34:10,77.0,16.0,9.96,-32.88,-40.26,0.031124622,0.641646,9.536105,0.01282817,0.009162978,-0.009162978,-0.06718433648347855,-0.003263860009610653,-2.8181605339050293,1023.376,
2021.02.09 08:34:10,77.0,16.0,9.84,-32.94,-40.68,-0.11252748,0.5363012,9.821015,0.0018325958,-0.014660766,-0.018325957,-0.05454975739121437,0.011457324028015137,-2.844963312149048,1023.376,
2021.02.09 08:34:10,77.0,16.0,9.599999,-32.64,-40.68,0.0023942017,0.6607997,9.586384,0.005497787,0.012217305,-0.009773844,-0.06882220506668091,-2.4975024280138314E-4,-2.8292946815490723,1023.3784,
2021.02.09 08:34:10,77.0,16.0,9.9,-32.28,-40.739998,-0.16280572,0.58897364,9.797073,-0.0067195175,-0.002443461,-0.02687807,-0.06003676727414131,0.01661626063287258,-2.8411808013916016,1023.3784,
2021.02.09 08:34:10,77.0,16.0,9.9,-32.399998,-41.34,-0.079008654,0.59136784,9.55047,0.004886922,0.021380283,-0.008552114,-0.06183921918272972,0.008272561244666576,-2.8310179710388184,1023.3784,
2021.02.09 08:34:10,77.0,16.0,10.0199995,-32.64,-41.16,-0.047884032,0.60094464,9.85214,-0.0067195175,0.0030543262,-0.017715093,-0.06092015281319618,0.004860228393226862,-2.825950860977173,1023.3784,
2021.02.09 08:34:10,77.0,16.0,10.2,-32.88,-41.04,-0.15322891,0.58657944,9.7563715,0.016493361,0.004276057,-0.002443461,-0.06004303693771362,0.015704231336712837,-2.836599588394165,1023.3887,
2021.02.09 08:34:10,77.0,16.0,10.26,-33.3,-40.98,-0.023942016,0.6631939,9.667787,0.0036651916,0.0,-0.005497787,-0.06849080324172974,0.00247646844945848,-2.8192522525787354,1023.3887,
2021.02.09 08:34:10,77.0,16.0,10.5,-33.239998,-40.44,-0.035913024,0.59136784,9.6845455,0.0061086523,0.019547688,-0.01160644,-0.06098690629005432,0.0037082647904753685,-2.8165359497070312,1023.3887,
2021.02.09 08:34:10,77.0,16.0,10.139999,-33.48,-40.32,-0.11252748,0.58897364,9.703699,-0.010995574,0.014660766,-0.0067195175,-0.0606173500418663,0.011595829389989376,-2.8388848304748535,1023.3887,
2021.02.09 08:34:10,77.0,16.0,10.38,-33.48,-40.2,-0.076614454,0.60573304,9.706094,-0.0036651916,0.007941248,0.002443461,-0.062324732542037964,0.007893274538218975,-2.8268377780914307,1023.3906,
2021.02.09 08:34:10,77.0,16.0,10.2,-33.239998,-40.079998,-0.10534488,0.62249243,9.866506,0.022602014,-0.0061086523,0.0061086523,-0.06300438940525055,0.010676614008843899,-2.832911491394043,1023.3906,
2021.02.09 08:34:10,77.0,16.0,9.78,-33.0,-40.44,-0.031124622,0.7015011,9.504981,0.004886922,0.02321288,-0.0012217305,-0.07366955280303955,0.003274547401815653,-2.8297879695892334,1023.3906,
2021.02.09 08:34:10,77.0,16.0,10.0199995,-32.219997,-40.32,-0.11731588,0.5770026,9.849746,-0.013439035,-0.01038471,-0.007941248,-0.05850943922996521,0.011909986846148968,-2.831798553466797,1023.3906,
2021.02.09 08:34:10,77.0,16.0,9.84,-32.219997,-40.62,-0.06703765,0.6440403,9.744401,0.02687807,0.014049901,0.0030543262,-0.06599582731723785,0.00687949825078249,-2.82786226272583,1023.3933,
2021.02.09 08:34:10,77.0,16.0,9.66,-32.46,-40.32,-0.093373865,0.62967503,9.555259,0.0,0.004276057,-0.009162978,-0.06579999625682831,0.009771675802767277,-2.8395004272460938,1023.3933,
2021.02.09 08:34:10,77.0,16.0,9.599999,-32.46,-40.32,-0.12928689,0.59136784,9.737218,-0.004886922,0.0,0.004276057,-0.06065289303660393,0.013276820071041584,-2.8477110862731934,1023.3933,
2021.02.09 08:34:10,77.0,16.0,9.48,-32.579998,-40.559998,-0.074220255,0.6560113,9.763555,0.007330383,0.0036651916,-0.005497787,-0.06708703935146332,0.007601619698107243,-2.8428661823272705,1023.3933,
2021.02.09 08:34:11,77.0,16.0,9.54,-32.7,-40.079998,-0.17238252,0.60812724,9.595961,0.018325957,0.0030543262,6.1086525E-4,-0.0632784366607666,0.01796213909983635,-2.856499195098877,1023.3938,
2021.02.09 08:34:11,77.0,16.0,9.599999,-32.34,-40.44,-0.06703765,0.6607997,9.595961,-0.01160644,0.002443461,6.1086525E-4,-0.06875206530094147,0.0069859144277870655,-2.835482597351074,1023.3938,
2021.02.09 08:34:11,77.0,16.0,10.08,-32.399998,-39.899998,-0.17238252,0.60812724,9.737218,0.007941248,0.005497787,-0.004276057,-0.062363140285015106,0.017701618373394012,-2.8372647762298584,1023.3938,
2021.02.09 08:34:11,77.0,16.0,9.9,-32.52,-39.66,-0.10055647,0.6607997,9.531317,-0.0061086523,0.010995574,0.002443461,-0.06921472400426865,0.01054972130805254,-2.832514524459839,1023.3938,
2021.02.09 08:34:11,77.0,16.0,10.2,-32.34,-40.079998,-0.21068975,0.62967503,9.818622,-0.009162978,6.1086525E-4,0.004276057,-0.0640282928943634,0.021454887464642525,-2.8369336128234863,1023.3877,
2021.02.09 08:34:11,77.0,16.0,10.559999,-32.82,-39.6,-0.074220255,0.6751649,9.560047,-6.1086525E-4,0.014660766,0.009773844,-0.07050440460443497,0.00776343047618866,-2.8117125034332275,1023.3877,
2021.02.09 08:34:11,77.0,16.0,10.139999,-32.76,-40.14,-0.12449849,0.62249243,9.722853,-0.004276057,-0.0067195175,0.008552114,-0.06393114477396011,0.012804027646780014,-2.832291603088379,1023.3877,
2021.02.09 08:34:11,77.0,16.0,10.44,-33.059998,-40.2,-0.05267244,0.6871359,9.648633,-0.0036651916,0.007330383,0.007941248,-0.07109478861093521,0.005459002684801817,-2.814429998397827,1023.3877,
2021.02.09 08:34:11,77.0,16.0,10.32,-33.239998,-39.96,-0.11971009,0.63206923,9.61272,-6.1086525E-4,0.005497787,-6.1086525E-4,-0.06565383076667786,0.012452657334506512,-2.8304264545440674,1023.3823,
2021.02.09 08:34:11,77.0,16.0,10.139999,-33.059998,-40.32,-0.20111294,0.62009823,9.701305,-0.017104227,0.008552114,-0.0030543262,-0.0638185366988182,0.020727533847093582,-2.8447256088256836,1023.3823,
2021.02.09 08:34:11,77.0,16.0,10.139999,-32.94,-40.2,-0.15083471,0.6631939,9.703699,-0.004276057,6.1086525E-4,0.007330383,-0.06823011487722397,0.015542790293693542,-2.835566997528076,1023.3823,
2021.02.09 08:34:11,77.0,16.0,10.38,-32.34,-40.32,-0.06943185,0.6679823,9.665392,-0.004276057,0.013439035,0.0067195175,-0.06899924576282501,0.007183428853750229,-2.8118021488189697,1023.3823,
2021.02.09 08:34:11,77.0,16.0,10.2,-32.579998,-40.26,-0.21547815,0.56982,9.653421,-0.002443461,0.0,0.008552114,-0.058944713324308395,0.02231772243976593,-2.842320203781128,1023.38257,
2021.02.09 08:34:11,77.0,16.0,10.139999,-32.82,-40.14,-0.107739076,0.6536171,9.593566,-0.029932396,0.0030543262,0.007330383,-0.06802137941122055,0.01122987549751997,-2.8292934894561768,1023.38257,
2021.02.09 08:34:11,77.0,16.0,10.559999,-33.0,-40.32,-0.090979666,0.641646,9.801862,-0.014660766,0.01038471,0.01038471,-0.06536557525396347,0.009281609207391739,-2.8172061443328857,1023.38257,
2021.02.09 08:34:11,77.0,16.0,10.38,-33.18,-40.32,-0.11492168,0.6464345,9.703699,0.004276057,-0.0030543262,-0.002443461,-0.06651438772678375,0.011842526495456696,-2.8268942832946777,1023.38257,
2021.02.09 08:34:11,77.0,16.0,10.38,-32.76,-40.5,-0.1340753,0.60094464,9.646238,0.007330383,0.0067195175,0.002443461,-0.06221194192767143,0.013898337259888649,-2.8270339965820312,1023.3799,
2021.02.09 08:34:11,77.0,16.0,10.5,-32.64,-40.739998,-0.16280572,0.61530983,9.679757,0.002443461,-0.007330383,-0.004276057,-0.06347229331731796,0.01681760884821415,-2.825246572494507,1023.3799,
2021.02.09 08:34:11,77.0,16.0,10.86,-32.28,-40.5,-0.079008654,0.6464345,9.655815,0.007941248,0.004886922,0.0067195175,-0.06684570759534836,0.008182312361896038,-2.7987589836120605,1023.3799,
2021.02.09 08:34:11,77.0,16.0,10.5,-32.46,-40.739998,-0.10534488,0.61530983,9.674969,-0.0012217305,-0.005497787,-0.009773844,-0.06350883096456528,0.010887964628636837,-2.816166400909424,1023.3799,
2021.02.09 08:34:11,77.0,16.0,10.74,-32.399998,-40.8,-0.16519992,0.61530983,9.662998,-0.004886922,0.0030543262,-0.002443461,-0.06358178704977036,0.01709447056055069,-2.815890073776245,1023.39307,
2021.02.09 08:34:11,77.0,16.0,10.5,-32.219997,-40.739998,-0.15322891,0.59615624,9.636662,0.0030543262,-0.0012217305,0.0018325958,-0.06177683174610138,0.015899281948804855,-2.8206570148468018,1023.39307,
2021.02.09 08:34:11,77.0,16.0,9.84,-32.399998,-40.62,-0.1436521,0.6392518,9.607931,-0.010995574,0.004276057,0.0012217305,-0.06642844527959824,0.01495029404759407,-2.839491128921509,1023.39307,
2021.02.09 08:34:11,77.0,16.0,10.38,-32.399998,-40.62,-0.17717093,0.60812724,9.665392,-0.019547688,-0.007330383,6.1086525E-4,-0.06282465904951096,0.018328391015529633,-2.828662872314453,1023.39307,
2021.02.09 08:34:11,77.0,16.0,10.139999,-32.46,-40.739998,-0.08140286,0.61291564,9.672575,-0.007941248,-0.0067195175,0.01160644,-0.06327949464321136,0.008415643125772476,-2.8241052627563477,1023.38965,
2021.02.09 08:34:12,77.0,16.0,10.44,-32.64,-40.5,-0.1388637,0.59136784,9.67018,-0.01160644,-0.023823744,0.007941248,-0.06107141450047493,0.014359003864228725,-2.8250958919525146,1023.38965,
2021.02.09 08:34:12,77.0,16.0,10.679999,-32.82,-40.68,-0.06943185,0.6344634,9.605537,-0.017104227,-0.0012217305,0.0061086523,-0.0659543126821518,0.007228189148008823,-2.8089599609375,1023.38965,
2021.02.09 08:34:12,77.0,16.0,10.44,-32.76,-40.44,-0.14844051,0.59136784,9.861717,-0.012217305,-0.010995574,-0.005497787,-0.059887517243623734,0.015051060356199741,-2.827604055404663,1023.38965,
2021.02.09 08:34:12,77.0,16.0,10.2,-33.0,-40.44,-0.16280572,0.59615624,9.595961,0.012217305,-0.004886922,0.007941248,-0.06203710660338402,0.016964441165328026,-2.838510513305664,1023.3884,
2021.02.09 08:34:12,77.0,16.0,10.08,-33.0,-40.739998,-0.06464344,0.62488663,9.662998,-0.0018325958,-0.007330383,0.0067195175,-0.06457662582397461,0.006689691450446844,-2.828542709350586,1023.3884,
2021.02.09 08:34:12,77.0,16.0,10.26,-32.82,-40.559998,-0.110133275,0.59376204,9.682152,-0.01038471,-0.0018325958,0.0036651916,-0.06124475970864296,0.011374385096132755,-2.828538656234741,1023.3884,
2021.02.09 08:34:12,77.0,16.0,10.44,-33.0,-40.32,-0.055066638,0.6344634,9.706094,-0.002443461,-0.002443461,0.004276057,-0.06527362018823624,0.0056733484379947186,-2.8165056705474854,1023.3884,
2021.02.09 08:34:12,77.0,16.0,10.8,-32.64,-39.96,-0.11492168,0.58657944,9.703699,0.017104227,6.1086525E-4,-0.005497787,-0.06037135794758797,0.011842525564134121,-2.8117473125457764,1023.3938,
2021.02.09 08:34:12,77.0,16.0,11.04,-32.64,-39.899998,-0.18435353,0.581791,9.504981,0.014660766,0.0012217305,0.002443461,-0.06112132966518402,0.019393034279346466,-2.813251495361328,1023.3938,
2021.02.09 08:34:12,77.0,16.0,10.74,-32.88,-39.899998,0.038307227,0.6392518,9.428367,-0.03604105,0.0018325958,0.013439035,-0.06769674271345139,-0.004062953870743513,-2.7941882610321045,1023.3938,
2021.02.09 08:34:12,77.0,16.0,10.32,-32.82,-40.2,-0.16280572,0.5363012,9.813833,-0.08552113,-0.002443461,-0.009773844,-0.05458567664027214,0.016587890684604645,-2.835759401321411,1023.3938,
2021.02.09 08:34:12,77.0,16.0,10.2,-33.12,-40.559998,-0.14604631,0.5793968,9.734824,-0.047036625,0.0,0.002443461,-0.05944114550948143,0.015001334249973297,-2.8382787704467773,1023.38916,
2021.02.09 08:34:12,77.0,16.0,9.96,-33.0,-40.8,-0.12689269,0.5410896,9.607931,-0.028099801,0.016493361,-0.0018325958,-0.056252650916576385,0.013206309638917446,-2.843374729156494,1023.38916,
2021.02.09 08:34:12,77.0,16.0,10.2,-32.399998,-40.739998,-0.16759412,0.51954174,9.746795,-0.015882496,-0.004886922,0.018325957,-0.05324560031294823,0.017193099483847618,-2.8366618156433105,1023.38916,
2021.02.09 08:34:12,77.0,16.0,10.2,-32.399998,-41.04,-0.047884032,0.5793968,9.564836,-0.004276057,0.022602014,-0.004886922,-0.060501035302877426,0.005006216000765562,-2.818566083908081,1023.38916,
2021.02.09 08:34:12,77.0,16.0,10.26,-32.219997,-40.92,-0.18674773,0.5267244,9.672575,-0.018936822,0.002443461,0.007330383,-0.05439159646630287,0.019304532557725906,-2.835279941558838,1023.3816,
2021.02.09 08:34:12,77.0,16.0,10.26,-32.64,-40.92,-0.10055647,0.5722142,9.653421,-0.02076942,0.013439035,0.005497787,-0.05920330807566643,0.010416289791464806,-2.8263802528381348,1023.3816,
2021.02.09 08:34:12,77.0,16.0,10.08,-32.88,-41.1,-0.1364695,0.48602295,9.679757,-0.02565634,0.013439035,0.01282817,-0.050163134932518005,0.01409750897437334,-2.8421545028686523,1023.3816,
2021.02.09 08:34:12,77.0,16.0,10.559999,-32.64,-40.739998,-0.04070143,0.5291186,9.737218,0.015882496,0.002443461,0.015882496,-0.05428594350814819,0.004179961513727903,-2.8120627403259277,1023.3816,
2021.02.09 08:34:12,77.0,16.0,10.38,-32.88,-40.98,-0.035913024,0.5410896,9.507375,0.0018325958,0.017715093,-0.002443461,-0.05685088410973549,0.0037773679941892624,-2.818080186843872,1023.3767,
2021.02.09 08:34:12,77.0,16.0,10.38,-32.7,-40.8,-0.12449849,0.51475334,9.689334,-0.026267206,0.015882496,-0.004276057,-0.053071506321430206,0.012848317623138428,-2.8289029598236084,1023.3767,
2021.02.09 08:34:12,77.0,16.0,10.62,-32.7,-41.16,-0.1388637,0.50996494,9.813833,-0.0061086523,0.020158553,0.0036651916,-0.05191200599074364,0.014148848131299019,-2.823808193206787,1023.3767,
2021.02.09 08:34:12,77.0,16.0,9.96,-33.18,-41.16,-0.4357447,0.4333505,9.112331,-0.01160644,-0.014660766,0.02076942,-0.04746652767062187,0.047782834619283676,-2.8908755779266357,1023.3767,
2021.02.09 08:34:12,77.0,16.0,9.84,-32.64,-40.92,0.04070143,0.5602432,9.734824,-0.077579886,-0.02443461,0.03176499,-0.057486508041620255,-0.0041809892281889915,-2.821871519088745,1023.3833,
2021.02.09 08:34:12,77.0,16.0,9.9,-32.94,-41.16,0.1340753,0.6464345,10.654198,0.026267206,0.03604105,-0.0061086523,-0.060595087707042694,-0.012583605945110321,-2.8114101886749268,1023.3833,
2021.02.09 08:34:13,77.0,16.0,9.78,-32.82,-40.559998,-0.079008654,0.5626374,10.287885,0.25289822,0.16432275,-0.030543262,-0.054633285850286484,0.0076796249486505985,-2.8410749435424805,1023.3833,
