Time,X-cord,Y-cord,Mag_x,Mag_y,Mag_z,Acc_x,Acc_y,Acc_z,Gyro_x,Gyro_y,Gyro_z,Orn_x,Orn_y,Orn_z,Pressure,
2021.02.09 08:23:37,36.0,24.0,30.48,-10.5,-37.2,-0.48362875,0.2873042,10.223241,-0.06047566,0.14721853,-0.053145275,-0.02806428074836731,0.047271549701690674,-1.8878356218338013,1023.30347,
2021.02.09 08:23:37,36.0,24.0,30.0,-10.679999,-37.38,-0.28491,0.2753332,8.844181,0.226631,0.1160644,-0.017715093,-0.031105389818549156,0.03220326453447342,-1.8890790939331055,1023.30347,
2021.02.09 08:23:37,36.0,24.0,30.179998,-11.04,-37.38,-0.20590134,0.2705448,9.392453,-0.02687807,-0.09590584,0.017715093,-0.028789611533284187,0.021918486803770065,-1.8973264694213867,1023.30347,
2021.02.09 08:23:37,36.0,24.0,29.699999,-11.099999,-37.44,-0.20350714,0.20829555,10.187328,-0.12950343,-0.118507855,0.018325957,-0.02043960802257061,0.019973840564489365,-1.9132851362228394,1023.30347,
2021.02.09 08:23:37,36.0,24.0,29.939999,-11.46,-37.44,-0.076614454,0.33039984,10.139444,-0.026267206,-0.077579886,0.012217305,-0.032573141157627106,0.007555936463177204,-1.90288507938385,1023.29224,
2021.02.09 08:23:37,36.0,24.0,30.179998,-11.28,-37.2,-0.24181437,0.15801731,9.028535,0.12156218,-0.047036625,-0.023823744,-0.017493929713964462,0.02677694521844387,-1.9197245836257935,1023.29224,
2021.02.09 08:23:37,36.0,24.0,30.24,-11.34,-36.96,-0.20350714,0.32561144,9.435549,-0.009162978,-0.09407325,0.028710667,-0.03448730707168579,0.0215647853910923,-1.8994004726409912,1023.29224,
2021.02.09 08:23:37,36.0,24.0,30.72,-11.5199995,-36.96,-0.009576807,0.45968673,9.648633,-0.092240654,-0.048258353,0.044593163,-0.047606658190488815,9.925554040819407E-4,-1.8783681392669678,1023.29224,
2021.02.09 08:23:37,36.0,24.0,30.359999,-11.34,-37.2,-0.2705448,0.33518824,9.873688,-0.099571034,0.031154128,0.008552114,-0.03392186760902405,0.027393728494644165,-1.9007337093353271,1023.2898,
2021.02.09 08:23:37,36.0,24.0,30.359999,-11.5199995,-37.32,-0.2657564,0.272939,10.0987425,-0.03848451,0.025045475,0.047036625,-0.027011103928089142,0.026309719309210777,-1.9137650728225708,1023.2898,
2021.02.09 08:23:38,36.0,24.0,30.179998,-11.099999,-37.62,-0.16280572,0.46208093,9.727641,0.058643065,0.029321533,0.07269296,-0.04745953157544136,0.016734840348362923,-1.8750938177108765,1023.2898,
2021.02.09 08:23:38,36.0,24.0,30.24,-11.04,-37.559998,-0.15562311,0.320823,9.303867,0.07941248,0.028710667,0.056199603,-0.034464284777641296,0.016725152730941772,-1.888064980506897,1023.2898,
2021.02.09 08:23:38,36.0,24.0,30.539999,-11.28,-37.2,-0.02633622,0.21547815,9.392453,0.035430185,0.018325957,0.07147124,-0.022937512025237083,0.002803969196975231,-1.9007060527801514,1023.2849,
2021.02.09 08:23:38,36.0,24.0,30.359999,-11.759999,-36.96,-0.0047884034,0.24420857,9.847352,-0.020158553,0.043982297,0.06780604,-0.024794330820441246,4.862629866693169E-4,-1.913915991783142,1023.2849,
2021.02.09 08:23:38,36.0,24.0,30.359999,-11.639999,-36.719997,-0.16759412,0.36631286,9.7803135,-0.040317107,0.07819075,0.030543262,-0.03743111342191696,0.01713418774306774,-1.9024933576583862,1023.2849,
2021.02.09 08:23:38,36.0,24.0,30.599998,-11.639999,-36.6,-0.21547815,0.47644615,9.938332,-0.05131268,0.045814894,0.014049901,-0.04789234697818756,0.021678125485777855,-1.8898253440856934,1023.2849,
2021.02.09 08:23:38,36.0,24.0,30.66,-11.639999,-36.48,-0.4333505,0.7398083,10.01734,0.009773844,0.089186326,-0.01038471,-0.0736503005027771,0.043233081698417664,-1.8658080101013184,1023.28345,
2021.02.09 08:23:38,36.0,24.0,30.9,-11.5199995,-36.6,-0.44771573,0.37588966,9.861717,0.04337143,0.07880162,-0.06780604,-0.03805844113230705,0.045368216931819916,-1.9027131795883179,1023.28345,
2021.02.09 08:23:38,36.0,24.0,31.38,-12.179999,-36.54,-0.31603462,0.36152446,9.68694,0.021380283,0.0580322,-0.0030543262,-0.03728368133306503,0.03261324763298035,-1.9137154817581177,1023.28345,
2021.02.09 08:23:38,36.0,24.0,31.08,-12.3,-36.48,-0.21068975,0.35913026,9.660604,0.0421497,0.021380283,0.009162978,-0.03714878484606743,0.021805712953209877,-1.9167027473449707,1023.28345,
2021.02.09 08:23:38,36.0,24.0,31.14,-12.66,-36.6,-0.23463176,0.32321724,9.617508,0.047647487,0.02565634,0.009162978,-0.03358454257249832,0.024391477927565575,-1.9312902688980103,1023.29175,
2021.02.09 08:23:38,36.0,24.0,30.66,-12.48,-36.84,-0.18435353,0.36631286,9.586384,0.02687807,-0.02321288,0.0067195175,-0.038186147809028625,0.01922840066254139,-1.9240654706954956,1023.29175,
2021.02.09 08:23:38,36.0,24.0,29.88,-12.24,-36.899998,-0.18914193,0.48123455,9.481039,0.037873644,-0.007330383,-0.012217305,-0.0507039800286293,0.01994684897363186,-1.9113163948059082,1023.29175,
2021.02.09 08:23:38,36.0,24.0,30.3,-12.0,-36.84,-0.30406362,0.48362875,9.744401,-0.021380283,-0.01160644,-0.04886922,-0.04956667125225067,0.0311938114464283,-1.9049110412597656,1023.29175,
2021.02.09 08:23:38,36.0,24.0,30.0,-11.5199995,-37.14,-0.36391866,0.46208093,9.876082,-0.048258353,-0.028099801,-0.05009095,-0.04672212153673172,0.0368318185210228,-1.8983559608459473,1023.29565,
2021.02.09 08:23:38,36.0,24.0,30.779999,-11.58,-37.14,-0.33039984,0.36631286,9.749189,-0.014660766,-0.03726278,-0.03726278,-0.03753448277711868,0.03387701138854027,-1.9018223285675049,1023.29565,
2021.02.09 08:23:38,36.0,24.0,31.14,-11.5199995,-37.26,-0.25617957,0.4405331,9.461885,0.055588737,-0.009162978,-0.027488936,-0.04650808870792389,0.027068285271525383,-1.8834563493728638,1023.29565,
2021.02.09 08:23:38,36.0,24.0,30.779999,-11.58,-37.62,-0.2753332,0.4333505,9.842564,-0.007330383,-0.03176499,-0.029932396,-0.0439826138317585,0.027966434136033058,-1.8917039632797241,1023.29565,
2021.02.09 08:23:38,36.0,24.0,30.779999,-11.58,-37.44,-0.22984336,0.40940848,9.622296,0.032986723,-0.018325957,-0.023823744,-0.04251014068722725,0.023881997913122177,-1.892203450202942,1023.29346,
2021.02.09 08:23:38,36.0,24.0,30.359999,-11.46,-37.38,-0.32561144,0.37588966,9.636662,0.007941248,-0.007941248,-0.03176499,-0.03896423429250717,0.033775974065065384,-1.900652527809143,1023.29346,
2021.02.09 08:23:38,36.0,24.0,29.82,-11.639999,-37.32,-0.34955344,0.4141969,9.713276,-0.01038471,-0.0036651916,-0.03359759,-0.04258899763226509,0.035971660166978836,-1.9085782766342163,1023.29346,
2021.02.09 08:23:38,36.0,24.0,29.46,-11.58,-36.84,-0.23223756,0.49081135,9.835381,-0.004276057,-0.0061086523,-0.026267206,-0.049847397953271866,0.023608075454831123,-1.8978424072265625,1023.29346,
2021.02.09 08:23:38,36.0,24.0,29.76,-11.7,-36.54,-0.28491,0.46208093,9.631873,0.020158553,0.002443461,-0.036651913,-0.0479164682328701,0.02957129292190075,-1.9031660556793213,1023.302,
2021.02.09 08:23:38,36.0,24.0,29.82,-11.46,-36.42,-0.36631286,0.39743748,9.68694,0.005497787,0.007330383,-0.030543262,-0.04097592458128929,0.03779711574316025,-1.9063893556594849,1023.302,
2021.02.09 08:23:38,36.0,24.0,30.3,-11.16,-36.239998,-0.29209262,0.4141969,9.722853,0.008552114,-6.1086525E-4,-0.02443461,-0.04255543276667595,0.03003283217549324,-1.8875277042388916,1023.302,
2021.02.09 08:23:39,36.0,24.0,30.66,-11.4,-36.42,-0.31603462,0.45489833,9.653421,0.017104227,0.014660766,-0.02321288,-0.04706300422549248,0.03272640332579613,-1.8867417573928833,1023.302,
2021.02.09 08:23:39,36.0,24.0,30.539999,-10.92,-36.54,-0.320823,0.4333505,9.742006,0.01038471,0.009773844,-0.019547688,-0.04442931339144707,0.032920025289058685,-1.8761588335037231,1023.3013,
2021.02.09 08:23:39,36.0,24.0,30.179998,-10.92,-36.78,-0.36631286,0.41180268,9.672575,0.034208454,-0.0030543262,-0.010995574,-0.042518116533756256,0.03785319626331329,-1.8834633827209473,1023.3013,
2021.02.09 08:23:39,36.0,24.0,29.939999,-11.16,-36.719997,-0.2801216,0.47644615,9.605537,0.037873644,-0.004886922,0.0036651916,-0.04953955486416817,0.029154248535633087,-1.8821114301681519,1023.3013,
2021.02.09 08:23:39,36.0,24.0,30.179998,-10.98,-36.78,-0.24181437,0.48841715,9.639056,0.02565634,-0.012217305,0.004276057,-0.05061144381761551,0.02508167363703251,-1.8714215755462646,1023.3013,
2021.02.09 08:23:39,36.0,24.0,30.0,-11.099999,-37.14,-0.2873042,0.5267244,9.603143,0.018936822,-0.008552114,0.004276057,-0.05476980283856392,0.0299088042229414,-1.8729960918426514,1023.2993,
2021.02.09 08:23:39,36.0,24.0,30.359999,-10.92,-36.96,-0.29688102,0.50757074,9.7803135,0.015882496,-0.020158553,0.008552114,-0.0518268384039402,0.03034564107656479,-1.8677831888198853,1023.2993,
2021.02.09 08:23:39,36.0,24.0,30.42,-11.04,-37.5,-0.2777274,0.5602432,9.631873,0.04520403,-0.015882496,0.017104227,-0.058076001703739166,0.028826218098402023,-1.8621535301208496,1023.2993,
2021.02.09 08:23:39,36.0,24.0,30.179998,-11.28,-37.62,-0.090979666,0.5386954,9.679757,0.04153884,-0.022602014,0.023823744,-0.055591948330402374,0.00939868576824665,-1.868672251701355,1023.2993,
2021.02.09 08:23:39,36.0,24.0,30.179998,-11.639999,-37.38,-0.21308395,0.5722142,9.679757,0.021380283,-0.007941248,0.01282817,-0.05903153866529465,0.022009802982211113,-1.8799968957901,1023.29614,
2021.02.09 08:23:39,36.0,24.0,30.24,-12.179999,-37.26,-0.1604115,0.5650316,9.576807,0.015882496,-0.01282817,0.004886922,-0.05892343446612358,0.01674843207001686,-1.8945074081420898,1023.29614,
2021.02.09 08:23:39,36.0,24.0,30.42,-11.759999,-37.14,-0.17477672,0.5315128,9.672575,-0.007941248,-0.01038471,6.1086525E-4,-0.0548863485455513,0.018067339435219765,-1.8852776288986206,1023.29614,
2021.02.09 08:23:39,36.0,24.0,30.24,-11.5199995,-36.96,-0.23702596,0.5482722,9.794679,-0.020158553,-0.014049901,-0.0012217305,-0.055901847779750824,0.024194741621613503,-1.8807724714279175,1023.29614,
2021.02.09 08:23:39,36.0,24.0,30.179998,-11.7,-37.14,-0.19153613,0.56982,9.730036,0.0018325958,-0.007941248,0.005497787,-0.058484870940446854,0.019682496786117554,-1.882130742073059,1023.2959,
2021.02.09 08:23:39,36.0,24.0,29.88,-11.34,-37.38,-0.16998832,0.521936,9.653421,0.010995574,-0.02565634,0.0036651916,-0.054006509482860565,0.017607307061553,-1.8782649040222168,1023.2959,
2021.02.09 08:23:39,36.0,24.0,30.179998,-11.46,-37.32,-0.22266077,0.557849,9.574412,0.022602014,-0.004276057,0.009162978,-0.05818307772278786,0.023251624777913094,-1.875938892364502,1023.2959,
2021.02.09 08:23:39,36.0,24.0,30.179998,-11.639999,-37.62,-0.16280572,0.5267244,9.794679,-0.02443461,-0.013439035,0.0,-0.05371743068099022,0.016620323061943054,-1.8841934204101562,1023.2959,
2021.02.09 08:23:39,36.0,24.0,30.3,-11.34,-37.5,-0.079008654,0.56982,9.583989,0.008552114,-0.01282817,0.014660766,-0.059383489191532135,0.008243630640208721,-1.8647823333740234,1023.3008,
2021.02.09 08:23:39,36.0,24.0,30.48,-12.0,-37.86,-0.18914193,0.51235914,9.543288,-0.012217305,0.004886922,-0.0061086523,-0.05362589284777641,0.019816773012280464,-1.8929567337036133,1023.3008,
2021.02.09 08:23:39,36.0,24.0,30.06,-11.639999,-37.68,-0.17477672,0.51714754,9.737218,-0.035430185,-0.0067195175,0.0018325958,-0.05305201932787895,0.017947422340512276,-1.8865396976470947,1023.3008,
2021.02.09 08:23:39,36.0,24.0,30.179998,-11.7,-37.44,-0.1340753,0.49320555,9.751583,-0.025045475,-0.0061086523,0.0018325958,-0.05052914470434189,0.013748214580118656,-1.8890780210494995,1023.3008,
2021.02.09 08:23:39,36.0,24.0,29.82,-11.34,-37.38,-0.11971009,0.50517654,9.579201,-0.012217305,0.0,-0.005497787,-0.05268390104174614,0.012496226467192173,-1.878773808479309,1023.29956,
2021.02.09 08:23:39,36.0,24.0,29.76,-10.5,-37.26,-0.1388637,0.47405192,9.631873,-0.031154128,0.0,-0.008552114,-0.04917221888899803,0.0144161032512784,-1.858136773109436,1023.29956,
2021.02.09 08:23:39,36.0,24.0,29.46,-11.04,-37.32,-0.21068975,0.48841715,9.64145,-0.036651913,-6.1086525E-4,-0.008552114,-0.050602734088897705,0.021849019452929497,-1.878662109375,1023.29956,
2021.02.09 08:23:39,36.0,24.0,29.22,-10.679999,-37.32,-0.16280572,0.51235914,9.727641,-0.050701816,0.009773844,-0.0067195175,-0.05261445790529251,0.016734840348362923,-1.865449070930481,1023.29956,
2021.02.09 08:23:40,36.0,24.0,29.4,-11.16,-37.44,-0.22026655,0.44771573,9.660604,-0.030543262,0.0067195175,-0.01282817,-0.04629933461546898,0.022796547040343285,-1.8884943723678589,1023.3091,
2021.02.09 08:23:40,36.0,24.0,29.22,-11.639999,-37.14,-0.17717093,0.46686932,9.691729,-0.02321288,-0.0012217305,0.0018325958,-0.0481266975402832,0.01827859692275524,-1.9020503759384155,1023.3091,
2021.02.09 08:23:40,36.0,24.0,29.16,-11.46,-37.26,-0.1412579,0.48362875,9.696517,-0.014049901,-0.0030543262,0.005497787,-0.04982997104525566,0.014566870406270027,-1.8935173749923706,1023.3091,
2021.02.09 08:23:40,36.0,24.0,29.58,-11.82,-37.32,-0.17238252,0.46208093,9.718064,-0.020158553,0.005497787,-0.004276057,-0.04750541225075722,0.01773650012910366,-1.9040805101394653,1023.3091,
2021.02.09 08:23:40,36.0,24.0,29.519999,-11.28,-37.559998,-0.32800564,0.40222588,9.770737,-0.015271631,0.015271631,-0.0030543262,-0.0411200113594532,0.03355760499835014,-1.9011952877044678,1023.2991,
2021.02.09 08:23:40,36.0,24.0,29.58,-11.04,-37.62,-0.17238252,0.48123455,9.665392,0.023823744,-0.007941248,0.020158553,-0.049740470945835114,0.017833136022090912,-1.876745343208313,1023.2991,
2021.02.09 08:23:40,36.0,24.0,30.06,-11.04,-37.44,-0.17477672,0.47644615,9.749189,0.032375857,-0.004886922,0.015882496,-0.04882365092635155,0.017925387248396873,-1.8734047412872314,1023.2991,
2021.02.09 08:23:40,36.0,24.0,29.58,-10.86,-37.38,-0.23942018,0.45729253,9.576807,0.032986723,0.002443461,0.01282817,-0.04769887402653694,0.02499479241669178,-1.8762789964675903,1023.2991,
2021.02.09 08:23:40,36.0,24.0,30.06,-11.16,-37.2,-0.16759412,0.45010993,9.636662,0.027488936,-0.0012217305,0.02565634,-0.046667106449604034,0.017389550805091858,-1.879807949066162,1023.3032,
2021.02.09 08:23:40,36.0,24.0,29.939999,-11.46,-37.26,-0.15083471,0.50996494,9.662998,0.010995574,-6.1086525E-4,0.020158553,-0.05271969735622406,0.015608247369527817,-1.8824363946914673,1023.3032,
2021.02.09 08:23:40,36.0,24.0,30.179998,-11.5199995,-37.38,-0.21068975,0.48602295,9.610326,0.015882496,0.014660766,0.015271631,-0.05051782354712486,0.02191975526511669,-1.8864120244979858,1023.3032,
2021.02.09 08:23:40,36.0,24.0,30.599998,-11.639999,-37.38,-0.17238252,0.46208093,9.665392,-0.0012217305,0.01282817,0.013439035,-0.04776382818818092,0.017833136022090912,-1.8877288103103638,1023.3032,
2021.02.09 08:23:40,36.0,24.0,30.3,-11.94,-37.38,-0.15801731,0.48841715,9.643845,0.0030543262,0.014660766,0.013439035,-0.050595466047525406,0.016383836045861244,-1.8960267305374146,1023.301,
2021.02.09 08:23:40,36.0,24.0,30.3,-11.759999,-37.38,-0.22266077,0.49559975,9.703699,-0.0036651916,0.01282817,0.002443461,-0.05101553350687027,0.022941943258047104,-1.8923057317733765,1023.301,
2021.02.09 08:23:40,36.0,24.0,30.06,-11.7,-37.02,-0.19632454,0.48123455,9.713276,0.0030543262,0.010995574,6.1086525E-4,-0.04949343204498291,0.02020922861993313,-1.8942627906799316,1023.301,
2021.02.09 08:23:40,36.0,24.0,29.939999,-11.46,-37.38,-0.22505496,0.45729253,9.533711,0.01160644,0.009162978,-0.0012217305,-0.047915782779455185,0.023601844906806946,-1.8906846046447754,1023.301,
2021.02.09 08:23:40,36.0,24.0,30.119999,-11.58,-37.32,-0.21068975,0.51475334,9.701305,-0.0061086523,0.016493361,-6.1086525E-4,-0.052998028695583344,0.021714257076382637,-1.885931134223938,1023.3008,
2021.02.09 08:23:40,36.0,24.0,30.119999,-11.58,-37.32,-0.18435353,0.50038815,9.672575,-0.01160644,0.0061086523,-0.0030543262,-0.05167722329497337,0.019057098776102066,-1.8866089582443237,1023.3008,
2021.02.09 08:23:40,36.0,24.0,29.939999,-11.58,-37.62,-0.19632454,0.48602295,9.746795,-0.009162978,0.004276057,-0.0030543262,-0.049813542515039444,0.020139750093221664,-1.8906128406524658,1023.3008,
2021.02.09 08:23:40,36.0,24.0,30.0,-11.58,-37.2,-0.17956513,0.5243302,9.660604,0.004276057,0.0018325958,-0.002443461,-0.0542125478386879,0.018585221841931343,-1.884835958480835,1023.3008,
2021.02.09 08:23:40,36.0,24.0,29.699999,-11.46,-37.079998,-0.23223756,0.46208093,9.651027,0.004276057,0.0036651916,-0.009162978,-0.04782857745885849,0.024058865383267403,-1.8938164710998535,1023.30273,
2021.02.09 08:23:40,36.0,24.0,29.88,-11.759999,-36.48,-0.23463176,0.49081135,9.636662,0.005497787,0.0036651916,-0.005497787,-0.05087266117334366,0.024343017488718033,-1.8985047340393066,1023.30273,
2021.02.09 08:23:40,36.0,24.0,30.179998,-11.88,-36.719997,-0.25378537,0.46208093,9.744401,-0.0012217305,-0.0036651916,-0.0061086523,-0.0473686121404171,0.026038339361548424,-1.9033949375152588,1023.30273,
2021.02.09 08:23:40,36.0,24.0,30.0,-12.12,-36.78,-0.29448682,0.50278234,9.548077,0.007941248,-0.0012217305,-6.1086525E-4,-0.05258442461490631,0.030832752585411072,-1.9082190990447998,1023.30273,
2021.02.09 08:23:40,36.0,24.0,30.359999,-11.94,-36.96,-0.2753332,0.46208093,9.722853,-0.017104227,-0.007330383,0.007330383,-0.04747050628066063,0.028310583904385567,-1.9037282466888428,1023.2986,
2021.02.09 08:23:41,36.0,24.0,30.359999,-11.94,-37.44,-0.20829555,0.44771573,9.679757,-0.0030543262,-0.01282817,0.017715093,-0.04620916023850441,0.02151535451412201,-1.902227520942688,1023.2986,
2021.02.09 08:23:41,36.0,24.0,30.119999,-11.759999,-37.2,-0.1604115,0.49081135,9.619903,0.0036651916,-0.02076942,0.020158553,-0.05096913129091263,0.016673415899276733,-1.8923122882843018,1023.2986,
2021.02.09 08:23:41,36.0,24.0,30.539999,-11.759999,-37.26,-0.25378537,0.45729253,9.653421,-0.014049901,-0.004886922,0.0030543262,-0.04731932282447815,0.02628362737596035,-1.8954964876174927,1023.2986,
2021.02.09 08:23:41,36.0,24.0,30.48,-12.12,-37.38,-0.23463176,0.46686932,9.720459,-0.023823744,-0.005497787,0.004276057,-0.0479787215590477,0.024133244529366493,-1.9053411483764648,1023.2942,
2021.02.09 08:23:41,36.0,24.0,30.42,-12.059999,-37.38,-0.21547815,0.49081135,9.727641,-0.004886922,0.0,0.0067195175,-0.05040023848414421,0.02214749902486801,-1.900631070137024,1023.2942,
2021.02.09 08:23:41,36.0,24.0,30.24,-12.179999,-37.32,-0.21787235,0.47165772,9.660604,0.0036651916,-0.008552114,0.007330383,-0.048771683126688004,0.022548841312527657,-1.9082740545272827,1023.2942,
2021.02.09 08:23:41,36.0,24.0,30.179998,-12.42,-37.14,-0.22026655,0.4309563,9.572019,0.017104227,-0.007941248,0.013439035,-0.044980235397815704,0.02300744503736496,-1.9209438562393188,1023.2942,
2021.02.09 08:23:41,36.0,24.0,30.119999,-12.48,-36.899998,-0.20350714,0.4261679,9.643845,6.1086525E-4,-0.007941248,0.015882496,-0.044152114540338516,0.0210991520434618,-1.9239040613174438,1023.29956,
2021.02.09 08:23:41,36.0,24.0,30.42,-12.54,-36.719997,-0.19393034,0.48841715,9.509769,-0.004276057,-0.0012217305,0.013439035,-0.05130377784371376,0.020389923825860023,-1.914250373840332,1023.29956,
2021.02.09 08:23:41,36.0,24.0,30.96,-12.719999,-37.079998,-0.20350714,0.45489833,9.7563715,-0.039095376,6.1086525E-4,0.009773844,-0.04658190906047821,0.020855871960520744,-1.9188454151153564,1023.29956,
2021.02.09 08:23:41,36.0,24.0,30.48,-12.719999,-37.02,-0.21068975,0.48841715,9.813833,-0.025045475,0.0030543262,0.010995574,-0.049715764820575714,0.021465351805090904,-1.920767068862915,1023.29956,
2021.02.09 08:23:41,36.0,24.0,30.539999,-12.42,-37.14,-0.16519992,0.44771573,9.598354,0.0012217305,-0.0061086523,0.016493361,-0.046604372560977936,0.017209574580192566,-1.9130713939666748,1023.3032,
2021.02.09 08:23:41,36.0,24.0,30.06,-12.54,-37.26,-0.15322891,0.4405331,9.648633,0.0,-0.009773844,0.019547688,-0.045620135962963104,0.01587955839931965,-1.922316312789917,1023.3032,
2021.02.09 08:23:41,36.0,24.0,29.64,-12.059999,-36.96,-0.20829555,0.46447513,9.694122,-0.019547688,-0.004276057,0.012217305,-0.04786542057991028,0.02148348279297352,-1.9122198820114136,1023.3032,
2021.02.09 08:23:41,36.0,24.0,30.0,-12.12,-37.26,-0.21308395,0.48841715,9.902418,-0.029932396,-0.005497787,0.0036651916,-0.04927169531583786,0.021515054628252983,-1.9081361293792725,1023.3032,
2021.02.09 08:23:41,36.0,24.0,30.0,-11.82,-37.079998,-0.15801731,0.521936,9.672575,0.0067195175,-0.0061086523,0.007330383,-0.053900934755802155,0.016335180029273033,-1.8920031785964966,1023.30835,
2021.02.09 08:23:41,36.0,24.0,30.06,-11.759999,-37.14,-0.22744916,0.4285621,9.703699,0.014660766,0.0061086523,0.002443461,-0.04412403702735901,0.023435138165950775,-1.9033803939819336,1023.30835,
2021.02.09 08:23:41,36.0,24.0,30.24,-12.36,-37.14,-0.19871874,0.4381389,9.734824,-0.009162978,-0.007941248,0.0,-0.044967666268348694,0.02041034772992134,-1.917532205581665,1023.30835,
2021.02.09 08:23:41,36.0,24.0,29.939999,-11.759999,-36.899998,-0.11492168,0.5291186,9.694122,0.016493361,-0.004276057,0.01282817,-0.05452345684170723,0.011854223906993866,-1.888848066329956,1023.30835,
2021.02.09 08:23:41,36.0,24.0,30.06,-12.179999,-37.079998,-0.22266077,0.48841715,9.768343,-0.002443461,6.1086525E-4,-0.0036651916,-0.049945440143346786,0.022790171205997467,-1.909219741821289,1023.2988,
2021.02.09 08:23:41,36.0,24.0,29.64,-11.82,-37.02,-0.18914193,0.45489833,9.677363,0.021380283,-0.004276057,0.005497787,-0.04696290194988251,0.019542289897799492,-1.9051074981689453,1023.2988,
2021.02.09 08:23:41,36.0,24.0,29.519999,-11.099999,-36.96,-0.16519992,0.48841715,9.672575,0.02076942,-0.002443461,0.0061086523,-0.05044485628604889,0.017077546566724777,-1.8790549039840698,1023.2988,
2021.02.09 08:23:41,36.0,24.0,29.82,-11.46,-37.44,-0.15801731,0.47405192,9.56723,0.0067195175,0.002443461,0.0012217305,-0.04950231313705444,0.016515014693140984,-1.8875045776367188,1023.2988,
2021.02.09 08:23:41,36.0,24.0,29.699999,-11.4,-37.62,-0.23942018,0.46926352,9.725247,-0.004276057,-0.004886922,0.01038471,-0.048200108110904694,0.02461344376206398,-1.8910168409347534,1023.3015,
2021.02.09 08:23:41,36.0,24.0,29.82,-11.34,-37.559998,-0.15801731,0.533907,9.631873,0.0018325958,0.0067195175,0.008552114,-0.05536716431379318,0.016404196619987488,-1.8765597343444824,1023.3015,
2021.02.09 08:23:42,36.0,24.0,30.0,-11.58,-37.5,-0.18914193,0.5434838,9.763555,0.007330383,-0.0030543262,0.0067195175,-0.05559674650430679,0.01936981827020645,-1.8829963207244873,1023.3015,
2021.02.09 08:23:42,36.0,24.0,29.699999,-11.759999,-37.32,-0.12928689,0.49081135,9.552865,0.013439035,0.005497787,0.01160644,-0.05132861062884331,0.013533007353544235,-1.8949673175811768,1023.3015,
2021.02.09 08:23:42,36.0,24.0,29.46,-11.759999,-37.14,-0.15322891,0.50996494,9.643845,-0.02443461,0.005497787,-0.0061086523,-0.052823979407548904,0.015887442976236343,-1.8967835903167725,1023.2927,
2021.02.09 08:23:42,36.0,24.0,29.64,-11.58,-37.32,-0.22266077,0.5267244,9.892841,-0.01038471,0.0030543262,-0.0067195175,-0.05317931994795799,0.022503461688756943,-1.8909013271331787,1023.2927,
2021.02.09 08:23:42,36.0,24.0,29.46,-11.34,-37.62,-0.17717093,0.49320555,9.682152,0.043982297,-0.008552114,0.004276057,-0.05088716745376587,0.01829667203128338,-1.8861430883407593,1023.2927,
2021.02.09 08:23:42,36.0,24.0,29.58,-11.5199995,-37.8,-0.035913024,0.51954174,9.449914,0.0067195175,0.0030543262,-0.002443461,-0.05492277815937996,0.0038003362715244293,-1.8805570602416992,1023.2927,
2021.02.09 08:23:42,36.0,24.0,29.16,-11.5199995,-37.62,-0.22505496,0.48362875,9.7803135,-0.044593163,0.0067195175,-0.02076942,-0.04939590394496918,0.02300695702433586,-1.8984801769256592,1023.3086,
2021.02.09 08:23:42,36.0,24.0,29.039999,-12.0,-37.62,-0.22026655,0.49081135,9.854534,0.018936822,0.0030543262,-0.013439035,-0.04975210875272751,0.022348076105117798,-1.9142556190490723,1023.3086,
2021.02.09 08:23:42,36.0,24.0,29.099998,-12.54,-37.62,-0.1604115,0.48602295,9.583989,0.032986723,-0.009773844,-0.007330383,-0.05066148191690445,0.016735883429646492,-1.927087426185608,1023.3086,
2021.02.09 08:23:42,36.0,24.0,29.099998,-12.059999,-37.26,-0.18195933,0.50757074,9.512163,0.0,0.007941248,-0.01038471,-0.05329988896846771,0.019126789644360542,-1.9104453325271606,1023.3086,
2021.02.09 08:23:42,36.0,24.0,29.46,-11.88,-37.38,-0.17956513,0.47884035,9.785102,-0.01160644,-0.004276057,-0.02076942,-0.0488884299993515,0.01834881119430065,-1.9057284593582153,1023.3059,
2021.02.09 08:23:42,36.0,24.0,29.64,-11.759999,-37.44,-0.15083471,0.51714754,9.742006,0.015882496,0.002443461,-0.009773844,-0.0530281737446785,0.015481683425605297,-1.8940739631652832,1023.3059,
2021.02.09 08:23:42,36.0,24.0,29.939999,-11.7,-37.26,-0.15322891,0.50278234,9.574412,0.01282817,0.004886922,-0.01282817,-0.05245823413133621,0.016002636402845383,-1.8902555704116821,1023.3059,
2021.02.09 08:23:42,36.0,24.0,30.24,-11.7,-37.26,-0.18914193,0.49799395,9.742006,0.0012217305,-0.0030543262,-0.0067195175,-0.0510641485452652,0.019412651658058167,-1.8899924755096436,1023.3059,
2021.02.09 08:23:42,36.0,24.0,30.42,-11.82,-37.2,-0.1412579,0.51235914,9.646238,0.01160644,0.0036651916,-0.008552114,-0.05305936932563782,0.014642786234617233,-1.888012409210205,1023.31323,
2021.02.09 08:23:42,36.0,24.0,30.24,-12.0,-37.2,-0.16519992,0.48123455,9.727641,-6.1086525E-4,-0.0030543262,-0.013439035,-0.049423426389694214,0.016980893909931183,-1.9002623558044434,1023.31323,
2021.02.09 08:23:42,36.0,24.0,29.76,-12.059999,-37.38,-0.11971009,0.51475334,9.600749,0.01160644,0.002443461,-0.01038471,-0.053560514003038406,0.012468181550502777,-1.9004524946212769,1023.31323,
2021.02.09 08:23:42,36.0,24.0,29.039999,-12.3,-37.739998,-0.18914193,0.49320555,9.718064,-6.1086525E-4,-0.0030543262,-0.016493361,-0.050698328763246536,0.019460465759038925,-1.9212028980255127,1023.31323,
2021.02.09 08:23:42,36.0,24.0,29.16,-12.179999,-38.1,-0.15083471,0.51714754,9.615114,0.0036651916,0.005497787,-0.017104227,-0.05372648686170578,0.01568596437573433,-1.9104794263839722,1023.31177,
2021.02.09 08:23:42,36.0,24.0,29.46,-11.88,-37.86,-0.20829555,0.47644615,9.662998,-0.010995574,0.0067195175,-0.019547688,-0.049254920333623886,0.021552657708525658,-1.9058431386947632,1023.31177,
2021.02.09 08:23:42,36.0,24.0,29.58,-11.639999,-37.38,-0.21068975,0.51475334,9.696517,-0.0012217305,0.0,-0.008552114,-0.05302414298057556,0.02172497846186161,-1.8932331800460815,1023.31177,
2021.02.09 08:23:42,36.0,24.0,30.359999,-11.639999,-37.14,-0.17238252,0.5243302,9.636662,-0.015271631,-0.002443461,-0.009773844,-0.05434767156839371,0.017886292189359665,-1.8827913999557495,1023.31177,
2021.02.09 08:23:42,36.0,24.0,29.939999,-11.58,-36.78,-0.18914193,0.49799395,9.775525,0.013439035,-0.002443461,-0.0036651916,-0.05088942497968674,0.019346104934811592,-1.8902052640914917,1023.30664,
2021.02.09 08:23:42,36.0,24.0,29.699999,-11.58,-36.899998,-0.095768064,0.5363012,9.52174,6.1086525E-4,0.004276057,-0.008552114,-0.0562615804374218,0.01005749311298132,-1.883134365081787,1023.30664,
2021.02.09 08:23:42,36.0,24.0,29.699999,-11.46,-37.26,-0.20111294,0.49799395,9.648633,-0.028710667,0.010995574,-0.015271631,-0.05155596882104874,0.020840654149651527,-1.88800048828125,1023.30664,
2021.02.09 08:23:43,36.0,24.0,29.46,-11.219999,-37.44,-0.18674773,0.521936,9.737218,-0.021991149,0.004886922,-0.008552114,-0.05354109779000282,0.019176406785845757,-1.8797006607055664,1023.30664,
2021.02.09 08:23:43,36.0,24.0,29.699999,-11.219999,-37.8,-0.1412579,0.49320555,9.77792,0.0018325958,-0.0067195175,-0.0036651916,-0.05039278790354729,0.01444561593234539,-1.8790056705474854,1023.3015,
2021.02.09 08:23:43,36.0,24.0,29.88,-11.04,-37.739998,-0.15562311,0.51475334,9.490616,0.022602014,0.010995574,-0.0030543262,-0.05417777970433235,0.016396109014749527,-1.867785096168518,1023.3015,
2021.02.09 08:23:43,36.0,24.0,30.179998,-11.04,-37.62,-0.21308395,0.49799395,9.751583,-0.018936822,0.004276057,-0.009773844,-0.05101152881979942,0.021847739815711975,-1.8706390857696533,1023.3015,
2021.02.09 08:23:43,36.0,24.0,30.24,-10.8,-37.5,-0.14604631,0.5530606,9.689334,6.1086525E-4,0.0012217305,-0.0018325958,-0.05701098591089249,0.015071753412485123,-1.8535282611846924,1023.3015,
2021.02.09 08:23:43,36.0,24.0,30.3,-10.92,-36.84,-0.16998832,0.50517654,9.770737,0.004886922,0.0036651916,-0.007941248,-0.05164921283721924,0.01739594340324402,-1.864733338356018,1023.30347,
2021.02.09 08:23:43,36.0,24.0,30.359999,-10.92,-36.96,-0.15801731,0.50996494,9.495404,0.029321533,0.007330383,-0.002443461,-0.053647540509700775,0.016639914363622665,-1.8614314794540405,1023.30347,
2021.02.09 08:23:43,36.0,24.0,30.359999,-10.98,-36.899998,-0.17238252,0.5386954,9.727641,-0.009162978,0.0067195175,-0.0061086523,-0.0553126335144043,0.017719043418765068,-1.861739158630371,1023.30347,
2021.02.09 08:23:43,36.0,24.0,30.359999,-11.099999,-36.6,-0.22026655,0.5386954,9.77792,-0.013439035,0.0061086523,-0.010995574,-0.05502348020672798,0.022523123770952225,-1.867677092552185,1023.30347,
2021.02.09 08:23:43,36.0,24.0,29.939999,-10.62,-36.6,-0.20350714,0.49559975,9.586384,0.025045475,0.0061086523,-0.0018325958,-0.051640696823596954,0.02122558280825615,-1.8602796792984009,1023.30444,
2021.02.09 08:23:43,36.0,24.0,29.76,-10.86,-36.48,-0.19153613,0.521936,9.588778,0.016493361,-0.0012217305,0.0,-0.05436747893691063,0.01997237466275692,-1.8661062717437744,1023.30444,
2021.02.09 08:23:43,36.0,24.0,29.76,-10.86,-36.719997,-0.20111294,0.5722142,9.64145,-6.1086525E-4,0.007941248,6.1086525E-4,-0.059266991913318634,0.020856177434325218,-1.8601410388946533,1023.30444,
2021.02.09 08:23:43,36.0,24.0,29.88,-10.92,-37.14,-0.23223756,0.5674258,9.727641,-0.013439035,0.009773844,-0.009162978,-0.058248698711395264,0.023869451135396957,-1.862345814704895,1023.30444,
2021.02.09 08:23:43,36.0,24.0,29.88,-11.4,-37.559998,-0.23942018,0.5650316,9.576807,0.010995574,0.014660766,0.0030543262,-0.05891331285238266,0.02499479241669178,-1.8763303756713867,1023.31323,
2021.02.09 08:23:43,36.0,24.0,29.939999,-11.5199995,-37.5,-0.22984336,0.50278234,9.593566,-0.0012217305,0.0018325958,0.004276057,-0.052345387637615204,0.02395348995923996,-1.8871889114379883,1023.31323,
2021.02.09 08:23:43,36.0,24.0,29.76,-11.759999,-37.44,-0.1388637,0.61770403,9.677363,-0.0036651916,0.013439035,0.014049901,-0.06373676657676697,0.014348347671329975,-1.8796968460083008,1023.31323,
2021.02.09 08:23:43,36.0,24.0,29.519999,-11.5199995,-37.14,-0.2753332,0.51714754,9.799467,-0.018936822,0.020158553,0.01038471,-0.052703358232975006,0.028089363127946854,-1.8930585384368896,1023.31323,
2021.02.09 08:23:43,36.0,24.0,29.699999,-11.639999,-37.14,-0.19153613,0.58657944,9.44752,0.02321288,0.01038471,0.021991149,-0.06199588254094124,0.02027091756463051,-1.881082534790039,1023.30786,
2021.02.09 08:23:43,36.0,24.0,29.64,-11.639999,-37.5,-0.21308395,0.5267244,9.425972,0.007330383,0.009162978,0.026267206,-0.05580782890319824,0.022602196782827377,-1.889365792274475,1023.30786,
2021.02.09 08:23:43,36.0,24.0,29.519999,-11.759999,-37.559998,-0.20350714,0.533907,9.801862,-0.07147124,0.014049901,0.020158553,-0.05440448224544525,0.020759109407663345,-1.895341396331787,1023.30786,
2021.02.09 08:23:43,36.0,24.0,29.34,-11.94,-37.559998,-0.18435353,0.60094464,9.746795,-0.065973446,0.007330383,0.021991149,-0.061566684395074844,0.018912017345428467,-1.8935270309448242,1023.30786,
2021.02.09 08:23:43,36.0,24.0,29.519999,-11.34,-37.32,-0.21068975,0.5291186,9.651027,-0.034208454,0.014660766,0.009162978,-0.054757259786129,0.021827343851327896,-1.8824644088745117,1023.3137,
2021.02.09 08:23:43,36.0,24.0,29.64,-11.16,-37.26,-0.1316811,0.5554548,9.76116,-0.025045475,0.0036651916,0.014049901,-0.056838128715753555,0.01348949410021305,-1.870495319366455,1023.3137,
2021.02.09 08:23:43,36.0,24.0,29.699999,-10.74,-37.02,-0.17238252,0.4381389,9.540894,-0.012217305,0.0067195175,0.0030543262,-0.04588249325752258,0.018065787851810455,-1.8716599941253662,1023.3137,
2021.02.09 08:23:43,36.0,24.0,29.64,-10.98,-37.38,-0.17717093,0.46447513,9.718064,-0.037873644,0.0,0.007941248,-0.04775075986981392,0.018229074776172638,-1.8771295547485352,1023.3137,
2021.02.09 08:23:44,36.0,24.0,29.76,-11.28,-37.38,-0.17717093,0.38067806,8.47308,-0.028099801,0.010995574,0.013439035,-0.044887956231832504,0.02090681530535221,-1.8896360397338867,1023.3154,
2021.02.09 08:23:44,36.0,24.0,30.06,-11.5199995,-37.14,0.15083471,0.4285621,10.951078,-0.14355333,-0.05131268,0.031154128,-0.03911057114601135,-0.01377263106405735,-1.8891799449920654,1023.3154,
2021.02.09 08:23:44,36.0,24.0,30.179998,-11.759999,-37.5,-0.25617957,0.47405192,10.857705,0.1301143,0.09468412,-0.007330383,-0.043620578944683075,0.023589888587594032,-1.9023669958114624,1023.3154,
