Time,X-cord,Y-cord,Mag_x,Mag_y,Mag_z,Acc_x,Acc_y,Acc_z,Gyro_x,Gyro_y,Gyro_z,Orn_x,Orn_y,Orn_z,Pressure,
2021.02.09 08:23:57,38.0,24.0,17.34,-10.0199995,-33.3,-1.0821792,0.2896984,8.916007,0.35613444,0.14538592,0.0,-0.03224404528737068,0.12078405916690826,-2.1630256175994873,1023.3152,
2021.02.09 08:23:57,38.0,24.0,17.279999,-10.0199995,-33.239998,0.0047884034,0.24899697,8.726865,0.17592919,-0.023823744,0.18692477,-0.028524495661258698,-5.486967856995761E-4,-2.053635597229004,1023.3152,
2021.02.09 08:23:57,38.0,24.0,17.52,-10.32,-33.0,0.090979666,0.33758244,9.131485,-0.09468412,-0.08674286,0.13927728,-0.036950401961803436,-0.009962963871657848,-2.042320728302002,1023.3152,
2021.02.09 08:23:57,38.0,24.0,17.58,-10.8,-33.059998,-0.4333505,0.4189853,9.586384,-0.23579398,-0.12644911,0.07086037,-0.04363398998975754,0.045174043625593185,-2.096118927001953,1023.3152,
2021.02.09 08:23:57,38.0,24.0,17.58,-10.98,-32.64,0.090979666,0.32321724,10.077195,-0.3371976,-0.15149458,0.09040806,-0.032061830163002014,-0.009028026834130287,-2.078031301498413,1023.32715,
2021.02.09 08:23:57,38.0,24.0,17.34,-10.98,-32.579998,0.04070143,0.17238252,9.605537,-0.172264,-0.105068825,0.08368854,-0.01794407330453396,-0.00423726299777627,-2.107346296310425,1023.32715,
2021.02.09 08:23:57,38.0,24.0,17.039999,-10.86,-32.82,0.088585466,0.12689269,10.048465,-0.15454891,-0.15699236,0.08307768,-0.012626904994249344,-0.008815593086183071,-2.113311290740967,1023.32715,
2021.02.09 08:23:57,38.0,24.0,16.859999,-10.5,-33.0,0.29927522,0.36391866,10.029311,-0.069027774,-0.14355333,0.09712757,-0.03625347465276718,-0.029831206426024437,-2.052107095718384,1023.32715,
2021.02.09 08:23:57,38.0,24.0,16.98,-10.559999,-33.3,0.40701428,0.40222588,9.557653,0.020158553,-0.015882496,0.06169739,-0.04202130809426308,-0.04255945608019829,-2.034125328063965,1023.3152,
2021.02.09 08:23:57,38.0,24.0,17.22,-10.559999,-33.84,-0.0023942017,0.31364042,9.859323,-0.037873644,0.019547688,-0.009162978,-0.03180083632469177,2.4283632228616625E-4,-2.074178695678711,1023.3152,
2021.02.09 08:23:57,38.0,24.0,17.22,-10.38,-33.66,-0.02633622,0.29688102,9.792285,-0.004886922,6.1086525E-4,-0.022602014,-0.03030845709145069,0.002689480083063245,-2.07061505317688,1023.3152,
2021.02.09 08:23:57,38.0,24.0,17.16,-10.74,-33.54,0.12449849,0.2801216,9.593566,0.12095132,-0.0012217305,-0.015882496,-0.02918815240263939,-0.012976562604308128,-2.0774104595184326,1023.3152,
2021.02.09 08:23:57,38.0,24.0,17.039999,-10.62,-33.3,0.22266077,0.29209262,9.370906,0.10751228,0.029932396,-0.012217305,-0.031151285395026207,-0.02375638857483864,-2.0643832683563232,1023.3135,
2021.02.09 08:23:57,38.0,24.0,16.68,-10.8,-33.059998,0.16759412,0.22505496,9.428367,0.029321533,0.04337143,-0.02687807,-0.023861685767769814,-0.017773648723959923,-2.096452474594116,1023.3135,
2021.02.09 08:23:57,38.0,24.0,16.859999,-10.679999,-33.36,0.12689269,0.33039984,9.598354,-0.02687807,0.01282817,-0.02076942,-0.03440596163272858,-0.013219485059380531,-2.0744893550872803,1023.3135,
2021.02.09 08:23:57,38.0,24.0,17.1,-10.38,-33.6,-0.019153614,0.5386954,9.868899,-0.06841691,0.018936822,-0.035430185,-0.05453094094991684,0.001940803020261228,-2.0351037979125977,1023.3135,
2021.02.09 08:23:57,38.0,24.0,16.8,-10.26,-33.42,-0.038307227,0.58418524,10.022128,-0.061086524,0.007330383,-0.047647487,-0.05822322890162468,0.0038222461007535458,-2.0324313640594482,1023.3108,
2021.02.09 08:23:57,38.0,24.0,16.98,-10.26,-33.6,-0.095768064,0.41180268,9.957485,0.05009095,0.03604105,-0.064751714,-0.041330624371767044,0.009617399424314499,-2.05949068069458,1023.3108,
2021.02.09 08:23:57,38.0,24.0,16.98,-10.08,-33.719997,-0.06943185,0.34955344,9.603143,0.07880162,0.027488936,-0.032375857,-0.03638288751244545,0.007229991257190704,-2.056865692138672,1023.3108,
2021.02.09 08:23:58,38.0,24.0,17.039999,-10.44,-33.42,0.055066638,0.2753332,9.483433,0.057421334,0.005497787,-0.016493361,-0.029024431481957436,-0.0058065494522452354,-2.0731966495513916,1023.3108,
2021.02.09 08:23:58,38.0,24.0,17.46,-11.04,-33.78,0.01436521,0.22984336,9.581595,0.04337143,0.014049901,-0.01282817,-0.02398337982594967,-0.0014992492506280541,-2.0994179248809814,1023.3164,
2021.02.09 08:23:58,38.0,24.0,17.46,-10.92,-33.719997,0.04070143,0.39025488,9.591172,0.015882496,0.009773844,-0.007330383,-0.04066617041826248,-0.004243609495460987,-2.0675785541534424,1023.3164,
2021.02.09 08:23:58,38.0,24.0,17.52,-11.16,-33.36,-0.2896984,0.37828386,9.737218,-0.0012217305,0.019547688,-0.04886922,-0.03881259262561798,0.029742883518338203,-2.1078879833221436,1023.3164,
2021.02.09 08:23:58,38.0,24.0,17.52,-10.92,-33.6,-0.25857377,0.45968673,9.844957,0.020158553,0.014660766,-0.025045475,-0.04664265364408493,0.026258552446961403,-2.0815956592559814,1023.3164,
2021.02.09 08:23:58,38.0,24.0,17.22,-10.5,-33.239998,-0.18674773,0.36870706,9.722853,0.044593163,0.02321288,-0.004886922,-0.03789655119180679,0.01920473203063011,-2.078378915786743,1023.324,
2021.02.09 08:23:58,38.0,24.0,17.34,-10.5,-33.239998,-0.11492168,0.3878607,9.68694,0.03176499,0.013439035,0.015271631,-0.04001535475254059,0.011863011866807938,-2.06609845161438,1023.324,
2021.02.09 08:23:58,38.0,24.0,16.92,-10.139999,-33.3,-0.24660277,0.33518824,9.540894,0.04337143,0.005497787,0.01038471,-0.03510558605194092,0.02584117278456688,-2.0793771743774414,1023.324,
2021.02.09 08:23:58,38.0,24.0,16.74,-10.2,-33.0,-0.11492168,0.44532153,9.837775,0.02565634,0.013439035,0.028099801,-0.04523252695798874,0.011681142263114452,-2.0591745376586914,1023.324,
2021.02.09 08:23:58,38.0,24.0,17.16,-10.32,-33.12,-0.050278235,0.4429273,9.483433,0.052534413,0.032375857,0.0036651916,-0.04667080566287041,0.005301641765981913,-2.0469541549682617,1023.3242,
2021.02.09 08:23:58,38.0,24.0,17.1,-10.5,-32.76,0.0023942017,0.46686932,9.548077,0.03970624,0.014660766,0.002443461,-0.04885777086019516,-2.50752258580178E-4,-2.0499227046966553,1023.3242,
2021.02.09 08:23:58,38.0,24.0,17.64,-10.98,-32.88,-0.16519992,0.46686932,9.524135,0.036651913,0.022602014,-0.004276057,-0.04897304251790047,0.017343658953905106,-2.0716400146484375,1023.3242,
2021.02.09 08:23:58,38.0,24.0,17.82,-11.16,-33.239998,-0.17717093,0.5386954,9.940725,-0.019547688,-0.01282817,0.015882496,-0.0541292168200016,0.017820850014686584,-2.067141056060791,1023.3242,
2021.02.09 08:23:58,38.0,24.0,17.46,-10.86,-33.239998,-0.18435353,0.49799395,9.507375,0.036651913,-0.0018325958,0.021991149,-0.052322108298540115,0.01938815228641033,-2.0664236545562744,1023.322,
2021.02.09 08:23:58,38.0,24.0,17.46,-11.28,-33.6,0.0,0.48123455,9.41879,0.031154128,-0.029321533,0.036651913,-0.051048643887043,1.0E-6,-2.0713419914245605,1023.322,
2021.02.09 08:23:58,38.0,24.0,17.279999,-11.16,-33.719997,0.047884032,0.5674258,9.7324295,-0.0421497,-0.030543262,0.014660766,-0.058235954493284225,-0.004920009523630142,-2.0553417205810547,1023.322,
2021.02.09 08:23:58,38.0,24.0,16.98,-11.16,-33.12,-0.18435353,0.5386954,9.835381,-0.045814894,-0.012217305,-0.025045475,-0.05470691993832588,0.01874171942472458,-2.088501453399658,1023.322,
2021.02.09 08:23:58,38.0,24.0,17.34,-11.5199995,-33.059998,-0.06943185,0.5506664,9.698911,0.0012217305,-0.012217305,-0.0036651916,-0.0567137636244297,0.007158604450523853,-2.083192825317383,1023.32544,
2021.02.09 08:23:58,38.0,24.0,17.1,-11.219999,-33.0,-0.059855044,0.49559975,9.61272,0.014049901,-0.018325957,-0.0012217305,-0.05151006206870079,0.006226569879800081,-2.083078145980835,1023.32544,
2021.02.09 08:23:58,38.0,24.0,17.16,-11.58,-32.64,-0.06943185,0.51475334,9.775525,-0.017104227,-0.0018325958,-0.009162978,-0.052607446908950806,0.007102501578629017,-2.097405433654785,1023.32544,
2021.02.09 08:23:58,38.0,24.0,17.22,-11.4,-33.12,-0.009576807,0.4141969,9.67018,-0.0061086523,-0.0036651916,-0.01160644,-0.04280620440840721,9.903438622131944E-4,-2.096508502960205,1023.32544,
2021.02.09 08:23:58,38.0,24.0,17.16,-11.28,-33.36,0.019153614,0.4213795,9.710882,0.0061086523,-0.01282817,-0.009162978,-0.04336521402001381,-0.001972384052351117,-2.0891263484954834,1023.3303,
2021.02.09 08:23:58,38.0,24.0,17.52,-11.34,-33.36,0.079008654,0.60094464,9.583989,0.02687807,-0.01282817,-0.017715093,-0.06261886656284332,-0.008243630640208721,-2.0497045516967773,1023.3303,
2021.02.09 08:23:58,38.0,24.0,17.52,-11.46,-33.48,-0.110133275,0.46447513,9.916783,-0.014660766,-0.004886922,-0.053145275,-0.04680018872022629,0.011105289682745934,-2.0931806564331055,1023.3303,
2021.02.09 08:23:58,38.0,24.0,18.119999,-11.639999,-33.54,-0.14604631,0.45489833,9.706094,0.021380283,-0.0036651916,-0.04642576,-0.04682772606611252,0.015045732259750366,-2.089080333709717,1023.3303,
2021.02.09 08:23:59,38.0,24.0,18.0,-11.759999,-33.3,-0.011971008,0.4237737,9.52174,0.047647487,-0.0012217305,-0.03359759,-0.044476527720689774,0.001257228315807879,-2.0901525020599365,1023.3296,
2021.02.09 08:23:59,38.0,24.0,18.18,-11.759999,-33.12,-0.074220255,0.49081135,9.629479,0.02076942,-0.01038471,-0.036651913,-0.05092408508062363,0.00770745612680912,-2.0818896293640137,1023.3296,
2021.02.09 08:23:59,38.0,24.0,18.06,-11.04,-33.3,-0.095768064,0.50517654,9.588778,0.009162978,-0.007941248,-0.029932396,-0.05263286083936691,0.009987183846533298,-2.052340507507324,1023.3296,
2021.02.09 08:23:59,38.0,24.0,17.4,-10.98,-33.3,-0.12928689,0.48123455,9.689334,0.0,-0.02321288,-0.03359759,-0.04962123557925224,0.013342424295842648,-2.0726706981658936,1023.3296,
2021.02.09 08:23:59,38.0,24.0,17.16,-10.86,-33.239998,-0.08379706,0.5530606,9.500193,0.0061086523,0.0,-0.01282817,-0.05814783647656441,0.008820335380733013,-2.0563998222351074,1023.32495,
2021.02.09 08:23:59,38.0,24.0,16.619999,-10.679999,-33.36,-0.15322891,0.51235914,9.646238,-0.02687807,-0.004276057,-0.009162978,-0.05305837467312813,0.01588349975645542,-2.075240135192871,1023.32495,
2021.02.09 08:23:59,38.0,24.0,16.32,-11.28,-33.059998,-0.007182605,0.5770026,9.7563715,-0.02565634,-0.009162978,0.018936822,-0.059072285890579224,7.36196234356612E-4,-2.0897581577301025,1023.32495,
2021.02.09 08:23:59,38.0,24.0,16.44,-10.74,-32.94,-0.050278235,0.5482722,9.78989,-0.01160644,-0.0061086523,0.016493361,-0.055944737046957016,0.005135685205459595,-2.0702264308929443,1023.32495,
2021.02.09 08:23:59,38.0,24.0,16.74,-10.86,-32.94,-0.016759412,0.5746084,9.691729,0.016493361,-0.0067195175,0.019547688,-0.0592191219329834,0.0017292472766712308,-2.060385227203369,1023.32275,
2021.02.09 08:23:59,38.0,24.0,17.1,-11.099999,-32.94,0.009576807,0.5770026,9.622296,0.02565634,-0.007941248,0.018325957,-0.0598934181034565,-9.95272072032094E-4,-2.0594770908355713,1023.32275,
2021.02.09 08:23:59,38.0,24.0,17.34,-10.679999,-33.18,-0.023942016,0.5410896,9.631873,0.007330383,0.0012217305,0.013439035,-0.05611782893538475,0.002485702047124505,-2.0423407554626465,1023.32275,
2021.02.09 08:23:59,38.0,24.0,17.16,-10.92,-33.239998,-0.074220255,0.56982,9.866506,-0.009162978,-0.0018325958,0.012217305,-0.05768726021051407,0.007522304076701403,-2.058891773223877,1023.32275,
2021.02.09 08:23:59,38.0,24.0,16.8,-10.98,-33.239998,-0.01436521,0.59376204,9.5385,0.032375857,0.0030543262,0.02321288,-0.062168706208467484,0.0015060228761285543,-2.05883526802063,1023.32227,
2021.02.09 08:23:59,38.0,24.0,16.5,-10.559999,-33.6,0.011971008,0.5410896,9.701305,0.029321533,-0.01160644,0.02321288,-0.05571715533733368,-0.0012339578242972493,-2.053739070892334,1023.32227,
2021.02.09 08:23:59,38.0,24.0,16.5,-10.62,-33.18,0.095768064,0.5770026,9.586384,0.03359759,0.0,0.021991149,-0.06011428311467171,-0.009989677928388119,-2.0440046787261963,1023.32227,
2021.02.09 08:23:59,38.0,24.0,16.74,-11.099999,-33.239998,-0.0047884034,0.5722142,9.660604,0.009162978,0.002443461,0.007330383,-0.05916259065270424,4.956629127264023E-4,-2.0698089599609375,1023.32227,
2021.02.09 08:23:59,38.0,24.0,17.22,-11.46,-33.42,0.055066638,0.5602432,9.643845,0.008552114,0.0,0.0061086523,-0.05802718177437782,-0.005709967575967312,-2.0706565380096436,1023.3259,
2021.02.09 08:23:59,38.0,24.0,17.52,-11.94,-33.3,0.05267244,0.581791,9.660604,0.0061086523,0.005497787,0.007330383,-0.06014950945973396,-0.005452238954603672,-2.0817008018493652,1023.3259,
2021.02.09 08:23:59,38.0,24.0,17.279999,-12.24,-33.36,-0.047884032,0.56982,9.720459,-0.0061086523,-0.004886922,-0.004276057,-0.058552972972393036,0.004926068242639303,-2.1108970642089844,1023.3259,
2021.02.09 08:23:59,38.0,24.0,17.34,-12.12,-33.36,-0.007182605,0.581791,9.579201,0.0067195175,0.007941248,0.0,-0.060660284012556076,7.498124614357948E-4,-2.097755193710327,1023.3259,
2021.02.09 08:23:59,38.0,24.0,17.1,-11.7,-33.18,-0.019153614,0.5530606,9.713276,-0.004886922,-0.009162978,0.002443461,-0.056877102702856064,0.001971897901967168,-2.0925486087799072,1023.32837,
2021.02.09 08:23:59,38.0,24.0,17.16,-11.5199995,-32.76,-0.02873042,0.60812724,9.646238,0.01038471,-0.0061086523,0.0067195175,-0.06295935064554214,0.0029783977661281824,-2.0758187770843506,1023.32837,
2021.02.09 08:23:59,38.0,24.0,17.46,-11.34,-32.7,-0.0047884034,0.6584055,9.665392,-0.002443461,6.1086525E-4,0.0018325958,-0.06801482290029526,4.954173928126693E-4,-2.051219940185547,1023.32837,
2021.02.09 08:23:59,38.0,24.0,17.52,-11.34,-32.64,-0.009576807,0.5793968,9.68694,-0.014660766,0.0012217305,6.1086525E-4,-0.059740953147411346,9.886304615065455E-4,-2.062673568725586,1023.32837,
2021.02.09 08:23:59,38.0,24.0,17.52,-11.639999,-32.82,0.02873042,0.60094464,9.679757,-0.0018325958,-0.01160644,0.009162978,-0.062002766877412796,-0.0029680842999368906,-2.0691704750061035,1023.32715,
2021.02.09 08:24:00,38.0,24.0,17.279999,-12.0,-32.7,0.093373865,0.63206923,9.5385,0.009773844,-0.002443461,0.005497787,-0.06616515666246414,-0.009788843803107738,-2.079874277114868,1023.32715,
2021.02.09 08:24:00,38.0,24.0,17.34,-12.179999,-32.52,-0.08140286,0.5650316,9.861717,-0.02565634,-0.0036651916,-0.01160644,-0.05723093822598457,0.008254243060946465,-2.113332748413086,1023.32715,
2021.02.09 08:24:00,38.0,24.0,17.279999,-12.24,-32.219997,-0.021547815,0.61530983,9.543288,0.01038471,-0.009162978,0.0012217305,-0.06438637524843216,0.0022578986827284098,-2.1032605171203613,1023.32715,
2021.02.09 08:24:00,38.0,24.0,17.52,-12.0,-31.92,-0.019153614,0.59855044,9.627085,0.017715093,0.0012217305,0.0012217305,-0.062093544751405716,0.0019895522855222225,-2.0907557010650635,1023.32935,
2021.02.09 08:24:00,38.0,24.0,17.699999,-11.58,-32.46,0.050278235,0.59855044,9.629479,-0.009162978,0.0,0.0061086523,-0.06207742169499397,-0.005221235100179911,-2.061600923538208,1023.32935,
2021.02.09 08:24:00,38.0,24.0,17.46,-11.639999,-32.7,0.038307227,0.62967503,9.832987,-0.015271631,-0.007330383,-0.002443461,-0.06394920498132706,-0.003895767731592059,-2.067413568496704,1023.32935,
2021.02.09 08:24:00,38.0,24.0,17.64,-11.94,-32.88,-0.019153614,0.61052144,9.507375,0.014660766,0.004886922,-0.0030543262,-0.06412738561630249,0.0020146032329648733,-2.0797600746154785,1023.32935,
2021.02.09 08:24:00,38.0,24.0,17.64,-12.12,-33.0,0.033518825,0.5770026,9.76116,-0.015271631,-6.1086525E-4,0.002443461,-0.059043038636446,-0.0034338843543082476,-2.0903875827789307,1023.3242,
2021.02.09 08:24:00,38.0,24.0,17.76,-12.36,-32.579998,0.02873042,0.58657944,9.6845455,-0.017104227,0.012217305,-0.0012217305,-0.06049443781375885,-0.002966617001220584,-2.0969693660736084,1023.3242,
2021.02.09 08:24:00,38.0,24.0,17.76,-11.88,-32.579998,0.035913024,0.5770026,9.727641,-0.015882496,0.004886922,-0.005497787,-0.05924595519900322,-0.003691836493089795,-2.0779173374176025,1023.3242,
2021.02.09 08:24:00,38.0,24.0,18.06,-11.759999,-32.52,0.02873042,0.59615624,9.631873,-0.0018325958,0.0061086523,-0.01038471,-0.06181498244404793,-0.0029828399419784546,-2.0628199577331543,1023.3242,
2021.02.09 08:24:00,38.0,24.0,18.0,-11.46,-32.579998,-0.05267244,0.533907,9.828198,-0.028099801,0.015882496,-0.021380283,-0.05426987260580063,0.005359266418963671,-2.0678865909576416,1023.3262,
2021.02.09 08:24:00,38.0,24.0,17.82,-11.58,-32.579998,0.076614454,0.58897364,9.665392,-0.0030543262,0.012217305,-0.022602014,-0.060859180986881256,-0.007926512509584427,-2.0583481788635254,1023.3262,
2021.02.09 08:24:00,38.0,24.0,17.58,-11.82,-32.579998,-0.038307227,0.5770026,9.698911,-0.015882496,0.022602014,-0.03481932,-0.059420984238386154,0.00394962215796113,-2.085096597671509,1023.3262,
2021.02.09 08:24:00,38.0,24.0,17.22,-11.639999,-32.579998,-0.05746084,0.545878,9.768343,-0.023823744,0.030543262,-0.03359759,-0.05582332983613014,0.0058822850696742535,-2.092954158782959,1023.3262,
2021.02.09 08:24:00,38.0,24.0,17.279999,-11.82,-32.7,-0.06464344,0.50517654,9.799467,-0.017104227,0.025045475,-0.028710667,-0.0515047162771225,0.00659653265029192,-2.1058850288391113,1023.31714,
2021.02.09 08:24:00,38.0,24.0,17.76,-12.12,-33.0,0.06943185,0.47644615,9.773131,-0.0061086523,0.0067195175,-0.027488936,-0.04871081933379173,-0.007104240823537111,-2.0992228984832764,1023.31714,
2021.02.09 08:24:00,38.0,24.0,18.359999,-12.54,-33.0,-0.011971008,0.5315128,9.720459,0.01038471,0.007941248,-0.030543262,-0.054625365883111954,0.0012315264903008938,-2.10017466545105,1023.31714,
2021.02.09 08:24:00,38.0,24.0,18.48,-12.42,-33.0,-0.10055647,0.5291186,9.801862,-0.0012217305,0.0061086523,-0.028710667,-0.053926266729831696,0.010258554480969906,-2.100151300430298,1023.31714,
2021.02.09 08:24:00,38.0,24.0,18.42,-12.12,-32.82,-0.16998832,0.5554548,9.77792,0.0030543262,0.004886922,-0.03481932,-0.0567375123500824,0.017383165657520294,-2.090928792953491,1023.3198,
2021.02.09 08:24:00,38.0,24.0,18.119999,-11.7,-32.34,-0.059855044,0.61052144,9.7084875,0.012217305,0.010995574,-0.017715093,-0.06280144304037094,0.006165150552988052,-2.064344882965088,1023.3198,
2021.02.09 08:24:00,38.0,24.0,17.94,-11.04,-32.34,-0.1436521,0.49559975,9.727641,-0.002443461,0.01038471,-0.022602014,-0.05089802294969559,0.014766340143978596,-2.0631937980651855,1023.3198,
2021.02.09 08:24:00,38.0,24.0,17.699999,-11.639999,-32.04,-0.10534488,0.5530606,9.856929,-0.004276057,0.0030543262,-0.009162978,-0.056046850979328156,0.010686986148357391,-2.085517644882202,1023.3198,
2021.02.09 08:24:00,38.0,24.0,17.699999,-12.12,-31.8,-0.050278235,0.5602432,9.753978,0.012217305,-0.008552114,0.0,-0.05737360939383507,0.0051545933820307255,-2.100661277770996,1023.32056,
2021.02.09 08:24:00,38.0,24.0,17.699999,-11.759999,-31.98,-0.047884032,0.5626374,9.672575,0.012217305,-0.004276057,0.004276057,-0.05810213461518288,0.004950454458594322,-2.083660125732422,1023.32056,
2021.02.09 08:24:01,38.0,24.0,17.76,-12.059999,-31.98,-0.09816227,0.51954174,9.787497,-0.002443461,0.0061086523,-0.004276057,-0.053029756993055344,0.010029017925262451,-2.105952262878418,1023.32056,
2021.02.09 08:24:01,38.0,24.0,17.82,-11.7,-31.859999,-0.031124622,0.5770026,9.797073,-0.02443461,0.004886922,0.004886922,-0.058827150613069534,0.0031769198831170797,-2.0761494636535645,1023.32056,
2021.02.09 08:24:01,38.0,24.0,18.06,-11.5199995,-31.859999,-0.079008654,0.521936,9.82341,-0.01038471,-0.004886922,-0.0012217305,-0.0530802346765995,0.008042721077799797,-2.074244499206543,1023.32227,
2021.02.09 08:24:01,38.0,24.0,18.24,-11.759999,-31.92,-0.076614454,0.5363012,9.591172,0.008552114,-0.002443461,0.01038471,-0.05585617944598198,0.007987847551703453,-2.076202869415283,1023.32227,
2021.02.09 08:24:01,38.0,24.0,18.359999,-11.7,-31.859999,-0.11731588,0.46447513,9.890448,-0.03359759,0.002443461,0.0018325958,-0.04692421853542328,0.011860977858304977,-2.0860683917999268,1023.32227,
2021.02.09 08:24:01,38.0,24.0,18.48,-11.82,-32.1,0.02873042,0.545878,9.758766,0.0012217305,-0.007941248,0.01282817,-0.05587872117757797,-0.002944054314866662,-2.0651638507843018,1023.32227,
2021.02.09 08:24:01,38.0,24.0,18.3,-11.4,-32.1,-0.045489833,0.48602295,9.516952,-0.009773844,0.007330383,-0.007941248,-0.05102426931262016,0.004779838025569916,-2.0635592937469482,1023.3252,
2021.02.09 08:24:01,38.0,24.0,18.24,-11.099999,-32.16,-0.110133275,0.44771573,9.885659,-0.05497787,-0.0018325958,-0.007941248,-0.04525568336248398,0.011140250600874424,-2.064589738845825,1023.3252,
2021.02.09 08:24:01,38.0,24.0,18.06,-11.04,-32.1,-0.11731588,0.5243302,9.880871,-0.023823744,-0.008552114,0.0,-0.05301172286272049,0.011872472241520882,-2.0556442737579346,1023.3252,
2021.02.09 08:24:01,38.0,24.0,18.18,-11.16,-31.92,-0.021547815,0.5722142,9.931149,0.004886922,-0.009773844,0.004276057,-0.05755436047911644,0.0021697168704122305,-2.0453293323516846,1023.3252,
2021.02.09 08:24:01,38.0,24.0,18.24,-11.34,-32.04,0.009576807,0.49559975,9.763555,0.04337143,-0.012217305,-0.002443461,-0.05071662366390228,-9.808726608753204E-4,-2.0589327812194824,1023.32495,
2021.02.09 08:24:01,38.0,24.0,18.06,-11.34,-32.04,-0.019153614,0.45968673,9.662998,0.04337143,-0.012217305,-0.01038471,-0.04753592237830162,0.0019821578171104193,-2.0695760250091553,1023.32495,
2021.02.09 08:24:01,38.0,24.0,18.18,-11.219999,-32.1,-0.050278235,0.59615624,9.828198,0.0067195175,6.1086525E-4,-0.009162978,-0.060582712292671204,0.005115667823702097,-2.0451552867889404,1023.32495,
2021.02.09 08:24:01,38.0,24.0,18.119999,-10.98,-32.46,-0.19871874,0.5746084,9.888053,-0.010995574,0.016493361,-0.015271631,-0.05803440511226654,0.020094148814678192,-2.049264430999756,1023.32495,
2021.02.09 08:24:01,38.0,24.0,17.82,-11.04,-32.34,-0.045489833,0.5770026,9.68694,0.04520403,-0.008552114,0.0018325958,-0.059494052082300186,0.004695961717516184,-2.046086549758911,1023.31934,
2021.02.09 08:24:01,38.0,24.0,17.94,-11.46,-32.16,0.076614454,0.581791,9.706094,0.03176499,-0.009162978,0.007941248,-0.05986730009317398,-0.007893274538218975,-2.0530507564544678,1023.31934,
2021.02.09 08:24:01,38.0,24.0,17.82,-11.88,-32.16,-0.045489833,0.5530606,9.718064,0.0018325958,0.008552114,-0.01160644,-0.05684862658381462,0.004680922254920006,-2.087040662765503,1023.31934,
2021.02.09 08:24:01,38.0,24.0,17.76,-11.82,-32.579998,-0.06464344,0.5602432,9.785102,-0.017104227,0.01160644,-0.01160644,-0.05719102919101715,0.006606216076761484,-2.0859105587005615,1023.31934,
2021.02.09 08:24:01,38.0,24.0,18.119999,-11.88,-32.94,-0.08140286,0.557849,9.902418,-0.018936822,0.0061086523,-0.0018325958,-0.056273240596055984,0.008220317773520947,-2.0814976692199707,1023.3142,
2021.02.09 08:24:01,38.0,24.0,18.119999,-11.759999,-32.94,-0.11731588,0.545878,9.605537,0.020158553,0.005497787,0.0061086523,-0.056764230132102966,0.012212752364575863,-2.0786452293395996,1023.3142,
2021.02.09 08:24:01,38.0,24.0,18.42,-11.46,-33.18,-0.0047884034,0.5363012,9.55047,0.0012217305,0.0012217305,0.018325957,-0.05609550699591637,5.01378730405122E-4,-2.050804615020752,1023.3142,
2021.02.09 08:24:01,38.0,24.0,18.359999,-11.4,-32.82,-0.076614454,0.5267244,9.710882,-0.044593163,0.01282817,0.0067195175,-0.05418585613369942,0.007889382541179657,-2.0583577156066895,1023.3142,
2021.02.09 08:24:01,38.0,24.0,18.24,-11.5199995,-32.16,-0.076614454,0.5650316,9.950302,-0.06841691,0.009162978,0.0018325958,-0.056722771376371384,0.0076995594426989555,-2.0639798641204834,1023.3154,
2021.02.09 08:24:01,38.0,24.0,18.06,-11.28,-32.52,-0.08379706,0.49081135,9.694122,-0.023823744,0.007941248,-0.005497787,-0.05058470740914345,0.008643894456326962,-2.0665035247802734,1023.3154,
2021.02.09 08:24:01,38.0,24.0,17.58,-11.28,-32.04,-0.06943185,0.49081135,9.809045,-0.017104227,6.1086525E-4,0.009162978,-0.049993667751550674,0.0070782313123345375,-2.0786945819854736,1023.3154,
2021.02.09 08:24:02,38.0,24.0,17.58,-11.759999,-32.04,-0.076614454,0.49799395,9.8042555,-0.015271631,-0.012217305,0.01160644,-0.050748493522405624,0.007814249023795128,-2.099043607711792,1023.3154,
2021.02.09 08:24:02,38.0,24.0,17.52,-11.46,-32.52,0.031124622,0.50278234,9.67018,6.1086525E-4,-0.004886922,0.021380283,-0.05194602161645889,-0.0032186072785407305,-2.0764853954315186,1023.312,
2021.02.09 08:24:02,38.0,24.0,17.88,-11.5199995,-32.219997,0.02633622,0.45729253,9.682152,-0.013439035,0.0018325958,0.0061086523,-0.04719521850347519,-0.0027200723998248577,-2.0782103538513184,1023.312,
2021.02.09 08:24:02,38.0,24.0,18.06,-11.7,-32.04,-0.02873042,0.46926352,9.698911,-0.028710667,0.017104227,-0.008552114,-0.04834520444273949,0.002962223021313548,-2.084455728530884,1023.312,
2021.02.09 08:24:02,38.0,24.0,18.359999,-11.099999,-32.04,-0.16280572,0.4237737,9.832987,-0.054367006,0.02687807,-0.029932396,-0.043064601719379425,0.016555583104491234,-2.069000720977783,1023.312,
2021.02.09 08:24:02,38.0,24.0,18.779999,-11.16,-31.679998,-0.10295067,0.44532153,9.868899,-0.018325957,0.005497787,0.0,-0.0450906902551651,0.010431449860334396,-2.0553665161132812,1023.3169,
2021.02.09 08:24:02,38.0,24.0,18.539999,-11.219999,-31.8,-0.15083471,0.4189853,9.595961,0.0067195175,0.015271631,0.009162978,-0.04362957552075386,0.015717267990112305,-2.0689005851745605,1023.3169,
2021.02.09 08:24:02,38.0,24.0,18.6,-10.98,-32.219997,-0.047884032,0.4381389,10.007763,-0.015882496,-0.007941248,0.02321288,-0.043751463294029236,0.0047846524976193905,-2.048806667327881,1023.3169,
2021.02.09 08:24:02,38.0,24.0,18.48,-11.219999,-31.98,-0.062249243,0.48123455,10.000581,0.052534413,-0.02687807,0.027488936,-0.048082638531923294,0.006224482320249081,-2.0571179389953613,1023.3169,
2021.02.09 08:24:02,38.0,24.0,18.24,-11.46,-31.98,0.031124622,0.557849,9.536105,0.096516706,-0.004886922,0.028099801,-0.0584317147731781,-0.0032638597767800093,-2.0519156455993652,1023.3203,
2021.02.09 08:24:02,38.0,24.0,18.18,-11.759999,-32.1,-0.18195933,0.5315128,9.662998,0.03726278,-0.002443461,-0.0067195175,-0.054939862340688705,0.018828298896551132,-2.086491107940674,1023.3203,
2021.02.09 08:24:02,38.0,24.0,17.94,-12.12,-31.859999,-0.1316811,0.51714754,9.82341,0.013439035,-0.009773844,-0.0018325958,-0.05259113013744354,0.01340402290225029,-2.1073927879333496,1023.3203,
2021.02.09 08:24:02,38.0,24.0,17.94,-12.0,-32.219997,-0.06943185,0.545878,9.653421,0.021991149,-0.004886922,0.005497787,-0.05648600682616234,0.007192336022853851,-2.091468095779419,1023.3203,
2021.02.09 08:24:02,38.0,24.0,17.64,-11.88,-32.76,-0.047884032,0.5410896,9.473856,0.009162978,0.009773844,0.004886922,-0.057051271200180054,0.005054290872067213,-2.0900447368621826,1023.324,
2021.02.09 08:24:02,38.0,24.0,17.64,-11.82,-32.64,-0.016759412,0.5315128,9.847352,-0.057421334,0.014660766,-0.0030543262,-0.05392279848456383,0.0017019190127030015,-2.0896754264831543,1023.324,
2021.02.09 08:24:02,38.0,24.0,17.76,-11.759999,-32.76,-0.1364695,0.46926352,10.0508585,-0.043982297,0.007330383,-0.017715093,-0.0466507263481617,0.013577059842646122,-2.103545904159546,1023.324,
2021.02.09 08:24:02,38.0,24.0,17.82,-12.12,-32.52,-0.074220255,0.50996494,9.775525,0.016493361,-0.005497787,-0.0012217305,-0.052118778228759766,0.007592311128973961,-2.1052889823913574,1023.324,
2021.02.09 08:24:02,38.0,24.0,17.76,-11.94,-32.219997,-0.06943185,0.49320555,9.672575,0.0421497,-0.032375857,-0.004276057,-0.05094466730952263,0.007178094238042831,-2.1011030673980713,1023.3174,
2021.02.09 08:24:02,38.0,24.0,17.699999,-11.7,-32.04,-0.050278235,0.50517654,9.528923,0.029321533,-0.02076942,0.0,-0.052964746952056885,0.00527633260935545,-2.088433027267456,1023.3174,
2021.02.09 08:24:02,38.0,24.0,17.94,-11.7,-32.219997,-0.10295067,0.521936,9.660604,-0.029932396,-0.017715093,0.0030543262,-0.05397173389792442,0.01065635122358799,-2.084784984588623,1023.3174,
2021.02.09 08:24:02,38.0,24.0,17.52,-11.4,-32.28,-0.06464344,0.51954174,9.957485,-0.04153884,0.0018325958,0.01038471,-0.05212763324379921,0.0064918529242277145,-2.0814194679260254,1023.3174,
2021.02.09 08:24:02,38.0,24.0,18.0,-11.46,-32.28,-0.1412579,0.47405192,9.6845455,-0.0067195175,-0.0036651916,0.0,-0.048905085772275925,0.014584874734282494,-2.083034038543701,1023.3091,
2021.02.09 08:24:02,38.0,24.0,18.119999,-11.7,-32.04,-0.0047884034,0.4429273,9.787497,0.009162978,-0.0061086523,0.014049901,-0.04522353783249855,4.892367287538946E-4,-2.0855109691619873,1023.3091,
2021.02.09 08:24:02,38.0,24.0,17.94,-11.759999,-31.92,-0.059855044,0.47884035,9.871294,-0.0036651916,-0.02321288,0.014049901,-0.048469483852386475,0.006063471548259258,-2.0922231674194336,1023.3091,
2021.02.09 08:24:02,38.0,24.0,18.18,-11.94,-31.92,0.038307227,0.5291186,9.770737,0.040317107,-0.036651913,0.015882496,-0.054100144654512405,-0.003920587711036205,-2.0791845321655273,1023.3091,
2021.02.09 08:24:03,38.0,24.0,18.06,-12.0,-31.8,-0.10055647,0.51235914,9.82341,0.040317107,-0.048258353,0.013439035,-0.052107010036706924,0.010236053727567196,-2.0977485179901123,1023.31494,
2021.02.09 08:24:03,38.0,24.0,18.119999,-11.94,-32.1,-0.0047884034,0.58418524,9.437943,0.07452556,-0.0421497,0.015882496,-0.06181864067912102,5.073566571809351E-4,-2.072641134262085,1023.31494,
2021.02.09 08:24:03,38.0,24.0,18.24,-11.759999,-32.399998,-0.0023942017,0.58897364,9.727641,0.019547688,-0.030543262,0.019547688,-0.060472577810287476,2.4612355628050864E-4,-2.063157558441162,1023.31494,
2021.02.09 08:24:03,38.0,24.0,18.539999,-11.219999,-32.52,0.055066638,0.5626374,9.811439,-0.0018325958,-0.016493361,0.014660766,-0.057281408458948135,-0.005612434819340706,-2.033789873123169,1023.31494,
2021.02.09 08:24:03,38.0,24.0,18.3,-11.34,-32.64,0.090979666,0.60573304,9.715671,6.1086525E-4,-0.019547688,0.026267206,-0.06226267293095589,-0.009363945573568344,-2.0342471599578857,1023.3152,
2021.02.09 08:24:03,38.0,24.0,17.94,-11.46,-32.76,0.031124622,0.5722142,9.739613,-0.0067195175,-0.009162978,0.017104227,-0.05868346989154816,-0.0031956625171005726,-2.056363821029663,1023.3152,
2021.02.09 08:24:03,38.0,24.0,17.82,-11.5199995,-32.46,-0.02633622,0.5482722,9.782708,0.0012217305,-0.012217305,0.015271631,-0.05598625913262367,0.0026921129319816828,-2.070604085922241,1023.3152,
2021.02.09 08:24:03,38.0,24.0,17.82,-12.12,-31.859999,0.04309563,0.62249243,9.5385,0.014049901,0.0030543262,0.02076942,-0.06516797095537186,-0.0045180413872003555,-2.0798022747039795,1023.3152,
2021.02.09 08:24:03,38.0,24.0,17.76,-12.3,-31.8,-0.02873042,0.49559975,9.928755,-0.03481932,0.002443461,0.015882496,-0.04987400025129318,0.002893649972975254,-2.1152045726776123,1023.3159,
2021.02.09 08:24:03,38.0,24.0,17.76,-12.179999,-31.679998,0.18674773,0.5793968,9.682152,0.020158553,-0.004886922,0.040317107,-0.05975937098264694,-0.01928544044494629,-2.081332206726074,1023.3159,
2021.02.09 08:24:03,38.0,24.0,17.699999,-12.3,-31.199999,0.088585466,0.59615624,9.605537,0.009162978,0.0018325958,0.014049901,-0.061981674283742905,-0.009222070686519146,-2.0931098461151123,1023.3159,
2021.02.09 08:24:03,38.0,24.0,17.34,-12.48,-31.8,0.038307227,0.58418524,9.691729,-0.022602014,0.010995574,-0.0018325958,-0.060203373432159424,-0.003952548839151859,-2.1141107082366943,1023.3159,
2021.02.09 08:24:03,38.0,24.0,17.52,-12.3,-31.859999,0.031124622,0.58418524,9.998186,-0.028099801,0.0036651916,-0.004276057,-0.058362483978271484,-0.003113016951829195,-2.105034112930298,1023.32153,
2021.02.09 08:24:03,38.0,24.0,17.58,-12.24,-31.8,0.07182605,0.60094464,9.557653,0.02321288,0.020158553,-0.0012217305,-0.06279132515192032,-0.00751488795503974,-2.0919196605682373,1023.32153,
2021.02.09 08:24:03,38.0,24.0,17.58,-12.0,-32.34,0.06464344,0.5746084,9.67018,-0.004276057,0.005497787,-6.1086525E-4,-0.05934954062104225,-0.006684723310172558,-2.0856375694274902,1023.32153,
2021.02.09 08:24:03,38.0,24.0,17.76,-11.58,-32.219997,0.02873042,0.5291186,9.706094,-0.026267206,0.0,-0.0012217305,-0.05445991829037666,-0.0029600306879729033,-2.073272228240967,1023.32153,
2021.02.09 08:24:03,38.0,24.0,17.279999,-11.58,-32.34,0.0047884034,0.5674258,9.842564,-0.030543262,0.0,-0.002443461,-0.05758645385503769,-4.864995717070997E-4,-2.081916570663452,1023.3264,
2021.02.09 08:24:03,38.0,24.0,17.4,-11.58,-32.399998,0.14604631,0.61291564,9.713276,-0.005497787,0.004886922,-0.0061086523,-0.06301016360521317,-0.015034609474241734,-2.0605273246765137,1023.3264,
2021.02.09 08:24:03,38.0,24.0,17.4,-11.5199995,-32.399998,0.10534488,0.5554548,9.639056,-0.012217305,0.014660766,-0.012217305,-0.057558346539735794,-0.01092852745205164,-2.0686066150665283,1023.3264,
2021.02.09 08:24:03,38.0,24.0,17.16,-11.7,-32.399998,0.093373865,0.5650316,9.646238,-0.03481932,0.004276057,-0.020158553,-0.058505743741989136,-0.009679518640041351,-2.081742286682129,1023.3264,
2021.02.09 08:24:03,38.0,24.0,17.76,-11.88,-32.16,0.062249243,0.545878,9.703699,-0.042760566,0.031154128,-0.017104227,-0.0561942495405674,-0.006414913106709719,-2.081305980682373,1023.3208,
2021.02.09 08:24:03,38.0,24.0,18.0,-11.94,-31.98,0.04070143,0.50996494,10.110714,-0.08002335,0.004276057,-0.017104227,-0.05039495602250099,-0.004025552421808243,-2.0882091522216797,1023.3208,
2021.02.09 08:24:03,38.0,24.0,17.88,-11.94,-31.859999,0.12689269,0.58418524,9.631873,0.008552114,0.0061086523,0.004886922,-0.060571808367967606,-0.013173486106097698,-2.0711147785186768,1023.3208,
2021.02.09 08:24:03,38.0,24.0,17.82,-11.82,-32.1,0.10055647,0.50996494,9.593566,0.0030543262,0.0061086523,-0.008552114,-0.053104083985090256,-0.0104812728241086,-2.0788681507110596,1023.3208,
2021.02.09 08:24:03,38.0,24.0,17.58,-11.46,-32.28,0.10295067,0.49799395,9.40203,-0.03359759,0.015882496,-0.007941248,-0.05291402339935303,-0.010949396528303623,-2.068666458129883,1023.3196,
2021.02.09 08:24:04,38.0,24.0,17.1,-11.46,-32.28,0.11492168,0.47405192,9.763555,-0.093462385,0.023823744,-0.017104227,-0.04851175844669342,-0.011769931763410568,-2.08575701713562,1023.3196,
2021.02.09 08:24:04,38.0,24.0,17.34,-11.46,-32.16,0.076614454,0.37349546,9.234436,-0.09101892,0.035430185,-0.017104227,-0.04042251780629158,-0.008296412415802479,-2.094050407409668,1023.3196,
2021.02.09 08:24:04,38.0,24.0,17.34,-11.219999,-32.34,0.29688102,0.4333505,10.714052,-0.118507855,0.026267206,-0.0036651916,-0.0404093973338604,-0.027702411636710167,-2.0693435668945312,1023.3196,
2021.02.09 08:24:04,38.0,24.0,17.22,-11.28,-32.399998,0.090979666,0.36631286,11.372458,-0.07086037,-0.004886922,0.015271631,-0.03219836205244064,-0.007999829016625881,-2.1005637645721436,1023.33154,
