Time,X-cord,Y-cord,Mag_x,Mag_y,Mag_z,Acc_x,Acc_y,Acc_z,Gyro_x,Gyro_y,Gyro_z,Orn_x,Orn_y,Orn_z,Pressure,
2021.02.09 08:20:38,18.0,24.0,24.359999,1.74,-39.899998,-0.5746084,0.5482722,9.564836,0.122783914,0.15882497,-0.103847094,-0.05715617164969444,0.060002975165843964,-1.3861031532287598,1023.26514,
2021.02.09 08:20:38,18.0,24.0,24.24,1.56,-39.96,-0.50278234,0.50278234,9.289502,0.08002335,0.030543262,-0.036651913,-0.05399208515882492,0.054070957005023956,-1.4009028673171997,1023.26514,
2021.02.09 08:20:38,18.0,24.0,24.06,1.68,-40.26,0.059855044,0.5674258,9.3661175,-0.0012217305,-0.047036625,0.040927973,-0.060507625341415405,-0.006390505935996771,-1.4036744832992554,1023.26514,
2021.02.09 08:20:38,18.0,24.0,24.18,1.4399999,-40.32,-0.1436521,0.5482722,9.303867,-0.095294975,-0.03970624,0.026267206,-0.05885441601276398,0.015438814647495747,-1.4095724821090698,1023.25977,
2021.02.09 08:20:38,18.0,24.0,24.779999,1.1999999,-40.44,-0.25857377,0.4381389,9.957485,-0.18997909,-0.045814894,0.018325957,-0.043957795947790146,0.025961942970752716,-1.4448496103286743,1023.25977,
2021.02.09 08:20:38,18.0,24.0,24.72,1.4399999,-40.62,-0.17238252,0.44532153,9.92636,-0.14782938,-0.020158553,0.037873644,-0.044825706630945206,0.017364392057061195,-1.435125470161438,1023.25977,
2021.02.09 08:20:38,18.0,24.0,24.42,1.0799999,-40.739998,-0.18674773,0.4357447,9.61272,-0.048258353,-0.03970624,0.03359759,-0.045290470123291016,0.01942470297217369,-1.446795105934143,1023.25977,
2021.02.09 08:20:38,18.0,24.0,24.18,1.1999999,-40.68,-0.021547815,0.51714754,9.607931,-0.073303826,-0.015271631,0.0580322,-0.05377304181456566,0.0022427074145525694,-1.431082010269165,1023.26294,
2021.02.09 08:20:38,18.0,24.0,23.82,1.62,-40.26,-0.25378537,0.36391866,9.895236,-0.093462385,-0.013439035,0.027488936,-0.03674851730465889,0.025641605257987976,-1.4346798658370972,1023.26294,
2021.02.09 08:20:38,18.0,24.0,23.88,1.4399999,-39.6,-0.093373865,0.33039984,9.847352,-0.043982297,-0.012217305,0.06352998,-0.03353806585073471,0.009481845423579216,-1.4532902240753174,1023.26294,
2021.02.09 08:20:38,18.0,24.0,24.48,1.68,-39.6,-0.019153614,0.4141969,9.7324295,0.005497787,0.0018325958,0.047647487,-0.042532678693532944,0.001968017313629389,-1.433789849281311,1023.26294,
2021.02.09 08:20:38,18.0,24.0,24.539999,1.56,-39.6,0.023942016,0.38307226,9.41879,0.021991149,0.032375857,0.02443461,-0.04064853489398956,-0.0025419362355023623,-1.4430328607559204,1023.25415,
2021.02.09 08:20:38,18.0,24.0,24.42,0.9,-39.719997,-0.10295067,0.33279404,9.545682,-0.03481932,0.019547688,-0.004886922,-0.03484716638922691,0.010784633457660675,-1.4755300283432007,1023.25415,
2021.02.09 08:20:38,18.0,24.0,24.539999,0.71999997,-39.66,-0.21787235,0.37349546,9.710882,-0.07819075,0.026267206,-0.002443461,-0.038432929664850235,0.022432133555412292,-1.475330114364624,1023.25415,
2021.02.09 08:20:38,18.0,24.0,24.359999,0.59999996,-39.239998,-0.31603462,0.38067806,9.9550905,-0.044593163,0.015271631,0.009773844,-0.03820168972015381,0.0317353717982769,-1.4789878129959106,1023.25415,
2021.02.09 08:20:38,18.0,24.0,24.779999,0.24,-39.18,-0.14604631,0.35673606,9.622296,0.02321288,0.020158553,0.025045475,-0.03705266863107681,0.015176740474998951,-1.5004078149795532,1023.2522,
2021.02.09 08:20:38,18.0,24.0,25.56,0.9,-39.059998,-0.19393034,0.32561144,9.674969,-0.005497787,0.025045475,0.013439035,-0.033635590225458145,0.02004186064004898,-1.4810171127319336,1023.2522,
2021.02.09 08:20:39,18.0,24.0,25.619999,0.96,-39.3,-0.24660277,0.36631286,9.701305,-0.007941248,0.032986723,-0.007941248,-0.03772902488708496,0.02541407383978367,-1.4709471464157104,1023.2522,
2021.02.09 08:20:39,18.0,24.0,25.68,1.0799999,-39.3,-0.23702596,0.34476504,9.7563715,0.005497787,0.031154128,-6.1086525E-4,-0.03531231731176376,0.024289701133966446,-1.4704616069793701,1023.2522,
2021.02.09 08:20:39,18.0,24.0,25.56,1.5,-39.36,-0.23463176,0.34476504,9.682152,-0.02076942,0.015882496,-0.014660766,-0.035582829266786575,0.024228690192103386,-1.452608346939087,1023.25,
2021.02.09 08:20:39,18.0,24.0,25.439999,1.14,-39.36,-0.2825158,0.37349546,9.64145,0.007941248,0.02443461,-0.01038471,-0.03870255872607231,0.029293827712535858,-1.4604274034500122,1023.25,
2021.02.09 08:20:39,18.0,24.0,25.619999,0.9,-39.12,-0.25617957,0.4165911,9.639056,0.007330383,0.020158553,-0.010995574,-0.04317696765065193,0.026570990681648254,-1.464711308479309,1023.25,
2021.02.09 08:20:39,18.0,24.0,25.5,1.0799999,-39.36,-0.2705448,0.38307226,9.706094,-0.007330383,0.012217305,-0.013439035,-0.03943141922354698,0.027866488322615623,-1.462253212928772,1023.25,
2021.02.09 08:20:39,18.0,24.0,25.56,1.3199999,-39.54,-0.25139117,0.33997664,9.698911,0.015882496,0.004276057,-0.007330383,-0.035026974976062775,0.025913724675774574,-1.4600831270217896,1023.2483,
2021.02.09 08:20:39,18.0,24.0,25.08,1.4399999,-39.84,-0.20590134,0.37110126,9.5385,-0.013439035,0.004886922,-0.019547688,-0.038876961916685104,0.021582990884780884,-1.4472033977508545,1023.2483,
2021.02.09 08:20:39,18.0,24.0,24.9,2.1,-40.079998,-0.260968,0.34476504,9.682152,-0.021991149,-0.004886922,-0.023823744,-0.0355803556740284,0.026946987956762314,-1.4228873252868652,1023.2483,
2021.02.09 08:20:39,18.0,24.0,25.08,2.1,-39.84,-0.29448682,0.31124622,9.770737,-0.02443461,-0.009773844,-0.02076942,-0.031829725950956345,0.030130553990602493,-1.4296993017196655,1023.2483,
2021.02.09 08:20:39,18.0,24.0,24.9,2.3999999,-39.54,-0.31603462,0.33039984,9.770737,-0.0036651916,-0.004886922,-0.015271631,-0.03378470614552498,0.03233374282717705,-1.412830114364624,1023.2595,
2021.02.09 08:20:39,18.0,24.0,24.9,2.7,-39.48,-0.33758244,0.39264908,9.651027,-0.01038471,-0.0067195175,-0.0061086523,-0.04063744097948074,0.034964658319950104,-1.3883699178695679,1023.2595,
2021.02.09 08:20:39,18.0,24.0,25.08,2.46,-39.66,-0.20350714,0.33997664,9.634268,-0.020158553,-0.009773844,-0.021380283,-0.03526577353477478,0.021120117977261543,-1.4122501611709595,1023.2595,
2021.02.09 08:20:39,18.0,24.0,24.96,2.46,-40.32,-0.34476504,0.3184288,9.816227,-0.035430185,-0.01282817,-0.015882496,-0.03240768238902092,0.03510751947760582,-1.4109793901443481,1023.2595,
2021.02.09 08:20:39,18.0,24.0,24.72,1.92,-40.739998,-0.21308395,0.34955344,9.744401,0.010995574,-0.007330383,-0.015271631,-0.03584829717874527,0.021863838657736778,-1.429121971130371,1023.2595,
2021.02.09 08:20:39,18.0,24.0,24.9,2.1,-40.62,-0.25139117,0.30885202,9.548077,0.004886922,0.005497787,-0.021991149,-0.032324571162462234,0.026322903111577034,-1.4276964664459229,1023.2595,
2021.02.09 08:20:39,18.0,24.0,25.019999,2.1,-39.96,-0.29448682,0.260968,9.703699,-0.020158553,-0.0061086523,-0.013439035,-0.026874816045165062,0.030338581651449203,-1.437415599822998,1023.2595,
2021.02.09 08:20:39,18.0,24.0,24.96,2.1,-39.42,-0.28491,0.28491,9.76116,-6.1086525E-4,-0.004886922,-0.015882496,-0.029167428612709045,0.02917984314262867,-1.4342738389968872,1023.2595,
2021.02.09 08:20:39,18.0,24.0,25.14,2.04,-38.879997,-0.18914193,0.35194764,9.67018,0.015271631,0.0012217305,-0.002443461,-0.03637214004993439,0.01955680176615715,-1.4293829202651978,1023.26465,
2021.02.09 08:20:39,18.0,24.0,25.08,1.86,-38.76,-0.20829555,0.33039984,9.61272,-0.007330383,0.0030543262,-0.01160644,-0.03434952720999718,0.021665353327989578,-1.439172625541687,1023.26465,
2021.02.09 08:20:39,18.0,24.0,24.9,1.68,-38.94,-0.35194764,0.22266077,9.76116,-0.008552114,0.0012217305,-0.009162978,-0.022792130708694458,0.03604031354188919,-1.4610682725906372,1023.26465,
2021.02.09 08:20:39,18.0,24.0,25.019999,1.5,-38.76,-0.21068975,0.34237084,9.82341,0.014660766,-0.002443461,0.005497787,-0.03483043983578682,0.02144443243741989,-1.452784538269043,1023.26465,
2021.02.09 08:20:39,18.0,24.0,25.199999,1.4399999,-39.18,-0.19153613,0.2896984,9.603143,0.045814894,-0.0030543262,0.0067195175,-0.03015190176665783,0.019942507147789,-1.463263750076294,1023.26807,
2021.02.09 08:20:39,18.0,24.0,25.199999,1.4399999,-39.36,-0.16280572,0.34715924,9.531317,0.02565634,0.0030543262,-6.1086525E-4,-0.03640161082148552,0.01707947440445423,-1.453616738319397,1023.26807,
2021.02.09 08:20:39,18.0,24.0,24.9,1.68,-39.54,-0.19632454,0.2657564,9.880871,-0.008552114,-0.005497787,-0.0030543262,-0.02688426524400711,0.019866539165377617,-1.457005500793457,1023.26807,
2021.02.09 08:20:40,18.0,24.0,24.779999,1.5,-39.84,-0.19393034,0.3854665,9.689334,0.035430185,-0.002443461,-0.009773844,-0.039753638207912445,0.020012155175209045,-1.442158818244934,1023.26807,
2021.02.09 08:20:40,18.0,24.0,24.66,1.38,-39.719997,-0.21308395,0.35913026,9.52174,0.02443461,6.1086525E-4,-0.0030543262,-0.03768957406282425,0.022374942898750305,-1.4495306015014648,1023.25244,
2021.02.09 08:20:40,18.0,24.0,24.539999,1.4399999,-39.719997,-0.15801731,0.36870706,9.794679,0.007941248,-0.018936822,-0.01160644,-0.03762095049023628,0.016131576150655746,-1.4480644464492798,1023.25244,
2021.02.09 08:20:40,18.0,24.0,24.96,1.3199999,-39.54,-0.17717093,0.37828386,9.648633,0.03970624,-0.0030543262,-0.002443461,-0.03917928412556648,0.01836021989583969,-1.4522689580917358,1023.25244,
2021.02.09 08:20:40,18.0,24.0,25.199999,1.3199999,-39.54,-0.11731588,0.37349546,9.579201,0.01160644,-0.013439035,-0.007330383,-0.038967594504356384,0.012246325612068176,-1.4551335573196411,1023.25244,
2021.02.09 08:20:40,18.0,24.0,25.26,1.5,-39.54,-0.17717093,0.37588966,9.607931,-0.021991149,-0.007330383,-0.023823744,-0.03909626603126526,0.018437981605529785,-1.446584701538086,1023.2495,
2021.02.09 08:20:40,18.0,24.0,25.439999,1.56,-39.48,-0.14604631,0.39264908,9.950302,-0.002443461,-0.0067195175,-0.018325957,-0.03943631425499916,0.01467652153223753,-1.4455442428588867,1023.2495,
2021.02.09 08:20:40,18.0,24.0,25.199999,1.62,-39.54,-0.18195933,0.4357447,9.514558,0.032986723,0.0061086523,-0.032986723,-0.04575734958052635,0.01912197656929493,-1.4306122064590454,1023.2495,
2021.02.09 08:20:40,18.0,24.0,25.199999,1.56,-39.84,-0.33997664,0.34476504,9.627085,-0.010995574,-0.005497787,-0.019547688,-0.03577440604567528,0.03529993072152138,-1.4446780681610107,1023.2495,
2021.02.09 08:20:40,18.0,24.0,25.199999,1.38,-39.719997,-0.18674773,0.4165911,9.835381,0.015882496,-0.0030543262,-0.004886922,-0.042323458939790726,0.01898505911231041,-1.4454700946807861,1023.2561,
2021.02.09 08:20:40,18.0,24.0,24.96,1.3199999,-39.54,-0.18914193,0.4141969,9.710882,0.017715093,-0.0067195175,-0.0061086523,-0.042618948966264725,0.019474852830171585,-1.4464138746261597,1023.2561,
2021.02.09 08:20:40,18.0,24.0,24.84,1.62,-39.78,-0.19393034,0.40222588,9.44752,0.02076942,0.020158553,6.1086525E-4,-0.042540110647678375,0.02052423357963562,-1.432965636253357,1023.2561,
2021.02.09 08:20:40,18.0,24.0,24.539999,1.92,-39.42,-0.21787235,0.37349546,9.854534,-0.031154128,-0.004276057,0.0,-0.037873491644859314,0.022105243057012558,-1.4267865419387817,1023.2561,
2021.02.09 08:20:40,18.0,24.0,24.0,2.22,-39.36,-0.15801731,0.45010993,9.665392,0.017715093,0.02076942,0.004276057,-0.04652940481901169,0.016347317025065422,-1.3984028100967407,1023.2649,
2021.02.09 08:20:40,18.0,24.0,24.359999,2.58,-39.66,-0.20590134,0.4429273,9.696517,-0.01038471,0.0067195175,-0.004886922,-0.04563700407743454,0.021231377497315407,-1.3853976726531982,1023.2649,
2021.02.09 08:20:40,18.0,24.0,24.359999,1.86,-40.02,-0.22266077,0.4213795,9.600749,-0.004276057,0.015882496,-0.0036651916,-0.04385035112500191,0.02318786457180977,-1.4167754650115967,1023.2649,
2021.02.09 08:20:40,18.0,24.0,24.48,2.04,-39.84,-0.23942018,0.39264908,9.837775,-0.014660766,-0.0036651916,0.009162978,-0.039879415184259415,0.024332020431756973,-1.4167295694351196,1023.2649,
2021.02.09 08:20:40,18.0,24.0,24.96,1.86,-40.2,-0.23463176,0.4165911,9.576807,0.0067195175,0.002443461,0.008552114,-0.04345956817269325,0.024495096877217293,-1.4204533100128174,1023.2678,
2021.02.09 08:20:40,18.0,24.0,24.539999,1.62,-39.96,-0.10055647,0.4189853,9.6845455,-0.012217305,-0.0061086523,0.018936822,-0.043234001845121384,0.010382816195487976,-1.4325474500656128,1023.2678,
2021.02.09 08:20:40,18.0,24.0,24.42,2.22,-39.48,-0.21547815,0.4189853,9.7084875,-0.021991149,-0.0036651916,-0.0018325958,-0.04311922937631607,0.022191179916262627,-1.4048333168029785,1023.2678,
2021.02.09 08:20:40,18.0,24.0,24.3,2.34,-39.54,-0.25378537,0.3878607,9.643845,-0.01282817,0.0030543262,0.004886922,-0.04018291085958481,0.026309717446565628,-1.402451992034912,1023.2678,
2021.02.09 08:20:40,18.0,24.0,24.3,2.76,-39.42,-0.17956513,0.4357447,9.7563715,-0.03359759,0.0036651916,0.004886922,-0.04462536796927452,0.018402831628918648,-1.3806990385055542,1023.26807,
2021.02.09 08:20:40,18.0,24.0,24.66,2.8799999,-39.48,-0.14604631,0.40462008,9.677363,-0.009162978,0.004886922,0.0067195175,-0.041781894862651825,0.015090393833816051,-1.3842285871505737,1023.26807,
2021.02.09 08:20:40,18.0,24.0,24.779999,2.6399999,-39.96,-0.22266077,0.36870706,9.763555,-0.018325957,-0.0018325958,-0.002443461,-0.037735871970653534,0.022801345214247704,-1.3979299068450928,1023.26807,
2021.02.09 08:20:40,18.0,24.0,24.9,2.6399999,-40.14,-0.25139117,0.39983168,9.662998,0.0067195175,-0.004886922,0.002443461,-0.041340041905641556,0.02600998990237713,-1.391473650932312,1023.26807,
2021.02.09 08:20:41,18.0,24.0,24.9,2.52,-40.32,-0.18674773,0.4261679,9.61272,-0.009773844,0.0067195175,0.0012217305,-0.04429639130830765,0.01942470483481884,-1.3933515548706055,1023.2605,
2021.02.09 08:20:41,18.0,24.0,24.72,2.22,-40.2,-0.20111294,0.35913026,9.813833,-0.008552114,0.0036651916,-0.0012217305,-0.03657029569149017,0.020489932969212532,-1.4168814420700073,1023.2605,
2021.02.09 08:20:41,18.0,24.0,24.72,1.9799999,-40.26,-0.2633622,0.34476504,9.643845,0.017715093,-0.0012217305,0.004886922,-0.035721223801374435,0.027302052825689316,-1.4261184930801392,1023.2605,
2021.02.09 08:20:41,18.0,24.0,24.779999,1.62,-39.96,-0.18914193,0.39504328,9.576807,0.007941248,0.007941248,-0.004276057,-0.0412185974419117,0.019747432321310043,-1.4346849918365479,1023.2605,
2021.02.09 08:20:41,18.0,24.0,25.019999,0.9,-39.54,-0.260968,0.39264908,9.624691,-0.035430185,0.007941248,-0.0067195175,-0.04075844585895538,0.027107786387205124,-1.4651951789855957,1023.26416,
2021.02.09 08:20:41,18.0,24.0,25.14,0.71999997,-39.6,-0.20350714,0.35673606,9.818622,0.004276057,-6.1086525E-4,0.004276057,-0.036308836191892624,0.020723683759570122,-1.4815529584884644,1023.26416,
2021.02.09 08:20:41,18.0,24.0,25.26,0.96,-39.12,-0.17238252,0.35673606,9.667787,0.02321288,6.1086525E-4,-0.0036651916,-0.0368768647313118,0.017828719690442085,-1.4726533889770508,1023.26416,
2021.02.09 08:20:41,18.0,24.0,25.32,0.78,-39.239998,-0.2633622,0.37588966,9.500193,-0.016493361,0.007330383,-0.009773844,-0.03953072801232338,0.027714675292372704,-1.4737845659255981,1023.26416,
2021.02.09 08:20:41,18.0,24.0,25.14,0.9,-39.3,-0.2753332,0.35913026,9.718064,-0.025045475,0.007941248,0.0,-0.036923304200172424,0.02832452394068241,-1.4721933603286743,1023.26587,
2021.02.09 08:20:41,18.0,24.0,25.08,0.9,-39.12,-0.17956513,0.37588966,9.753978,-0.009162978,0.002443461,-0.0018325958,-0.0385114811360836,0.018407346680760384,-1.4716367721557617,1023.26587,
2021.02.09 08:20:41,18.0,24.0,25.14,0.84,-39.0,-0.30166942,0.35434186,9.763555,0.007330383,0.0,-0.0036651916,-0.03625909611582756,0.030887672677636147,-1.4757503271102905,1023.26587,
2021.02.09 08:20:41,18.0,24.0,25.08,1.38,-39.18,-0.15562311,0.37110126,9.598354,-6.1086525E-4,-6.1086525E-4,6.1086525E-4,-0.03863869234919548,0.01621210016310215,-1.4523767232894897,1023.26587,
2021.02.09 08:20:41,18.0,24.0,24.84,1.92,-39.18,-0.21547815,0.36631286,9.751583,-0.013439035,-0.004886922,-0.004276057,-0.03753764182329178,0.022093141451478004,-1.4295042753219604,1023.2666,
2021.02.09 08:20:41,18.0,24.0,24.72,2.1599998,-39.36,-0.23942018,0.36631286,9.662998,-0.009773844,0.01282817,-0.01282817,-0.037879060953855515,0.02477193996310234,-1.417331337928772,1023.2666,
2021.02.09 08:20:41,18.0,24.0,24.42,2.34,-39.48,-0.2753332,0.30645782,9.768343,0.0,-0.007330383,-0.005497787,-0.03134981915354729,0.02817881479859352,-1.4175972938537598,1023.2666,
2021.02.09 08:20:41,18.0,24.0,24.539999,2.52,-39.54,-0.21547815,0.37110126,9.5385,-0.0018325958,0.007941248,-0.0012217305,-0.03887609764933586,0.0225865188986063,-1.4000599384307861,1023.2666,
2021.02.09 08:20:41,18.0,24.0,24.3,2.22,-39.78,-0.22266077,0.34955344,9.859323,-0.016493361,-0.01038471,-0.004276057,-0.03543023392558098,0.022579941898584366,-1.4161654710769653,1023.27466,
2021.02.09 08:20:41,18.0,24.0,24.06,2.1,-40.14,-0.1604115,0.36870706,9.715671,0.022602014,-0.002443461,0.002443461,-0.037926364690065384,0.016509095206856728,-1.4166334867477417,1023.27466,
2021.02.09 08:20:41,18.0,24.0,24.119999,2.28,-40.32,-0.260968,0.30166942,9.598354,-0.0012217305,0.004276057,-0.01160644,-0.031407345086336136,0.02718213014304638,-1.4171147346496582,1023.27466,
2021.02.09 08:20:41,18.0,24.0,23.76,2.3999999,-40.32,-0.2801216,0.33758244,9.677363,-0.0030543262,0.0036651916,-0.005497787,-0.03485499322414398,0.028937984257936478,-1.4029314517974854,1023.27466,
2021.02.09 08:20:41,18.0,24.0,24.119999,2.82,-40.5,-0.21547815,0.37110126,9.7803135,-0.014660766,0.002443461,0.0030543262,-0.037916310131549835,0.022028261795639992,-1.3846646547317505,1023.26733,
2021.02.09 08:20:41,18.0,24.0,24.359999,2.82,-40.02,-0.23223756,0.32800564,9.77792,0.014660766,0.0,-6.1086525E-4,-0.033523522317409515,0.023746758699417114,-1.3940999507904053,1023.26733,
2021.02.09 08:20:41,18.0,24.0,24.359999,2.82,-40.02,-0.2801216,0.33758244,9.564836,0.009162978,0.004276057,6.1086525E-4,-0.03526436910033226,0.029278241097927094,-1.3892899751663208,1023.26733,
2021.02.09 08:20:41,18.0,24.0,24.779999,2.52,-39.899998,-0.20590134,0.34715924,9.742006,-0.005497787,0.002443461,0.0061086523,-0.03561227396130562,0.021132268011569977,-1.4069164991378784,1023.26733,
2021.02.09 08:20:41,18.0,24.0,25.199999,2.22,-39.84,-0.23463176,0.34476504,9.682152,0.005497787,0.005497787,0.0018325958,-0.035582829266786575,0.024228690192103386,-1.4209738969802856,1023.2683,
2021.02.09 08:20:42,18.0,24.0,25.32,1.92,-39.84,-0.21547815,0.38067806,9.634268,0.0030543262,0.0061086523,0.0018325958,-0.03948251157999039,0.022362075746059418,-1.4279340505599976,1023.2683,
2021.02.09 08:20:42,18.0,24.0,25.38,1.3199999,-39.42,-0.31124622,0.33758244,9.782708,0.0012217305,-0.0012217305,-0.004276057,-0.034476954489946365,0.03180522844195366,-1.4590795040130615,1023.2683,
2021.02.09 08:20:42,18.0,24.0,24.66,1.0799999,-39.42,-0.20111294,0.36152446,9.588778,0.01038471,-0.0030543262,0.0030543262,-0.037676747888326645,0.02097070962190628,-1.4628055095672607,1023.2683,
2021.02.09 08:20:42,18.0,24.0,24.539999,1.38,-39.36,-0.21308395,0.34715924,9.660604,0.009773844,0.0012217305,0.0018325958,-0.035911381244659424,0.022053426131606102,-1.4525574445724487,1023.2595,
2021.02.09 08:20:42,18.0,24.0,24.84,1.74,-39.0,-0.23942018,0.37828386,9.648633,-0.0030543262,-0.0030543262,0.0,-0.03917383402585983,0.02480880357325077,-1.4338122606277466,1023.2595,
2021.02.09 08:20:42,18.0,24.0,25.38,1.9799999,-39.42,-0.30166942,0.35673606,9.739613,0.008552114,-0.0012217305,6.1086525E-4,-0.03659343719482422,0.030963553115725517,-1.428928256034851,1023.2595,
2021.02.09 08:20:42,18.0,24.0,25.56,1.9799999,-39.239998,-0.15083471,0.37110126,9.588778,0.013439035,-0.0030543262,0.004886922,-0.03867753595113754,0.015729039907455444,-1.4309276342391968,1023.2595,
2021.02.09 08:20:42,18.0,24.0,25.38,1.3199999,-39.239998,-0.2657564,0.33039984,9.569624,-0.016493361,0.008552114,-0.004276057,-0.034498896449804306,0.027763694524765015,-1.4601967334747314,1023.26294,
2021.02.09 08:20:42,18.0,24.0,24.96,1.62,-39.6,-0.272939,0.36152446,9.765948,-0.013439035,-0.002443461,0.0012217305,-0.03698755428195,0.02794075571000576,-1.4411598443984985,1023.26294,
2021.02.09 08:20:42,18.0,24.0,24.72,1.92,-39.36,-0.22266077,0.40462008,9.7563715,-0.010995574,6.1086525E-4,0.0036651916,-0.04143786057829857,0.022818125784397125,-1.4219272136688232,1023.26294,
2021.02.09 08:20:42,18.0,24.0,24.9,1.86,-39.48,-0.20590134,0.35194764,9.76116,0.01160644,-0.004276057,0.004276057,-0.0360323041677475,0.021090814843773842,-1.4345147609710693,1023.26294,
2021.02.09 08:20:42,18.0,24.0,24.72,2.1599998,-39.18,-0.18914193,0.36631286,9.591172,-6.1086525E-4,0.0030543262,0.004886922,-0.03816674277186394,0.019717862829566002,-1.418626308441162,1023.2595,
2021.02.09 08:20:42,18.0,24.0,24.84,2.22,-39.239998,-0.25617957,0.35194764,9.727641,-0.023823744,0.004886922,-0.007330383,-0.036151863634586334,0.02632913552224636,-1.4182003736495972,1023.2595,
2021.02.09 08:20:42,18.0,24.0,24.48,2.04,-39.239998,-0.31124622,0.37588966,9.830592,0.012217305,0.002443461,0.007330383,-0.038198988884687424,0.03165040910243988,-1.418454885482788,1023.2595,
2021.02.09 08:20:42,18.0,24.0,24.84,2.28,-39.18,-0.20350714,0.40701428,9.674969,0.018325957,-0.005497787,0.009162978,-0.04203471913933754,0.021031297743320465,-1.4079077243804932,1023.2595,
2021.02.09 08:20:42,18.0,24.0,25.08,2.8799999,-39.48,-0.18674773,0.37349546,9.65821,0.015271631,0.0036651916,0.010995574,-0.03864482045173645,0.019333237782120705,-1.390893578529358,1023.2534,
2021.02.09 08:20:42,18.0,24.0,24.96,3.0,-39.6,-0.20350714,0.36870706,9.667787,-0.007330383,-0.0012217305,0.004886922,-0.03811078146100044,0.021046916022896767,-1.385303258895874,1023.2534,
2021.02.09 08:20:42,18.0,24.0,24.9,3.0,-39.6,-0.29688102,0.4213795,9.744401,-0.0030543262,-0.0012217305,0.005497787,-0.04319629818201065,0.03045741096138954,-1.3732916116714478,1023.2534,
2021.02.09 08:20:42,18.0,24.0,24.42,2.76,-39.66,-0.25378537,0.3878607,9.694122,0.008552114,-0.007330383,0.018936822,-0.0399748720228672,0.02617332525551319,-1.386060118675232,1023.2534,
2021.02.09 08:20:42,18.0,24.0,24.0,2.3999999,-39.54,-0.20590134,0.40222588,9.682152,0.014660766,-0.005497787,0.020158553,-0.041509781032800674,0.021262867376208305,-1.3972309827804565,1023.24585,
2021.02.09 08:20:42,18.0,24.0,24.119999,2.04,-39.3,-0.20350714,0.37588966,9.569624,0.0061086523,-0.002443461,0.017104227,-0.039250411093235016,0.021262744441628456,-1.417351245880127,1023.24585,
2021.02.09 08:20:42,18.0,24.0,24.42,2.3999999,-39.48,-0.17238252,0.40701428,9.722853,-0.02321288,-6.1086525E-4,0.01038471,-0.04183061793446541,0.017727766185998917,-1.4009736776351929,1023.24585,
2021.02.09 08:20:42,18.0,24.0,24.72,2.1599998,-39.84,-0.25378537,0.38067806,9.7563715,0.0,-6.1086525E-4,0.0067195175,-0.03898544982075691,0.026006406173110008,-1.4143010377883911,1023.24585,
2021.02.09 08:20:42,18.0,24.0,25.439999,1.68,-39.54,-0.17477672,0.4213795,9.65821,0.009773844,-0.004276057,0.012217305,-0.043594375252723694,0.01809420809149742,-1.4332679510116577,1023.24365,
2021.02.09 08:20:42,18.0,24.0,25.439999,1.26,-39.36,-0.22026655,0.37349546,9.622296,0.007941248,-0.0030543262,-6.1086525E-4,-0.03878600150346756,0.022887270897626877,-1.4568538665771484,1023.24365,
2021.02.09 08:20:43,18.0,24.0,25.26,0.53999996,-38.94,-0.22984336,0.4141969,9.674969,-0.005497787,-0.0018325958,0.0018325958,-0.042773012071847916,0.02375202812254429,-1.4793977737426758,1023.24365,
2021.02.09 08:20:43,18.0,24.0,25.08,0.71999997,-39.0,-0.19871874,0.39504328,9.713276,0.0,-0.007330383,0.009162978,-0.04063954949378967,0.02045561373233795,-1.475341558456421,1023.24365,
2021.02.09 08:20:43,18.0,24.0,24.779999,0.71999997,-39.18,-0.17956513,0.40222588,9.674969,0.010995574,-0.007330383,-0.0012217305,-0.041542794555425644,0.018557632341980934,-1.472753882408142,1023.2554,
2021.02.09 08:20:43,18.0,24.0,24.779999,1.14,-39.36,-0.21547815,0.37828386,9.591172,-0.0030543262,-0.004276057,6.1086525E-4,-0.03941046819090843,0.022462520748376846,-1.4577813148498535,1023.2554,
2021.02.09 08:20:43,18.0,24.0,25.26,1.38,-39.719997,-0.15562311,0.3854665,9.696517,-0.0067195175,-0.01160644,0.0036651916,-0.03972705453634262,0.016048002988100052,-1.4506455659866333,1023.2554,
2021.02.09 08:20:43,18.0,24.0,25.5,1.4399999,-39.42,-0.2705448,0.39264908,9.799467,-0.004276057,-0.015882496,0.004276057,-0.04003174975514412,0.027601100504398346,-1.4466938972473145,1023.2554,
2021.02.09 08:20:43,18.0,24.0,25.38,1.62,-39.84,-0.16998832,0.4333505,9.629479,0.019547688,-0.012217305,0.007330383,-0.044965144246816635,0.01765107549726963,-1.4327012300491333,1023.2573,
2021.02.09 08:20:43,18.0,24.0,25.199999,1.62,-39.719997,-0.20111294,0.37588966,9.7324295,-0.0012217305,-0.010995574,0.01038471,-0.03859496861696243,0.020661266520619392,-1.4414186477661133,1023.2573,
2021.02.09 08:20:43,18.0,24.0,24.9,2.04,-39.54,-0.19393034,0.39025488,9.61272,-0.0061086523,-0.005497787,0.005497787,-0.04056723788380623,0.02017161063849926,-1.4199855327606201,1023.2573,
2021.02.09 08:20:43,18.0,24.0,24.84,1.8,-39.96,-0.260968,0.38307226,9.775525,0.0,-0.008552114,0.008552114,-0.03915289416909218,0.026689719408750534,-1.4291799068450928,1023.2573,
2021.02.09 08:20:43,18.0,24.0,24.6,1.68,-39.66,-0.16280572,0.45010993,9.698911,0.019547688,-0.01038471,0.015882496,-0.04636850208044052,0.01678440347313881,-1.424124002456665,1023.2615,
2021.02.09 08:20:43,18.0,24.0,24.84,1.4399999,-39.78,-0.21787235,0.40462008,9.543288,-0.0061086523,0.0018325958,0.009162978,-0.04236198961734772,0.022825937718153,-1.4400169849395752,1023.2615,
2021.02.09 08:20:43,18.0,24.0,25.019999,1.02,-40.14,-0.18914193,0.37588966,9.832987,-0.013439035,-0.009162978,0.014660766,-0.038201749324798584,0.019233079627156258,-1.465166449546814,1023.2615,
2021.02.09 08:20:43,18.0,24.0,25.019999,1.56,-39.899998,-0.16519992,0.44532153,9.674969,0.020158553,-0.0067195175,0.012217305,-0.045989055186510086,0.01707332208752632,-1.4314942359924316,1023.2615,
2021.02.09 08:20:43,18.0,24.0,24.72,1.92,-39.84,-0.11252748,0.4261679,9.536105,0.0018325958,0.0018325958,0.009773844,-0.044657111167907715,0.011799603700637817,-1.4189915657043457,1023.25977,
2021.02.09 08:20:43,18.0,24.0,24.539999,1.74,-39.54,-0.22266077,0.39025488,9.813833,-0.017715093,-0.01038471,0.0036651916,-0.03973463922739029,0.022684568539261818,-1.4307928085327148,1023.25977,
2021.02.09 08:20:43,18.0,24.0,24.48,1.62,-39.0,-0.107739076,0.4405331,9.696517,0.015882496,-0.002443461,0.004276057,-0.045398078858852386,0.011110653169453144,-1.4303075075149536,1023.25977,
2021.02.09 08:20:43,18.0,24.0,24.66,1.14,-39.0,-0.20111294,0.4237737,9.605537,0.009162978,-0.005497787,-0.005497787,-0.044079408049583435,0.020934129133820534,-1.4505728483200073,1023.25977,
2021.02.09 08:20:43,18.0,24.0,25.26,0.84,-39.239998,-0.1316811,0.40701428,9.648633,0.0,-0.0036651916,0.007941248,-0.0421547032892704,0.013646796345710754,-1.4697233438491821,1023.2654,
2021.02.09 08:20:43,18.0,24.0,25.08,0.71999997,-39.48,-0.1364695,0.4213795,9.65821,-0.0018325958,-0.009773844,0.0,-0.043597154319286346,0.014128955081105232,-1.4709949493408203,1023.2654,
2021.02.09 08:20:43,18.0,24.0,25.14,0.48,-39.66,-0.16519992,0.4237737,9.615114,0.0030543262,-0.005497787,-6.1086525E-4,-0.04403871297836304,0.0171795841306448,-1.47927987575531,1023.2654,
2021.02.09 08:20:43,18.0,24.0,25.08,0.24,-39.3,-0.12210429,0.4333505,9.734824,-0.004886922,-0.0061086523,-0.0067195175,-0.044482626020908356,0.012542381882667542,-1.4895764589309692,1023.2654,
2021.02.09 08:20:43,18.0,24.0,25.38,0.06,-38.879997,-0.20111294,0.36391866,9.495404,0.008552114,0.0018325958,0.0012217305,-0.03829843923449516,0.021176863461732864,-1.506980299949646,1023.2605,
2021.02.09 08:20:43,18.0,24.0,25.74,0.12,-38.64,-0.08619126,0.4261679,9.720459,-0.034208454,-0.0036651916,-0.0012217305,-0.0438125841319561,0.008866761811077595,-1.4991689920425415,1023.2605,
2021.02.09 08:20:43,18.0,24.0,25.5,0.42,-38.579998,-0.17717093,0.4405331,9.722853,-0.014660766,0.005497787,-0.009773844,-0.045270565897226334,0.018220098689198494,-1.4828433990478516,1023.2605,
2021.02.09 08:20:44,18.0,24.0,25.199999,0.65999997,-38.879997,-0.1340753,0.4357447,9.674969,-0.01038471,0.002443461,-0.004276057,-0.04500362649559975,0.013857070356607437,-1.4728087186813354,1023.2605,
2021.02.09 08:20:44,18.0,24.0,24.66,1.26,-39.42,-0.16280572,0.4141969,9.844957,-0.021380283,0.007941248,-0.008552114,-0.04204144328832626,0.016535459086298943,-1.4492323398590088,1023.26587,
2021.02.09 08:20:44,18.0,24.0,24.18,1.62,-39.84,-0.17238252,0.4165911,9.605537,-0.0061086523,0.0,-0.009773844,-0.04333576187491417,0.01794423535466194,-1.4284253120422363,1023.26587,
2021.02.09 08:20:44,18.0,24.0,23.82,1.62,-40.62,-0.16998832,0.4285621,9.674969,-0.017715093,0.004276057,-0.004886922,-0.044260211288928986,0.01756810024380684,-1.423240065574646,1023.26587,
2021.02.09 08:20:44,18.0,24.0,23.76,1.68,-40.44,-0.24899697,0.36391866,9.928755,-0.032986723,0.01160644,-0.014049901,-0.03662509471178055,0.025073112919926643,-1.4318042993545532,1023.26587,
2021.02.09 08:20:44,18.0,24.0,23.82,1.92,-40.32,-0.15083471,0.41180268,9.576807,0.029321533,0.007330383,-6.1086525E-4,-0.042968202382326126,0.01574869640171528,-1.4139528274536133,1023.27075,
2021.02.09 08:20:44,18.0,24.0,24.42,2.34,-40.26,-0.15562311,0.39025488,9.399636,-0.007941248,-0.002443461,-0.0030543262,-0.04148857295513153,0.016554776579141617,-1.4029446840286255,1023.27075,
2021.02.09 08:20:44,18.0,24.0,24.42,3.0,-39.899998,-0.21787235,0.33997664,9.55047,-0.09101892,0.0067195175,-0.009773844,-0.035573624074459076,0.022808779031038284,-1.384228229522705,1023.27075,
2021.02.09 08:20:44,18.0,24.0,24.539999,3.24,-39.78,-0.2801216,0.24181437,9.749189,-0.10262536,-0.0018325958,-0.009162978,-0.024788225069642067,0.028724905103445053,-1.3913652896881104,1023.27075,
2021.02.09 08:20:44,18.0,24.0,24.84,2.8799999,-39.54,-0.1316811,0.3184288,9.904813,-0.056199603,-0.017715093,0.013439035,-0.03213499113917351,0.013293874450027943,-1.4013534784317017,1023.2732,
2021.02.09 08:20:44,18.0,24.0,24.66,2.46,-39.239998,-0.062249243,0.35434186,9.512163,-0.0061086523,0.019547688,0.005497787,-0.03723343834280968,0.006544080097228289,-1.4113203287124634,1023.2732,
2021.02.09 08:20:44,18.0,24.0,24.9,1.62,-39.12,-0.260968,0.22026655,9.801862,-0.04642576,0.018325957,-0.021991149,-0.022460171952843666,0.02661804109811783,-1.4658279418945312,1023.2732,
2021.02.09 08:20:44,18.0,24.0,24.66,1.74,-39.54,-0.09816227,0.2896984,9.775525,-0.025045475,0.017715093,-0.0012217305,-0.029624907299876213,0.010041299276053905,-1.4511113166809082,1023.2732,
2021.02.09 08:20:44,18.0,24.0,24.48,1.86,-39.719997,-0.15562311,0.2873042,9.627085,0.0012217305,0.021991149,-0.0061086523,-0.02983057126402855,0.016163725405931473,-1.4432963132858276,1023.26465,
2021.02.09 08:20:44,18.0,24.0,24.6,1.8,-39.719997,-0.1364695,0.260968,9.639056,-0.02687807,0.023823744,-0.0018325958,-0.027064695954322815,0.014157027937471867,-1.451395869255066,1023.26465,
2021.02.09 08:20:44,18.0,24.0,24.66,2.04,-39.78,-0.033518825,0.25617957,9.825804,-0.064751714,6.1086525E-4,0.007941248,-0.026066066697239876,0.0034112930297851562,-1.445928931236267,1023.26465,
2021.02.09 08:20:44,18.0,24.0,24.6,1.86,-39.42,-0.038307227,0.31124622,10.381259,-0.06841691,-0.005497787,0.016493361,-0.029972363263368607,0.0036900201812386513,-1.4469883441925049,1023.26465,
2021.02.09 08:20:44,18.0,24.0,24.6,2.1,-38.879997,-0.31603462,0.088585466,10.448297,0.073303826,0.06352998,-0.009162978,-0.008474381640553474,0.030238257721066475,-1.46714448928833,1023.2615,
