Time,X-cord,Y-cord,Mag_x,Mag_y,Mag_z,Acc_x,Acc_y,Acc_z,Gyro_x,Gyro_y,Gyro_z,Orn_x,Orn_y,Orn_z,Pressure,
2021.02.09 08:28:21,50.0,23.0,-5.16,20.58,-36.66,-0.6607997,0.3878607,10.041282,0.28221974,0.11178834,-0.11056661,-0.03852417692542076,0.0657135471701622,0.33139076828956604,1023.26904,
2021.02.09 08:28:21,50.0,23.0,-5.2799997,20.88,-37.02,-0.51235914,0.2825158,9.411607,0.30115658,0.039095376,-0.013439035,-0.029964454472064972,0.054385386407375336,0.320167601108551,1023.26904,
2021.02.09 08:28:21,50.0,23.0,-5.22,20.88,-37.44,-0.2657564,0.6464345,8.669404,0.07513642,-0.08002335,0.013439035,-0.07439249008893967,0.030644921585917473,0.26351213455200195,1023.26904,
2021.02.09 08:28:21,50.0,23.0,-4.68,20.58,-37.8,-0.39025488,0.45729253,9.184157,-0.10629055,-0.13255776,0.028710667,-0.049705587327480316,0.04246663674712181,0.2731172740459442,1023.26904,
2021.02.09 08:28:21,50.0,23.0,-5.04,20.64,-37.5,-0.29688102,0.32321724,9.495404,-0.20891592,-0.15149458,0.084910266,-0.03400959074497223,0.0312555767595768,0.27631792426109314,1023.2688,
2021.02.09 08:28:21,50.0,23.0,-4.62,20.46,-37.38,-0.23702596,0.23463176,10.06283,-0.18936823,-0.1685988,0.096516706,-0.023305991664528847,0.02355024963617325,0.25239142775535583,1023.2688,
2021.02.09 08:28:21,50.0,23.0,-4.56,20.22,-36.78,0.031124622,0.3854665,9.909601,-0.06047566,-0.11789699,0.106901415,-0.03887849301099777,-0.003140844637528062,0.20261156558990479,1023.2688,
2021.02.09 08:28:21,50.0,23.0,-4.5,20.34,-37.2,0.093373865,0.59855044,9.334992,-0.0421497,-0.09040806,0.08307768,-0.06402816623449326,-0.01000223122537136,0.18001672625541687,1023.2688,
2021.02.09 08:28:21,50.0,23.0,-4.2,19.92,-37.32,0.04309563,0.4141969,9.7084875,-0.14049901,-0.09896017,0.045814894,-0.04263710230588913,-0.004438935313373804,0.18554046750068665,1023.26514,
2021.02.09 08:28:21,50.0,23.0,-4.62,19.8,-37.02,0.1604115,0.29209262,10.117896,-0.10751228,-0.06169739,0.03604105,-0.028857268393039703,-0.015852907672524452,0.19094352424144745,1023.26514,
2021.02.09 08:28:21,50.0,23.0,-4.92,20.22,-37.62,0.062249243,0.25857377,9.82341,-0.008552114,0.0,0.047036625,-0.02631559781730175,-0.006336741149425507,0.21730166673660278,1023.26514,
2021.02.09 08:28:21,50.0,23.0,-5.04,20.039999,-37.02,0.18674773,0.29688102,9.68694,0.013439035,-0.004276057,0.06719518,-0.030632276087999344,-0.019275911152362823,0.20157462358474731,1023.26514,
2021.02.09 08:28:21,50.0,23.0,-4.7999997,20.16,-36.719997,0.19871874,0.36152446,9.526528,-0.021991149,-0.0067195175,0.030543262,-0.03792279213666916,-0.02085648849606514,0.18508730828762054,1023.26904,
2021.02.09 08:28:21,50.0,23.0,-4.44,20.58,-36.719997,0.11252748,0.31364042,9.8042555,-0.028099801,0.03359759,-0.02076942,-0.03197722136974335,-0.011476908810436726,0.18272961676120758,1023.26904,
2021.02.09 08:28:21,50.0,23.0,-4.38,20.4,-36.48,-0.050278235,0.23942018,9.902418,-0.014660766,0.021380283,-0.015271631,-0.024172931909561157,0.005077326204627752,0.21137124300003052,1023.26904,
2021.02.09 08:28:21,50.0,23.0,-4.3199997,20.939999,-36.54,-0.01436521,0.272939,9.605537,-0.0030543262,0.017715093,0.0018325958,-0.028407080098986626,0.0014955123187974095,0.19655492901802063,1023.26904,
2021.02.09 08:28:21,50.0,23.0,-4.5,21.06,-36.54,0.093373865,0.30406362,9.947908,0.01038471,0.028710667,0.01282817,-0.030554722994565964,-0.009386004880070686,0.18536525964736938,1023.2844,
2021.02.09 08:28:21,50.0,23.0,-5.04,21.18,-36.84,0.055066638,0.3184288,9.636662,0.047647487,0.025045475,0.008552114,-0.0330309197306633,-0.005714223720133305,0.21247687935829163,1023.2844,
2021.02.09 08:28:21,50.0,23.0,-5.2799997,21.359999,-36.78,0.0,0.2825158,9.65821,0.036651913,0.014049901,0.002443461,-0.029243024066090584,1.0E-6,0.23122715950012207,1023.2844,
2021.02.09 08:28:21,50.0,23.0,-5.1,21.18,-36.96,-0.016759412,0.31364042,9.797073,0.004886922,0.020158553,-0.004276057,-0.032002706080675125,0.001710653305053711,0.22701892256736755,1023.2844,
2021.02.09 08:28:21,50.0,23.0,-5.2799997,21.18,-36.78,-0.062249243,0.3184288,9.7803135,0.026267206,0.019547688,-0.0018325958,-0.03254598006606102,0.006364663131535053,0.2417297214269638,1023.2798,
2021.02.09 08:28:21,50.0,23.0,-5.1,21.0,-36.719997,0.059855044,0.33518824,9.727641,0.05497787,0.04153884,0.0030543262,-0.034443020820617676,-0.006153011228889227,0.21561935544013977,1023.2798,
2021.02.09 08:28:21,50.0,23.0,-4.5,20.82,-36.54,-0.110133275,0.37110126,9.64145,0.0061086523,-0.0061086523,-0.007941248,-0.03846869617700577,0.011422398500144482,0.21789637207984924,1023.2798,
2021.02.09 08:28:21,50.0,23.0,-4.62,20.76,-36.36,-0.093373865,0.35194764,9.622296,0.008552114,0.031154128,-6.1086525E-4,-0.03655824810266495,0.009703601710498333,0.22157688438892365,1023.2798,
2021.02.09 08:28:21,50.0,23.0,-4.3199997,20.58,-36.719997,-0.09816227,0.37828386,9.703699,-0.007330383,0.015271631,-0.008552114,-0.0389617457985878,0.010115619748830795,0.21015627682209015,1023.26807,
2021.02.09 08:28:22,50.0,23.0,-4.14,20.58,-36.54,-0.05267244,0.36391866,9.785102,-0.004276057,0.013439035,-0.014049901,-0.037173423916101456,0.005382869392633438,0.1952911913394928,1023.26807,
2021.02.09 08:28:22,50.0,23.0,-4.56,20.64,-36.899998,-0.090979666,0.34955344,9.718064,0.0061086523,0.019547688,-0.0061086523,-0.035952378064394,0.009361638687551022,0.21984703838825226,1023.26807,
2021.02.09 08:28:22,50.0,23.0,-4.7999997,20.939999,-36.6,-0.093373865,0.39983168,9.617508,-0.010995574,0.017715093,-0.0067195175,-0.04154743254184723,0.009708432480692863,0.22580890357494354,1023.26807,
2021.02.09 08:28:22,50.0,23.0,-4.92,20.58,-36.3,-0.10534488,0.36631286,9.739613,-0.025045475,0.008552114,0.0,-0.03759070485830307,0.010815704241394997,0.23768654465675354,1023.2771,
2021.02.09 08:28:22,50.0,23.0,-4.8599997,20.64,-36.54,-0.062249243,0.40940848,9.718064,-0.03726278,0.007941248,-0.01038471,-0.04210284352302551,0.006405430845916271,0.22596260905265808,1023.2771,
2021.02.09 08:28:22,50.0,23.0,-4.68,20.16,-35.94,-0.12210429,0.36870706,9.871294,-6.1086525E-4,0.013439035,-0.009773844,-0.0373312309384346,0.012369002215564251,0.2341255247592926,1023.2771,
2021.02.09 08:28:22,50.0,23.0,-4.14,19.859999,-35.94,-0.08379706,0.36152446,9.629479,-0.0012217305,-0.0061086523,-0.0012217305,-0.03752446547150612,0.00870191864669323,0.20708578824996948,1023.2771,
2021.02.09 08:28:22,50.0,23.0,-4.2,20.279999,-36.42,-0.055066638,0.35434186,9.722853,-0.0030543262,0.007330383,-0.016493361,-0.03642752021551132,0.005663569085299969,0.20130185782909393,1023.272,
2021.02.09 08:28:22,50.0,23.0,-3.78,20.46,-36.36,-0.1436521,0.35913026,9.811439,-0.017104227,-0.009773844,-0.02687807,-0.03658296912908554,0.014640241861343384,0.19550015032291412,1023.272,
2021.02.09 08:28:22,50.0,23.0,-3.84,20.82,-36.42,-0.16998832,0.35673606,9.682152,0.007941248,0.013439035,-0.007330383,-0.036822378635406494,0.01755507104098797,0.19956305623054504,1023.272,
2021.02.09 08:28:22,50.0,23.0,-4.08,20.88,-36.719997,-0.021547815,0.37828386,9.734824,0.0012217305,-0.0061086523,6.1086525E-4,-0.038839191198349,0.002213474130257964,0.1845654398202896,1023.272,
2021.02.09 08:28:22,50.0,23.0,-4.08,20.939999,-36.42,-0.09816227,0.34715924,9.749189,-0.017715093,-0.0012217305,-0.01038471,-0.03559219464659691,0.010068422183394432,0.19749239087104797,1023.2549,
2021.02.09 08:28:22,50.0,23.0,-4.62,20.64,-36.48,-0.050278235,0.3854665,9.830592,0.0,-0.015882496,-0.015271631,-0.039190325886011124,0.005114422179758549,0.21460145711898804,1023.2549,
2021.02.09 08:28:22,50.0,23.0,-4.7999997,20.88,-36.719997,-0.07182605,0.39264908,9.655815,0.004276057,-0.005497787,-0.022602014,-0.04064100235700607,0.0074384938925504684,0.2231675237417221,1023.2549,
2021.02.09 08:28:22,50.0,23.0,-4.92,21.0,-36.3,-0.19871874,0.2753332,9.878476,-0.0061086523,-0.020158553,-0.02076942,-0.02785918489098549,0.020113622769713402,0.2513456642627716,1023.2549,
2021.02.09 08:28:22,50.0,23.0,-4.98,21.18,-36.3,-0.076614454,0.38307226,9.725247,0.018936822,0.0036651916,-0.002443461,-0.03936788812279701,0.007877729833126068,0.2290070801973343,1023.26245,
2021.02.09 08:28:22,50.0,23.0,-4.98,21.119999,-35.88,-0.02873042,0.37349546,9.715671,0.014049901,-0.01038471,-0.007941248,-0.03842349350452423,0.0029571130871772766,0.2224825918674469,1023.26245,
2021.02.09 08:28:22,50.0,23.0,-5.04,20.76,-35.7,-0.10295067,0.36152446,9.734824,0.005497787,0.0018325958,-0.01282817,-0.037118103355169296,0.010575109161436558,0.24071477353572845,1023.26245,
2021.02.09 08:28:22,50.0,23.0,-5.16,21.119999,-36.0,-0.17717093,0.34715924,9.816227,0.012217305,-0.008552114,-0.017104227,-0.03534536808729172,0.018046820536255836,0.2539990246295929,1023.26245,
2021.02.09 08:28:22,50.0,23.0,-4.74,20.52,-35.7,-0.11252748,0.40462008,9.662998,0.027488936,0.0030543262,0.0012217305,-0.041845861822366714,0.011644667945802212,0.23025205731391907,1023.26953,
2021.02.09 08:28:22,50.0,23.0,-4.38,20.64,-35.88,0.0047884034,0.38307226,9.56723,0.009773844,0.009162978,0.0,-0.040018655359745026,-5.005004350095987E-4,0.1952252835035324,1023.26953,
2021.02.09 08:28:22,50.0,23.0,-4.2,20.82,-35.94,-0.11971009,0.38067806,9.866506,-0.019547688,-0.009162978,-0.018325957,-0.038560900837183,0.012132382020354271,0.20596635341644287,1023.26953,
2021.02.09 08:28:22,50.0,23.0,-3.72,19.98,-35.76,-0.12689269,0.40222588,9.7563715,0.002443461,0.004276057,-0.015882496,-0.0412001833319664,0.013005401939153671,0.1928146928548813,1023.26953,
2021.02.09 08:28:22,50.0,23.0,-4.44,20.58,-36.6,-0.08379706,0.36391866,9.8042555,0.017715093,0.01038471,-0.0030543262,-0.03710005059838295,0.008546801283955574,0.21349476277828217,1023.2776,
2021.02.09 08:28:22,50.0,23.0,-4.7999997,20.46,-36.54,0.0,0.39025488,9.67018,0.013439035,0.015271631,-0.012217305,-0.04033464193344116,1.0E-6,0.2156059890985489,1023.2776,
2021.02.09 08:28:23,50.0,23.0,-4.74,20.88,-37.14,-0.08140286,0.4189853,9.849746,0.018325957,0.01160644,-0.032375857,-0.04251059889793396,0.008264275267720222,0.22124096751213074,1023.2776,
2021.02.09 08:28:23,50.0,23.0,-5.46,20.88,-37.079998,-0.14844051,0.40222588,9.6845455,0.02321288,0.026267206,-0.03604105,-0.04150402918457985,0.015326366759836674,0.2628992199897766,1023.2776,
2021.02.09 08:28:23,50.0,23.0,-5.16,20.22,-36.239998,-0.18435353,0.35913026,9.809045,0.023823744,0.021991149,-0.018936822,-0.036589350551366806,0.01879202574491501,0.26489803194999695,1023.2825,
2021.02.09 08:28:23,50.0,23.0,-5.3399997,20.34,-36.78,-0.08140286,0.4141969,9.61272,0.004276057,0.01038471,-0.009162978,-0.04306024685502052,0.008468042127788067,0.25251251459121704,1023.2825,
2021.02.09 08:28:23,50.0,23.0,-5.52,20.16,-36.6,-0.15801731,0.4141969,9.900024,0.016493361,0.004276057,-0.012217305,-0.04180826619267464,0.015959950163960457,0.27456143498420715,1023.2825,
2021.02.09 08:28:23,50.0,23.0,-5.2799997,20.16,-36.899998,-0.11252748,0.45729253,9.65821,0.026267206,0.0,-0.0067195175,-0.04730900377035141,0.011650439351797104,0.2552613615989685,1023.2825,
2021.02.09 08:28:23,50.0,23.0,-5.04,20.52,-37.2,-0.11731588,0.4381389,9.725247,0.005497787,0.010995574,-0.016493361,-0.04501798003911972,0.0120624378323555,0.24267350137233734,1023.2781,
2021.02.09 08:28:23,50.0,23.0,-4.74,20.22,-37.14,-0.20111294,0.4141969,9.818622,0.0030543262,-0.005497787,-0.015271631,-0.04215100035071373,0.020479945465922356,0.24752502143383026,1023.2781,
2021.02.09 08:28:23,50.0,23.0,-4.62,20.039999,-37.38,-0.12689269,0.45729253,9.689334,0.02443461,0.007330383,-0.002443461,-0.04715642333030701,0.013095371425151825,0.23044434189796448,1023.2781,
2021.02.09 08:28:23,50.0,23.0,-4.5,20.22,-37.26,-0.12449849,0.46208093,9.725247,0.017715093,-0.007330383,-0.007330383,-0.04747394844889641,0.012800876051187515,0.22283095121383667,1023.2781,
2021.02.09 08:28:23,50.0,23.0,-4.3199997,20.279999,-37.38,-0.19153613,0.4309563,9.662998,0.004886922,0.004276057,-0.013439035,-0.04456033557653427,0.01981901004910469,0.2268543392419815,1023.2822,
2021.02.09 08:28:23,50.0,23.0,-4.44,20.64,-37.14,-0.20829555,0.4261679,9.7324295,0.0067195175,-0.0036651916,-0.0036651916,-0.04375047609210014,0.02139894850552082,0.23112116754055023,1023.2822,
2021.02.09 08:28:23,50.0,23.0,-4.38,20.16,-36.66,-0.047884032,0.46926352,9.603143,-0.002443461,0.007330383,0.007330383,-0.048826176673173904,0.00498624611645937,0.20518603920936584,1023.2822,
2021.02.09 08:28:23,50.0,23.0,-4.74,20.16,-36.719997,-0.17956513,0.4405331,9.720459,-0.030543262,-0.002443461,-0.007941248,-0.045281488448381424,0.018470805138349533,0.24360021948814392,1023.2822,
2021.02.09 08:28:23,50.0,23.0,-4.98,20.46,-36.719997,-0.17238252,0.4285621,9.797073,-0.0036651916,-0.002443461,-6.1086525E-4,-0.04370926693081856,0.017593493685126305,0.24988369643688202,1023.28564,
2021.02.09 08:28:23,50.0,23.0,-5.16,20.039999,-36.54,-0.11492168,0.44532153,9.665392,0.004276057,0.0018325958,0.0030543262,-0.046038009226322174,0.011889457702636719,0.25232619047164917,1023.28564,
2021.02.09 08:28:23,50.0,23.0,-5.46,20.64,-36.54,-0.1316811,0.45968673,9.722853,-0.008552114,-0.008552114,0.0012217305,-0.04723949357867241,0.01354263536632061,0.26049017906188965,1023.28564,
2021.02.09 08:28:23,50.0,23.0,-5.04,20.58,-36.36,-0.079008654,0.47165772,9.727641,-0.015882496,0.0036651916,-0.002443461,-0.04844680428504944,0.008121898397803307,0.23468151688575745,1023.28564,
2021.02.09 08:28:23,50.0,23.0,-5.3399997,20.76,-36.12,-0.16998832,0.4333505,9.710882,-0.009773844,0.002443461,-0.01160644,-0.0445888377726078,0.01750314235687256,0.2611331641674042,1023.2876,
2021.02.09 08:28:23,50.0,23.0,-5.2799997,21.06,-36.66,-0.095768064,0.45489833,9.7084875,-0.018936822,0.004886922,-0.0012217305,-0.04681921750307083,0.009864045307040215,0.2430669069290161,1023.2876,
2021.02.09 08:28:23,50.0,23.0,-5.1,21.0,-37.2,-0.050278235,0.49081135,9.799467,-0.013439035,-0.009162978,-0.014660766,-0.05004303902387619,0.005130666308104992,0.2276965081691742,1023.2876,
2021.02.09 08:28:23,50.0,23.0,-5.1,21.3,-37.38,-0.11252748,0.48123455,9.849746,-0.007941248,-0.007941248,-0.02565634,-0.04881555959582329,0.011423908174037933,0.2348785549402237,1023.2876,
2021.02.09 08:28:23,50.0,23.0,-5.1,21.24,-37.44,-0.074220255,0.46447513,9.744401,0.027488936,-0.0036651916,-0.019547688,-0.04762841761112213,0.007616560440510511,0.2300216257572174,1023.2898,
2021.02.09 08:28:23,50.0,23.0,-5.16,21.42,-37.5,-0.107739076,0.46686932,9.562442,0.007941248,-0.0012217305,-0.025045475,-0.04878140613436699,0.011266423389315605,0.23592443764209747,1023.2898,
2021.02.09 08:28:23,50.0,23.0,-5.58,21.18,-37.26,-0.17717093,0.4333505,9.744401,-0.014660766,-0.0018325958,-0.02076942,-0.044435128569602966,0.018179815262556076,0.2677069902420044,1023.2898,
2021.02.09 08:28:24,50.0,23.0,-5.58,20.82,-37.44,-0.12210429,0.4429273,9.734824,0.009773844,-0.0030543262,-0.018936822,-0.04546432942152023,0.012542381882667542,0.2626761198043823,1023.2898,
2021.02.09 08:28:24,50.0,23.0,-5.46,20.52,-37.68,-0.10295067,0.46208093,9.646238,0.017715093,0.0012217305,-0.015271631,-0.047863394021987915,0.010672218166291714,0.25708603858947754,1023.28564,
2021.02.09 08:28:24,50.0,23.0,-5.22,20.46,-37.26,-0.1340753,0.4165911,9.665392,-0.02321288,-0.021991149,-0.016493361,-0.04307051748037338,0.01387079805135727,0.2545962631702423,1023.28564,
2021.02.09 08:28:24,50.0,23.0,-4.92,20.76,-37.2,-0.17717093,0.44532153,9.799467,0.010995574,0.004886922,-0.0067195175,-0.045404788106679916,0.018077678978443146,0.2443891167640686,1023.28564,
2021.02.09 08:28:24,50.0,23.0,-4.98,20.939999,-37.2,-0.06464344,0.47405192,9.519346,-0.01038471,-0.002443461,-0.007941248,-0.04975653812289238,0.006790639832615852,0.22594787180423737,1023.28564,
2021.02.09 08:28:24,50.0,23.0,-5.2799997,20.88,-37.079998,-0.16759412,0.40940848,9.765948,-0.018325957,0.0018325958,-0.01038471,-0.041891347616910934,0.01715938374400139,0.25807276368141174,1023.2842,
2021.02.09 08:28:24,50.0,23.0,-5.22,20.4,-37.02,-0.1316811,0.3854665,9.655815,-0.021380283,-0.005497787,0.0061086523,-0.03989576920866966,0.013636646792292595,0.2561422288417816,1023.2842,
2021.02.09 08:28:24,50.0,23.0,-5.04,20.22,-36.719997,-0.16998832,0.40222588,9.792285,-0.008552114,-6.1086525E-4,0.007941248,-0.041046541184186935,0.01735766977071762,0.255793035030365,1023.2842,
2021.02.09 08:28:24,50.0,23.0,-5.04,19.619999,-36.3,-0.062249243,0.44771573,9.588778,-0.014049901,0.004886922,0.009773844,-0.046656765043735504,0.0064917937852442265,0.2429005652666092,1023.2842,
2021.02.09 08:28:24,50.0,23.0,-4.44,19.56,-36.18,-0.17717093,0.39264908,9.746795,-0.02565634,-0.0067195175,6.1086525E-4,-0.04025653004646301,0.01817535236477852,0.23813699185848236,1023.281,
2021.02.09 08:28:24,50.0,23.0,-4.56,19.619999,-36.12,-0.12210429,0.40701428,9.701305,-0.01282817,0.012217305,0.010995574,-0.041926681995391846,0.012585712596774101,0.23316213488578796,1023.281,
2021.02.09 08:28:24,50.0,23.0,-4.38,19.68,-36.239998,-0.12928689,0.39743748,9.667787,-0.0036651916,0.009162978,0.01038471,-0.041082657873630524,0.01337215956300497,0.22606246173381805,1023.281,
2021.02.09 08:28:24,50.0,23.0,-4.2,20.4,-36.18,-0.15083471,0.38307226,9.651027,-0.012217305,0.0036651916,0.015882496,-0.03966671600937843,0.015627603977918625,0.21503545343875885,1023.281,
2021.02.09 08:28:24,50.0,23.0,-4.56,20.699999,-36.48,-0.110133275,0.4141969,9.746795,-0.022602014,0.004886922,0.008552114,-0.04246744140982628,0.011298954486846924,0.22005653381347656,1023.2876,
2021.02.09 08:28:24,50.0,23.0,-4.2,21.119999,-36.54,-0.1316811,0.3854665,9.888053,0.0012217305,0.002443461,0.01160644,-0.03895987570285797,0.01331640500575304,0.2051190882921219,1023.2876,
2021.02.09 08:28:24,50.0,23.0,-4.38,21.06,-36.719997,-0.05267244,0.39264908,9.564836,0.03359759,0.0067195175,0.015271631,-0.04102765768766403,0.005506828427314758,0.20049257576465607,1023.2876,
2021.02.09 08:28:24,50.0,23.0,-4.62,20.82,-36.719997,-0.12210429,0.36152446,9.667787,-0.008552114,-6.1086525E-4,-0.0012217305,-0.037374354898929596,0.012629343196749687,0.22534289956092834,1023.2876,
2021.02.09 08:28:24,50.0,23.0,-4.92,20.4,-36.84,-0.15083471,0.40940848,9.758766,-0.010995574,0.01160644,0.004886922,-0.04192329943180084,0.015455099754035473,0.24532550573349,1023.28955,
2021.02.09 08:28:24,50.0,23.0,-5.52,20.039999,-37.32,-0.107739076,0.37828386,9.77792,0.009773844,-0.007330383,0.01160644,-0.038665927946567535,0.011018162593245506,0.2695748209953308,1023.28955,
2021.02.09 08:28:24,50.0,23.0,-5.8799996,20.279999,-37.079998,-0.038307227,0.39743748,9.593566,0.016493361,0.0067195175,0.009162978,-0.04140349477529526,0.003992991056293249,0.26981550455093384,1023.28955,
2021.02.09 08:28:24,50.0,23.0,-5.94,20.82,-37.32,-0.1316811,0.36870706,9.773131,-0.009773844,-0.005497787,-0.002443461,-0.03770529851317406,0.013472972437739372,0.28232720494270325,1023.28955,
2021.02.09 08:28:24,50.0,23.0,-5.52,21.18,-37.14,-0.11971009,0.4213795,9.715671,0.01160644,0.0018325958,0.0067195175,-0.043340668082237244,0.012320716865360737,0.2567506432533264,1023.28345,
2021.02.09 08:28:24,50.0,23.0,-4.98,21.359999,-36.78,-0.088585466,0.4213795,9.576807,0.014660766,-0.0018325958,0.0036651916,-0.043969761580228806,0.009249735623598099,0.22774678468704224,1023.28345,
2021.02.09 08:28:24,50.0,23.0,-4.8599997,21.119999,-37.079998,-0.15801731,0.4165911,9.782708,-0.004886922,0.0030543262,0.0,-0.04255317896604538,0.01615131087601185,0.23622435331344604,1023.28345,
2021.02.09 08:28:24,50.0,23.0,-4.8599997,21.359999,-37.02,-0.18674773,0.40462008,9.696517,0.004276057,-0.007941248,0.01160644,-0.04169647768139839,0.01925687864422798,0.23887507617473602,1023.28345,
2021.02.09 08:28:25,50.0,23.0,-4.7999997,21.24,-37.079998,-0.08379706,0.4261679,9.7084875,0.018936822,0.0018325958,0.020158553,-0.043866630643606186,0.008631105534732342,0.22048161923885345,1023.2876,
2021.02.09 08:28:25,50.0,23.0,-5.04,20.939999,-36.84,-0.062249243,0.45968673,9.639056,-0.01038471,-0.008552114,0.007941248,-0.04765291512012482,0.006457933224737644,0.2287403643131256,1023.2876,
2021.02.09 08:28:25,50.0,23.0,-4.62,20.82,-37.02,-0.1364695,0.4405331,9.725247,-0.01282817,-0.0018325958,-0.005497787,-0.04526248574256897,0.014031575992703438,0.22483105957508087,1023.2876,
2021.02.09 08:28:25,50.0,23.0,-4.68,20.46,-37.02,-0.19153613,0.4261679,9.811439,0.012217305,-0.007941248,6.1086525E-4,-0.04340027645230293,0.01951923780143261,0.24031944572925568,1023.2876,
2021.02.09 08:28:25,50.0,23.0,-4.7999997,19.98,-36.719997,-0.11971009,0.47165772,9.593566,0.017715093,0.0067195175,0.01038471,-0.049120593816041946,0.012477517127990723,0.2371262013912201,1023.2837,
2021.02.09 08:28:25,50.0,23.0,-4.8599997,20.34,-36.96,-0.1340753,0.45250413,9.691729,-0.013439035,-0.007941248,6.1086525E-4,-0.046651385724544525,0.013833110220730305,0.239044189453125,1023.2837,
2021.02.09 08:28:25,50.0,23.0,-5.3399997,20.699999,-36.719997,-0.1364695,0.40462008,9.706094,0.007330383,-0.0061086523,0.0067195175,-0.04165898263454437,0.014059261418879032,0.25780752301216125,1023.2837,
2021.02.09 08:28:25,50.0,23.0,-5.46,20.64,-36.36,-0.095768064,0.4333505,9.744401,0.0012217305,-0.009773844,0.01282817,-0.044440317898988724,0.009827692992985249,0.25591033697128296,1023.2837,
2021.02.09 08:28:25,50.0,23.0,-5.4,21.06,-36.66,-0.079008654,0.44532153,9.682152,0.014660766,-0.0018325958,0.0061086523,-0.04596015065908432,0.008160056546330452,0.24576424062252045,1023.2832,
2021.02.09 08:28:25,50.0,23.0,-5.4,20.76,-36.6,-0.1316811,0.4357447,9.68694,-0.008552114,0.004276057,-0.0012217305,-0.04494824633002281,0.013592835515737534,0.25763604044914246,1023.2832,
2021.02.09 08:28:25,50.0,23.0,-5.52,20.64,-36.6,-0.17717093,0.4237737,9.785102,-0.007330383,0.0030543262,0.007330383,-0.0432739220559597,0.01810421422123909,0.2715809941291809,1023.2832,
2021.02.09 08:28:25,50.0,23.0,-5.1,20.82,-36.719997,-0.1364695,0.44532153,9.706094,0.022602014,0.0018325958,0.017715093,-0.0458439365029335,0.014059260487556458,0.24482649564743042,1023.2832,
2021.02.09 08:28:25,50.0,23.0,-5.2799997,20.82,-36.66,-0.088585466,0.4333505,9.483433,0.01160644,0.015271631,0.016493361,-0.04566177725791931,0.009340805001556873,0.24518221616744995,1023.28174,
2021.02.09 08:28:25,50.0,23.0,-5.4,20.699999,-36.3,-0.12449849,0.4189853,9.868899,-0.021991149,-0.009162978,0.010995574,-0.04242626950144768,0.012614565901458263,0.25777119398117065,1023.28174,
2021.02.09 08:28:25,50.0,23.0,-5.16,20.64,-36.36,-0.12928689,0.4405331,9.739613,0.02565634,0.0061086523,0.014660766,-0.0451962873339653,0.013273555785417557,0.24825474619865417,1023.28174,
2021.02.09 08:28:25,50.0,23.0,-5.22,20.1,-36.48,-0.059855044,0.4333505,9.507375,0.022602014,0.009773844,0.016493361,-0.045548029243946075,0.006295560393482447,0.24562349915504456,1023.28174,
2021.02.09 08:28:25,50.0,23.0,-5.3399997,19.98,-36.719997,-0.12689269,0.4357447,9.703699,-0.017104227,-0.0067195175,0.01282817,-0.04487103223800659,0.013075987808406353,0.26313677430152893,1023.2805,
2021.02.09 08:28:25,50.0,23.0,-5.1,20.4,-36.96,-0.09816227,0.46686932,9.727641,6.1086525E-4,0.0061086523,0.007330383,-0.04795485734939575,0.010090723633766174,0.24226774275302887,1023.2805,
2021.02.09 08:28:25,50.0,23.0,-5.2799997,20.82,-37.2,-0.11971009,0.47884035,9.706094,0.0012217305,-0.004276057,6.1086525E-4,-0.049290284514427185,0.012332873418927193,0.2484000027179718,1023.2805,
2021.02.09 08:28:25,50.0,23.0,-5.46,21.119999,-37.32,-0.10295067,0.4429273,9.691729,0.016493361,-0.007941248,0.004886922,-0.04566722735762596,0.010622129775583744,0.2514232099056244,1023.2805,
2021.02.09 08:28:25,50.0,23.0,-5.7599998,21.48,-37.38,-0.08619126,0.45729253,9.627085,0.01160644,-0.0030543262,0.004886922,-0.04746304824948311,0.008952758274972439,0.2566029727458954,1023.28564,
2021.02.09 08:28:25,50.0,23.0,-5.7599998,21.72,-37.5,-0.033518825,0.45968673,9.619903,0.0018325958,0.002443461,0.0,-0.04774835705757141,0.0034843063913285732,0.24576348066329956,1023.28564,
2021.02.09 08:28:25,50.0,23.0,-5.7,21.24,-37.32,-0.15562311,0.45968673,9.698911,-0.009162978,-0.008552114,-0.008552114,-0.04735417664051056,0.016044044867157936,0.26751598715782166,1023.28564,
2021.02.09 08:28:25,50.0,23.0,-5.4,21.48,-37.26,-0.10295067,0.44532153,9.643845,-0.009162978,6.1086525E-4,0.002443461,-0.0461413636803627,0.010674867779016495,0.2451484650373459,1023.28564,
2021.02.09 08:28:25,50.0,23.0,-5.04,21.48,-37.079998,-0.055066638,0.4429273,9.627085,-0.008552114,0.0018325958,-0.005497787,-0.045975279062986374,0.005719907581806183,0.22299818694591522,1023.2859,
2021.02.09 08:28:26,50.0,23.0,-5.22,21.119999,-36.84,-0.08140286,0.47884035,9.7084875,-0.017715093,-0.002443461,-0.014660766,-0.04928016662597656,0.008384513668715954,0.2368260622024536,1023.2859,
2021.02.09 08:28:26,50.0,23.0,-5.4,21.6,-36.6,-0.12210429,0.4333505,9.713276,0.004276057,-0.0012217305,-0.012217305,-0.04458116367459297,0.01257020328193903,0.24732965230941772,1023.2859,
2021.02.09 08:28:26,50.0,23.0,-5.52,21.18,-36.6,-0.11252748,0.48123455,9.555259,-0.010995574,0.009162978,-0.012217305,-0.050317320972681046,0.011775952763855457,0.25326940417289734,1023.2859,
2021.02.09 08:28:26,50.0,23.0,-5.52,21.0,-36.3,-0.1436521,0.46926352,9.739613,-0.028710667,-0.0018325958,-0.018325957,-0.048138462007045746,0.014748191460967064,0.2604594826698303,1023.2854,
2021.02.09 08:28:26,50.0,23.0,-5.8199997,21.119999,-36.18,-0.1604115,0.44771573,9.751583,0.018325957,0.01160644,-0.0036651916,-0.045873694121837616,0.016448307782411575,0.2747865319252014,1023.2854,
2021.02.09 08:28:26,50.0,23.0,-5.94,21.06,-36.36,-0.107739076,0.4309563,9.545682,0.015882496,0.0018325958,0.0018325958,-0.0451132208108902,0.011286202818155289,0.2730464041233063,1023.2854,
2021.02.09 08:28:26,50.0,23.0,-5.58,21.06,-36.36,-0.1436521,0.45968673,9.557653,-0.025045475,0.004276057,-0.01282817,-0.04805373772978783,0.015028927475214005,0.26271864771842957,1023.2854,
2021.02.09 08:28:26,50.0,23.0,-5.52,21.24,-36.12,-0.07182605,0.47405192,9.854534,6.1086525E-4,0.0036651916,-0.018936822,-0.048066627234220505,0.007288500666618347,0.24685877561569214,1023.2827,
2021.02.09 08:28:26,50.0,23.0,-4.98,21.18,-36.0,-0.10534488,0.46686932,9.610326,0.01038471,0.012217305,-0.014049901,-0.04853889346122742,0.010961195454001427,0.23052339255809784,1023.2827,
2021.02.09 08:28:26,50.0,23.0,-4.68,20.76,-36.12,-0.11492168,0.45489833,9.564836,-0.01038471,0.007330383,-0.022602014,-0.047520216554403305,0.012014441192150116,0.22396115958690643,1023.2827,
2021.02.09 08:28:26,50.0,23.0,-4.8599997,20.52,-36.239998,-0.1604115,0.4141969,9.739613,-0.02321288,-0.005497787,-0.014660766,-0.04249567538499832,0.01646852120757103,0.24270407855510712,1023.2827,
2021.02.09 08:28:26,50.0,23.0,-4.98,20.279999,-36.6,-0.15801731,0.4261679,9.636662,-0.007330383,-0.008552114,-0.005497787,-0.04418887943029404,0.016396045684814453,0.24975371360778809,1023.2783,
2021.02.09 08:28:26,50.0,23.0,-5.04,20.22,-36.899998,-0.16280572,0.4213795,9.615114,-0.019547688,-0.017715093,0.01038471,-0.043790411204099655,0.016930652782320976,0.25406181812286377,1023.2783,
2021.02.09 08:28:26,50.0,23.0,-4.8599997,20.279999,-36.6,0.016759412,0.46686932,9.701305,-0.025045475,0.0012217305,0.007941248,-0.04808720946311951,-0.0017275402788072824,0.21452118456363678,1023.2783,
2021.02.09 08:28:26,50.0,23.0,-4.7999997,20.64,-36.78,-0.1388637,0.3878607,9.77792,-0.018325957,0.017104227,-0.014660766,-0.03964221850037575,0.014200808480381966,0.236527219414711,1023.2783,
2021.02.09 08:28:26,50.0,23.0,-4.8599997,20.52,-36.719997,-0.15801731,0.39983168,9.607931,0.007941248,0.022602014,0.0,-0.04158513620495796,0.016445064917206764,0.24313408136367798,1023.27246,
2021.02.09 08:28:26,50.0,23.0,-5.04,20.64,-36.84,-0.01436521,0.47405192,9.6845455,0.015882496,0.017715093,0.013439035,-0.0489102266728878,0.0014833116438239813,0.22347977757453918,1023.27246,
2021.02.09 08:28:26,50.0,23.0,-5.4,21.3,-37.5,0.021547815,0.48123455,9.629479,-0.009773844,0.015882496,-0.0012217305,-0.04993347078561783,-0.002237688982859254,0.22576245665550232,1023.27246,
2021.02.09 08:28:26,50.0,23.0,-5.7,21.119999,-37.38,-0.08140286,0.4333505,9.710882,0.018325957,0.009162978,-0.004276057,-0.04459409415721893,0.008382447063922882,0.2582610249519348,1023.27246,
2021.02.09 08:28:26,50.0,23.0,-6.06,21.3,-37.44,-0.11971009,0.4381389,9.52174,-0.004276057,0.015882496,0.005497787,-0.04597851634025574,0.012571629136800766,0.27670204639434814,1023.2781,
2021.02.09 08:28:26,50.0,23.0,-6.18,21.359999,-37.38,-0.074220255,0.51235914,9.751583,-0.029321533,-0.0018325958,0.026267206,-0.052491337060928345,0.007610951084643602,0.27075034379959106,1023.2781,
2021.02.09 08:28:26,50.0,23.0,-6.24,21.0,-37.079998,0.079008654,0.5386954,9.651027,-0.031154128,0.021991149,0.021991149,-0.05575769022107124,-0.008186371996998787,0.2522011399269104,1023.2781,
2021.02.09 08:28:26,50.0,23.0,-6.48,21.119999,-37.44,-0.14844051,0.36152446,9.67018,-0.047036625,0.028710667,-0.005497787,-0.0373636931180954,0.015349130146205425,0.3038017749786377,1023.2781,
2021.02.09 08:28:26,50.0,23.0,-6.06,21.779999,-37.32,-0.059855044,0.40940848,9.861717,-0.029932396,0.027488936,0.01038471,-0.0414903424680233,0.006069359835237265,0.26344481110572815,1023.27466,
2021.02.09 08:28:26,50.0,23.0,-5.8799996,21.96,-37.38,0.047884032,0.45489833,9.991004,-0.115453534,-0.10140363,0.053145275,-0.04549884796142578,-0.004792678169906139,0.23664450645446777,1023.27466,
2021.02.09 08:28:27,50.0,23.0,-5.7599998,21.48,-37.32,-0.055066638,0.51714754,10.383653,0.073303826,0.04337143,0.021991149,-0.049762193113565445,0.005303155165165663,0.2502523362636566,1023.27466,
2021.02.09 08:28:27,50.0,23.0,-5.4,21.42,-36.84,-0.34715924,0.30406362,10.78109,0.3268129,0.18997909,0.03481932,-0.028181349858641624,0.03218963369727135,0.28529882431030273,1023.27466,
