Time,X-cord,Y-cord,Mag_x,Mag_y,Mag_z,Acc_x,Acc_y,Acc_z,Gyro_x,Gyro_y,Gyro_z,Orn_x,Orn_y,Orn_z,Pressure,
2021.02.09 08:35:45,79.0,20.0,-15.96,25.26,-52.86,0.1604115,0.44532153,9.921572,-0.10873401,0.1337795,0.0061086523,-0.04484821483492851,-0.01616654358804226,0.5004695057868958,1023.39087,
2021.02.09 08:35:45,79.0,20.0,-15.78,25.5,-53.28,0.16759412,0.2873042,9.14585,0.06780604,0.11484267,0.06719518,-0.03139801695942879,-0.01832255721092224,0.49883076548576355,1023.3899,
2021.02.09 08:35:45,79.0,20.0,-15.66,25.8,-53.46,-0.07182605,0.11971009,9.119514,0.10995574,0.035430185,0.037873644,-0.013125644065439701,0.007875919342041016,0.5454509854316711,1023.3899,
2021.02.09 08:35:45,79.0,20.0,-15.54,25.56,-52.8,0.1316811,0.32800564,9.591172,-0.04886922,-0.036651913,0.05497787,-0.03418216109275818,-0.013728544116020203,0.49629566073417664,1023.3899,
2021.02.09 08:35:45,79.0,20.0,-15.12,25.38,-52.62,0.46686932,0.59376204,10.134656,-0.17531833,-0.06047566,0.12522738,-0.05845854431390762,-0.0460340715944767,0.4193626940250397,1023.3899,
2021.02.09 08:35:45,79.0,20.0,-15.12,25.019999,-52.199997,-0.16280572,0.49559975,10.0269165,-0.13805555,-0.051923547,0.070249505,-0.04938024654984474,0.016235440969467163,0.5251585841178894,1023.3943,
2021.02.09 08:35:45,79.0,20.0,-15.12,24.72,-51.899998,-0.15083471,0.5386954,9.667787,-0.027488936,-0.0067195175,-0.009773844,-0.05565633624792099,0.015600516460835934,0.5241081714630127,1023.3943,
2021.02.09 08:35:45,79.0,20.0,-15.12,24.9,-52.32,-0.22505496,0.2896984,9.940725,-0.009162978,0.025045475,-0.007330383,-0.02912687510251999,0.022635824978351593,0.5530949831008911,1023.3943,
2021.02.09 08:35:45,79.0,20.0,-15.0,25.14,-52.26,0.007182605,0.35434186,9.7324295,-0.039095376,0.0421497,-0.028099801,-0.03639228269457817,-7.380072493106127E-4,0.5056108236312866,1023.3943,
2021.02.09 08:35:45,79.0,20.0,-14.94,24.96,-52.379997,0.095768064,0.3878607,9.303867,0.06414085,0.021991149,0.02565634,-0.041661784052848816,-0.01029299758374691,0.4880249798297882,1023.38965,
2021.02.09 08:35:45,79.0,20.0,-14.82,25.32,-52.5,-0.090979666,0.33758244,9.495404,0.049480084,0.05131268,0.06047566,-0.03553559258580208,0.009581148624420166,0.5135774612426758,1023.38965,
2021.02.09 08:35:45,79.0,20.0,-14.46,25.14,-52.559998,-0.074220255,0.2657564,9.945514,-0.0067195175,0.025045475,0.092240654,-0.026714133098721504,0.007462548557668924,0.5103128552436829,1023.38965,
2021.02.09 08:35:45,79.0,20.0,-14.58,25.38,-52.559998,0.0023942017,0.4405331,9.679757,0.014660766,0.017715093,0.106901415,-0.04547937214374542,-2.4734108592383564E-4,0.4834940731525421,1023.38965,
2021.02.09 08:35:45,79.0,20.0,-14.58,25.98,-53.039997,0.038307227,0.59136784,9.811439,0.057421334,0.01038471,0.099571034,-0.06020002067089081,-0.0039043237920850515,0.4583905339241028,1023.3911,
2021.02.09 08:35:45,79.0,20.0,-15.0,25.74,-53.039997,0.15083471,0.61770403,9.662998,0.039095376,-0.0030543262,0.096516706,-0.06383005529642105,-0.015608247369527817,0.45335426926612854,1023.3911,
2021.02.09 08:35:45,79.0,20.0,-15.179999,25.859999,-52.86,0.009576807,0.50278234,9.830592,0.03359759,0.032986723,0.073303826,-0.05110011622309685,-9.741837857291102E-4,0.4876103401184082,1023.3911,
2021.02.09 08:35:45,79.0,20.0,-15.36,25.619999,-53.039997,0.062249243,0.5267244,9.639056,0.032375857,0.021380283,0.040317107,-0.05458937957882881,-0.006457932759076357,0.4852217137813568,1023.3911,
2021.02.09 08:35:45,79.0,20.0,-15.0,25.26,-52.379997,-0.04309563,0.5554548,9.619903,0.04153884,0.01160644,0.008552114,-0.057675551623106,0.00447981059551239,0.4948159158229828,1023.3889,
2021.02.09 08:35:45,79.0,20.0,-14.94,25.619999,-52.68,-0.088585466,0.5386954,9.598354,0.028099801,0.021380283,-0.017104227,-0.056062523275613785,0.009228972718119621,0.4957500100135803,1023.3889,
2021.02.09 08:35:45,79.0,20.0,-14.7,25.199999,-52.8,-0.17238252,0.50038815,9.703699,0.03726278,0.03359759,-0.032986723,-0.05151299014687538,0.017762750387191772,0.5112400054931641,1023.3889,
2021.02.09 08:35:45,79.0,20.0,-14.5199995,25.26,-52.68,-0.17717093,0.5674258,9.722853,0.014049901,0.010995574,-0.040927973,-0.05828423798084259,0.018220096826553345,0.5009114742279053,1023.3889,
2021.02.09 08:35:46,79.0,20.0,-14.88,24.96,-53.34,-0.074220255,0.59855044,9.557653,0.021991149,-0.01160644,-0.04337143,-0.06254168599843979,0.007765375077724457,0.4963774085044861,1023.3894,
2021.02.09 08:35:46,79.0,20.0,-14.4,24.84,-53.399998,-0.09816227,0.5746084,9.634268,0.0421497,-0.004276057,-0.040927973,-0.05956849455833435,0.010188514366745949,0.49073776602745056,1023.3894,
2021.02.09 08:35:46,79.0,20.0,-14.219999,25.199999,-53.94,-0.10055647,0.5315128,9.560047,0.034208454,-0.0030543262,-0.04642576,-0.05553705245256424,0.010518019087612629,0.48371073603630066,1023.3894,
2021.02.09 08:35:46,79.0,20.0,-14.34,24.9,-54.48,-0.21547815,0.50757074,9.442732,0.010995574,-0.009773844,-0.0421497,-0.053686901926994324,0.022815512493252754,0.5112654566764832,1023.3894,
2021.02.09 08:35:46,79.0,20.0,-13.92,25.199999,-54.36,-0.12689269,0.62249243,9.763555,0.0030543262,-0.0067195175,-0.044593163,-0.06366520375013351,0.012995834462344646,0.4727659821510315,1023.3926,
2021.02.09 08:35:46,79.0,20.0,-13.62,24.6,-54.12,-0.110133275,0.60812724,9.768343,-0.035430185,-0.007330383,-0.018325957,-0.06217072159051895,0.011274032294750214,0.4715474843978882,1023.3926,
2021.02.09 08:35:46,79.0,20.0,-13.92,24.539999,-53.64,-0.17238252,0.5363012,9.809045,-0.028710667,-0.0061086523,-0.032375857,-0.05461135506629944,0.01757202483713627,0.49668261408805847,1023.3926,
2021.02.09 08:35:46,79.0,20.0,-14.16,24.779999,-52.86,-0.10055647,0.61770403,9.564836,0.022602014,-0.02321288,-0.017715093,-0.06448761373758316,0.010512754321098328,0.4820300042629242,1023.3926,
2021.02.09 08:35:46,79.0,20.0,-14.099999,24.84,-52.62,-0.11731588,0.59136784,9.763555,0.029932396,-0.009162978,-0.004886922,-0.060490645468235016,0.012015116401016712,0.4848331809043884,1023.3911,
2021.02.09 08:35:46,79.0,20.0,-14.4,25.14,-52.5,-0.12928689,0.5770026,9.605537,-6.1086525E-4,-0.013439035,-0.015271631,-0.059992268681526184,0.01345880702137947,0.4913064241409302,1023.3911,
2021.02.09 08:35:46,79.0,20.0,-14.46,25.26,-52.559998,-0.031124622,0.62488663,9.495404,0.043982297,-0.015882496,-0.0061086523,-0.0657142624258995,0.0032778498716652393,0.4721352159976959,1023.3911,
2021.02.09 08:35:46,79.0,20.0,-13.86,24.84,-52.86,-0.1388637,0.557849,9.674969,0.018936822,-0.004886922,-0.0030543262,-0.05758931115269661,0.01435189787298441,0.4836350381374359,1023.3911,
2021.02.09 08:35:46,79.0,20.0,-14.16,24.42,-53.1,-0.08140286,0.6464345,9.512163,-0.004276057,-0.03481932,-0.019547688,-0.06785191595554352,0.008557556197047234,0.4816836714744568,1023.3887,
2021.02.09 08:35:46,79.0,20.0,-14.46,24.42,-53.1,0.055066638,0.6464345,9.548077,0.0030543262,-0.02443461,-0.0036651916,-0.06759883463382721,-0.0057672373950481415,0.46864959597587585,1023.3887,
2021.02.09 08:35:46,79.0,20.0,-14.4,24.539999,-52.92,-0.059855044,0.59855044,9.878476,-0.02565634,-0.034208454,-0.0018325958,-0.060516275465488434,0.006059063132852316,0.4886128008365631,1023.3887,
2021.02.09 08:35:46,79.0,20.0,-14.46,24.539999,-52.739998,0.011971008,0.62488663,9.56723,0.016493361,-0.03848451,-0.01038471,-0.06522262096405029,-0.0012512506218627095,0.4759122431278229,1023.3887,
2021.02.09 08:35:46,79.0,20.0,-14.639999,24.84,-52.739998,0.09816227,0.6775591,9.878476,0.009162978,-0.032375857,-0.005497787,-0.06847880780696869,-0.009936658665537834,0.4612524211406708,1023.39185,
2021.02.09 08:35:46,79.0,20.0,-14.4,24.119999,-52.739998,0.11492168,0.6919243,9.564836,0.008552114,-0.018936822,-0.009162978,-0.0722094401717186,-0.012014441192150116,0.45870330929756165,1023.39185,
2021.02.09 08:35:46,79.0,20.0,-14.4,23.76,-52.44,-0.031124622,0.6344634,9.464279,0.022602014,-0.021380283,-0.028710667,-0.06693717837333679,0.00328862969763577,0.4916653633117676,1023.39185,
2021.02.09 08:35:46,79.0,20.0,-14.4,23.82,-52.68,-0.01436521,0.6464345,9.651027,-0.01160644,-0.025045475,-0.039095376,-0.06688093394041061,0.0014884633710607886,0.48784002661705017,1023.39185,
2021.02.09 08:35:46,79.0,20.0,-14.5199995,23.22,-52.62,-0.07182605,0.5650316,9.933543,-0.05681047,-0.021991149,-0.035430185,-0.05681847035884857,0.007230531424283981,0.5176710486412048,1023.39526,
2021.02.09 08:35:46,79.0,20.0,-14.5199995,23.699999,-52.739998,-0.023942016,0.60333884,9.7084875,-0.040927973,-0.03359759,-0.015271631,-0.062065497040748596,0.0024660860653966665,0.4983311593532562,1023.39526,
2021.02.09 08:35:46,79.0,20.0,-14.4,23.64,-52.92,0.045489833,0.641646,9.677363,0.026267206,-0.023823744,-0.0036651916,-0.06620617210865021,-0.004700608551502228,0.481329083442688,1023.39526,
2021.02.09 08:35:46,79.0,20.0,-15.12,23.58,-52.44,0.011971008,0.58897364,9.737218,-0.0067195175,-0.02443461,-0.01282817,-0.06041319668292999,-0.001229406800121069,0.5133669376373291,1023.39526,
2021.02.09 08:35:46,79.0,20.0,-15.179999,24.119999,-52.14,0.0,0.58897364,9.710882,-0.0018325958,-0.004276057,-0.012217305,-0.06057668477296829,1.0E-6,0.5085269808769226,1023.3843,
2021.02.09 08:35:47,79.0,20.0,-15.78,24.18,-52.44,0.031124622,0.59136784,9.701305,-0.009162978,-0.005497787,0.002443461,-0.060881905257701874,-0.0032082812394946814,0.5190120339393616,1023.3843,
2021.02.09 08:35:47,79.0,20.0,-15.839999,24.18,-52.739998,0.04070143,0.60573304,9.679757,-0.008552114,-0.010995574,0.004276057,-0.06249525770545006,-0.004204773809760809,0.5175883769989014,1023.3843,
2021.02.09 08:35:47,79.0,20.0,-15.299999,24.3,-52.98,0.074220255,0.581791,9.878476,-0.017715093,0.005497787,0.005497787,-0.05882519483566284,-0.007513188757002354,0.4984259307384491,1023.3843,
2021.02.09 08:35:47,79.0,20.0,-15.36,24.18,-53.219997,0.019153614,0.557849,9.648633,-0.020158553,-0.005497787,0.007941248,-0.05775196850299835,-0.0019851091783493757,0.5109044313430786,1023.3887,
2021.02.09 08:35:47,79.0,20.0,-15.299999,24.24,-52.8,0.062249243,0.5650316,9.569624,0.009773844,0.0067195175,0.007330383,-0.05897456780076027,-0.006504787132143974,0.5009464025497437,1023.3887,
2021.02.09 08:35:47,79.0,20.0,-15.599999,24.18,-52.44,0.10295067,0.5434838,9.909601,-0.029321533,0.0036651916,0.004886922,-0.0547863245010376,-0.01038860809057951,0.5082587003707886,1023.3887,
2021.02.09 08:35:47,79.0,20.0,-15.54,24.359999,-52.44,0.1316811,0.5626374,9.739613,-0.034208454,-0.004886922,0.01038471,-0.05769855156540871,-0.01351933367550373,0.4967667758464813,1023.3887,
2021.02.09 08:35:47,79.0,20.0,-15.24,24.72,-52.68,0.12928689,0.5554548,9.7084875,-0.007941248,-0.0036651916,0.0036651916,-0.05714596062898636,-0.013316105119884014,0.48329958319664,1023.3899,
2021.02.09 08:35:47,79.0,20.0,-14.82,24.359999,-52.379997,0.059855044,0.5530606,9.689334,-0.008552114,-0.0061086523,-0.004886922,-0.057016365230083466,-0.006177336908876896,0.4879758656024933,1023.3899,
2021.02.09 08:35:47,79.0,20.0,-14.639999,24.6,-52.68,0.074220255,0.5650316,9.818622,-0.025045475,-0.01038471,-0.014660766,-0.05748189985752106,-0.007558987941592932,0.4764755070209503,1023.3899,
2021.02.09 08:35:47,79.0,20.0,-14.82,24.119999,-52.86,0.06703765,0.5267244,9.770737,-0.028710667,0.002443461,-0.0030543262,-0.053854964673519135,-0.006860956083983183,0.4925898015499115,1023.3899,
2021.02.09 08:35:47,79.0,20.0,-14.82,23.58,-52.5,0.12928689,0.533907,9.639056,-0.014049901,0.0030543262,-0.008552114,-0.055328454822301865,-0.013412011787295341,0.4900653660297394,1023.39185,
2021.02.09 08:35:47,79.0,20.0,-14.82,24.119999,-52.86,0.12210429,0.521936,9.950302,-0.012217305,0.0,-0.0012217305,-0.0524023212492466,-0.012270798906683922,0.48537614941596985,1023.39185,
2021.02.09 08:35:47,79.0,20.0,-14.7,24.119999,-52.68,0.079008654,0.5315128,9.677363,-0.03359759,-0.01282817,-0.004886922,-0.054866354912519455,-0.008164092898368835,0.48650479316711426,1023.39185,
2021.02.09 08:35:47,79.0,20.0,-14.639999,24.48,-52.199997,0.14844051,0.50996494,9.739613,0.0036651916,0.0,-0.005497787,-0.052306048572063446,-0.015239724889397621,0.47095704078674316,1023.39185,
2021.02.09 08:35:47,79.0,20.0,-14.82,24.84,-52.379997,0.07182605,0.48362875,9.840169,-0.008552114,0.0036651916,-0.0036651916,-0.04910760000348091,-0.007299140561372042,0.48514455556869507,1023.3894,
2021.02.09 08:35:47,79.0,20.0,-14.46,24.48,-52.32,0.090979666,0.46208093,9.785102,-0.0061086523,0.0036651916,-0.0018325958,-0.04718581214547157,-0.009297506883740425,0.47867071628570557,1023.3894,
2021.02.09 08:35:47,79.0,20.0,-14.28,24.359999,-52.559998,0.079008654,0.46926352,9.605537,0.0012217305,-0.008552114,-0.004886922,-0.04881298169493675,-0.008225137367844582,0.4753721058368683,1023.3894,
2021.02.09 08:35:47,79.0,20.0,-14.28,24.6,-52.32,0.090979666,0.4429273,9.744401,0.0067195175,0.01282817,0.002443461,-0.045421302318573,-0.009336338378489017,0.4728878140449524,1023.3894,
2021.02.09 08:35:47,79.0,20.0,-14.4,24.42,-52.26,0.08379706,0.49799395,9.967062,-0.03848451,-0.009162978,-0.0067195175,-0.049920689314603806,-0.008407199755311012,0.4771382510662079,1023.3916,
2021.02.09 08:35:47,79.0,20.0,-14.88,24.66,-52.199997,0.08379706,0.5315128,9.617508,0.01038471,0.005497787,-0.0036651916,-0.05520687624812126,-0.008712749928236008,0.4829334616661072,1023.3916,
2021.02.09 08:35:47,79.0,20.0,-15.0,24.72,-51.78,0.062249243,0.4381389,9.801862,-6.1086525E-4,0.005497787,-0.01282817,-0.04466892406344414,-0.006350671872496605,0.4975528120994568,1023.3916,
2021.02.09 08:35:47,79.0,20.0,-14.82,24.359999,-52.199997,0.08619126,0.521936,9.746795,-0.0012217305,-0.002443461,-0.010995574,-0.05349631980061531,-0.008842806331813335,0.4868553578853607,1023.3916,
2021.02.09 08:35:47,79.0,20.0,-14.639999,24.24,-51.899998,0.009576807,0.49320555,9.9550905,-0.009773844,0.0067195175,-0.015882496,-0.049502551555633545,-9.620006312616169E-4,0.49886494874954224,1023.3904,
2021.02.09 08:35:47,79.0,20.0,-14.5199995,24.24,-51.96,0.08140286,0.50517654,9.610326,0.012217305,-0.004276057,-0.018936822,-0.052515801042318344,-0.008470151573419571,0.4815730154514313,1023.3904,
2021.02.09 08:35:48,79.0,20.0,-15.179999,24.48,-52.199997,0.0,0.46447513,9.785102,0.021380283,-6.1086525E-4,-0.01038471,-0.04743197560310364,1.0E-6,0.5133280754089355,1023.3904,
2021.02.09 08:35:48,79.0,20.0,-15.179999,24.6,-51.96,0.090979666,0.50757074,9.730036,0.008552114,-0.0018325958,-0.005497787,-0.05211583524942398,-0.009350121021270752,0.4940539002418518,1023.3904,
2021.02.09 08:35:48,79.0,20.0,-14.82,24.66,-52.14,-0.038307227,0.49320555,9.907207,-0.01282817,0.0067195175,-0.004886922,-0.049741070717573166,0.003866582876071334,0.5042808651924133,1023.3967,
2021.02.09 08:35:48,79.0,20.0,-15.0,24.6,-51.84,0.021547815,0.51235914,9.703699,0.013439035,-0.0061086523,0.002443461,-0.05275127664208412,-0.0022205738350749016,0.49916189908981323,1023.3967,
2021.02.09 08:35:48,79.0,20.0,-14.46,24.3,-51.66,0.016759412,0.50278234,9.765948,0.018325957,-0.004886922,0.017104227,-0.05143771693110466,-0.0017161053838208318,0.49028122425079346,1023.3967,
2021.02.09 08:35:48,79.0,20.0,-14.88,24.24,-51.6,0.1340753,0.5602432,9.68694,0.028710667,-0.009773844,0.023823744,-0.05776502192020416,-0.013839947059750557,0.4802589416503906,1023.3967,
2021.02.09 08:35:48,79.0,20.0,-15.54,24.6,-51.719997,0.09816227,0.50996494,9.7084875,0.018325957,0.0036651916,0.028710667,-0.05247683450579643,-0.010110629722476006,0.5030791759490967,1023.3972,
2021.02.09 08:35:48,79.0,20.0,-15.54,24.539999,-51.899998,0.02633622,0.5410896,9.832987,-0.002443461,0.005497787,0.009162978,-0.05497235804796219,-0.0026783475186675787,0.5127425789833069,1023.3972,
2021.02.09 08:35:48,79.0,20.0,-15.179999,24.539999,-52.02,0.1388637,0.59376204,9.773131,-6.1086525E-4,6.1086525E-4,0.02321288,-0.06067383661866188,-0.014207765460014343,0.48108890652656555,1023.3972,
2021.02.09 08:35:48,79.0,20.0,-15.179999,24.359999,-52.079998,0.14844051,0.56982,9.631873,0.010995574,6.1086525E-4,0.022602014,-0.059083957225084305,-0.015410165302455425,0.4830862581729889,1023.3972,
2021.02.09 08:35:48,79.0,20.0,-15.0,24.119999,-52.02,0.06464344,0.51235914,9.725247,0.014660766,0.0061086523,0.005497787,-0.05263358727097511,-0.0066468738950788975,0.49992579221725464,1023.3933,
2021.02.09 08:35:48,79.0,20.0,-14.88,24.0,-51.84,0.074220255,0.521936,9.7803135,-0.032375857,0.009162978,-0.007330383,-0.05331387370824814,-0.0075885942205786705,0.49656999111175537,1023.3933,
2021.02.09 08:35:48,79.0,20.0,-15.24,23.939999,-51.899998,0.08619126,0.58418524,9.68694,-0.016493361,0.0018325958,0.0061086523,-0.060231152921915054,-0.008897441439330578,0.5003350377082825,1023.3933,
2021.02.09 08:35:48,79.0,20.0,-14.94,24.06,-52.079998,0.02633622,0.48841715,9.945514,-0.028099801,0.007330383,0.004886922,-0.04906969889998436,-0.0026480439119040966,0.5079948902130127,1023.3933,
2021.02.09 08:35:48,79.0,20.0,-14.82,24.24,-52.32,0.088585466,0.533907,9.68694,-0.02565634,-0.009162978,0.009162978,-0.055058155208826065,-0.009144579991698265,0.4868786633014679,1023.3955,
2021.02.09 08:35:48,79.0,20.0,-14.82,24.72,-52.26,0.05746084,0.48123455,9.7563715,-0.002443461,0.008552114,0.027488936,-0.04928436130285263,-0.005889502353966236,0.4890604019165039,1023.3955,
2021.02.09 08:35:48,79.0,20.0,-14.94,24.539999,-52.32,0.2896984,0.5267244,9.7084875,0.0030543262,0.0018325958,0.017104227,-0.05417680740356445,-0.029830850660800934,0.45462578535079956,1023.3955,
2021.02.09 08:35:48,79.0,20.0,-14.759999,24.539999,-52.5,0.023942016,0.49559975,9.8042555,-0.017104227,0.009773844,0.01038471,-0.05050630867481232,-0.002441997639834881,0.49413001537323,1023.3955,
2021.02.09 08:35:48,79.0,20.0,-15.12,24.42,-51.96,0.059855044,0.50517654,9.67018,-0.004276057,0.016493361,-0.014660766,-0.05219221115112305,-0.006189572159200907,0.4997747242450714,1023.40186,
2021.02.09 08:35:48,79.0,20.0,-14.82,24.359999,-51.78,-0.033518825,0.45968673,9.85214,-0.018936822,0.008552114,-6.1086525E-4,-0.046624477952718735,0.003402173984795809,0.5110334157943726,1023.40186,
2021.02.09 08:35:48,79.0,20.0,-15.0,24.48,-51.539997,0.05746084,0.51235914,9.753978,0.016493361,0.0030543262,0.007330383,-0.052479080855846405,-0.005890948232263327,0.49606624245643616,1023.40186,
2021.02.09 08:35:48,79.0,20.0,-15.24,24.6,-51.48,0.06464344,0.533907,9.907207,0.002443461,0.01038471,0.03481932,-0.05383754521608353,-0.006524798460304737,0.499096542596817,1023.40186,
2021.02.09 08:35:48,79.0,20.0,-14.7,24.66,-51.6,0.023942016,0.5626374,9.603143,0.03176499,6.1086525E-4,0.02687807,-0.05852179601788521,-0.0024931386578828096,0.48518699407577515,1023.39575,
2021.02.09 08:35:48,79.0,20.0,-14.82,24.6,-52.199997,0.090979666,0.5243302,9.7563715,0.028099801,0.015882496,0.030543262,-0.05368835851550102,-0.009324884042143822,0.4823511838912964,1023.39575,
2021.02.09 08:35:48,79.0,20.0,-14.58,25.019999,-52.68,0.110133275,0.545878,9.703699,0.004276057,0.008552114,0.028099801,-0.05619179457426071,-0.011349130421876907,0.46385031938552856,1023.39575,
2021.02.09 08:35:49,79.0,20.0,-14.219999,24.96,-52.68,0.023942016,0.557849,9.758766,0.01282817,0.01038471,0.019547688,-0.057101570069789886,-0.002453380497172475,0.4672739803791046,1023.39575,
2021.02.09 08:35:49,79.0,20.0,-14.4,24.66,-52.739998,0.011971008,0.521936,9.672575,0.009773844,0.005497787,0.01160644,-0.053908076137304306,-0.0012376230442896485,0.48100677132606506,1023.38794,
2021.02.09 08:35:49,79.0,20.0,-14.16,24.72,-52.559998,-0.011971008,0.5267244,9.947908,-0.009773844,0.01282817,0.012217305,-0.0528988242149353,0.0012033688835799694,0.4778605103492737,1023.38794,
2021.02.09 08:35:49,79.0,20.0,-14.4,24.24,-52.44,0.062249243,0.5315128,9.560047,0.0061086523,-0.0012217305,0.009162978,-0.05553894490003586,-0.006511302664875984,0.4782559275627136,1023.38794,
2021.02.09 08:35:49,79.0,20.0,-14.34,24.18,-52.32,0.04070143,0.5315128,9.722853,0.027488936,0.018325957,0.014660766,-0.05461150407791138,-0.004186137113720179,0.48182716965675354,1023.38794,
2021.02.09 08:35:49,79.0,20.0,-14.099999,24.42,-52.44,-0.01436521,0.49799395,9.770737,-0.014049901,0.008552114,0.01038471,-0.05092377960681915,0.0014702269108965993,0.4826464354991913,1023.39087,
2021.02.09 08:35:49,79.0,20.0,-14.4,24.24,-52.32,0.031124622,0.5602432,9.8042555,-0.007941248,0.015882496,0.013439035,-0.05708049610257149,-0.0031745925080031157,0.4822976589202881,1023.39087,
2021.02.09 08:35:49,79.0,20.0,-14.28,24.42,-52.32,0.045489833,0.5267244,9.682152,-0.0018325958,0.005497787,0.017104227,-0.05434741452336311,-0.0046982839703559875,0.4758882224559784,1023.39087,
2021.02.09 08:35:49,79.0,20.0,-14.219999,24.3,-52.199997,0.033518825,0.5434838,9.734824,0.012217305,0.013439035,0.015271631,-0.05577060207724571,-0.0034431740641593933,0.4768903851509094,1023.39087,
2021.02.09 08:35:49,79.0,20.0,-14.4,23.88,-52.379997,0.05267244,0.56982,9.67018,-0.013439035,0.007330383,0.008552114,-0.0588565468788147,-0.005446839611977339,0.48284122347831726,1023.38135,
2021.02.09 08:35:49,79.0,20.0,-14.099999,24.119999,-52.559998,-0.05267244,0.545878,9.782708,-0.013439035,0.018325957,0.0067195175,-0.055741678923368454,0.005384186748415232,0.4893604815006256,1023.38135,
2021.02.09 08:35:49,79.0,20.0,-13.92,23.939999,-52.379997,0.009576807,0.47884035,9.7084875,-0.022602014,0.014049901,0.0,-0.04928186908364296,-9.864362655207515E-4,0.48226413130760193,1023.38135,
2021.02.09 08:35:49,79.0,20.0,-14.219999,24.18,-52.739998,0.023942016,0.5315128,9.622296,-0.0067195175,0.007941248,0.0061086523,-0.05518137663602829,-0.0024881758727133274,0.4801209568977356,1023.38135,
2021.02.09 08:35:49,79.0,20.0,-14.28,24.72,-52.62,-0.033518825,0.51954174,9.856929,-0.009773844,0.02076942,0.012217305,-0.05265924334526062,0.00340052112005651,0.4847632646560669,1023.40015,
2021.02.09 08:35:49,79.0,20.0,-14.34,24.48,-52.739998,-0.031124622,0.5243302,9.770737,-0.032986723,0.0030543262,0.0036651916,-0.0536116324365139,0.0031854831613600254,0.4889499247074127,1023.40015,
2021.02.09 08:35:49,79.0,20.0,-14.16,24.539999,-52.739998,-0.04070143,0.50757074,9.770737,-6.1086525E-4,0.01160644,0.004886922,-0.0519009530544281,0.004165621940046549,0.48570698499679565,1023.40015,
2021.02.09 08:35:49,79.0,20.0,-13.92,24.3,-52.62,-0.02633622,0.521936,9.782708,-0.005497787,0.004886922,0.0067195175,-0.05330218747258186,0.0026921131648123264,0.4791356921195984,1023.40015,
2021.02.09 08:35:49,79.0,20.0,-13.559999,24.0,-52.5,0.02873042,0.533907,9.574412,0.02076942,0.0018325958,0.018325957,-0.055706001818180084,-0.0030007411260157824,0.4624079763889313,1023.39453,
2021.02.09 08:35:49,79.0,20.0,-13.679999,24.18,-52.26,-0.093373865,0.44771573,9.892841,-0.013439035,0.004886922,0.009162978,-0.045223668217659,0.009438247419893742,0.4909239709377289,1023.39453,
2021.02.09 08:35:49,79.0,20.0,-13.86,24.24,-52.26,-0.0023942017,0.5434838,9.753978,-0.007330383,-0.007941248,0.017104227,-0.0556616336107254,2.454589994158596E-4,0.4729878008365631,1023.39453,
2021.02.09 08:35:49,79.0,20.0,-13.98,24.42,-52.26,0.011971008,0.533907,9.646238,0.023823744,-0.005497787,0.01282817,-0.055292267352342606,-0.0012410021154209971,0.47180601954460144,1023.39453,
2021.02.09 08:35:49,79.0,20.0,-13.74,24.66,-52.379997,-0.011971008,0.51235914,9.78989,0.002443461,-0.0030543262,0.01038471,-0.052287790924310684,0.0012227921979501843,0.4672238230705261,1023.39185,
2021.02.09 08:35:49,79.0,20.0,-13.44,24.48,-52.44,-0.050278235,0.51714754,9.737218,-0.007941248,-0.007941248,0.01160644,-0.05305984243750572,0.0051634656265378,0.4665556252002716,1023.39185,
2021.02.09 08:35:49,79.0,20.0,-13.139999,24.359999,-52.5,0.047884032,0.51235914,9.770737,0.008552114,-0.009773844,0.009162978,-0.052389517426490784,-0.004900720436125994,0.444050133228302,1023.39185,
2021.02.09 08:35:49,79.0,20.0,-13.38,24.3,-52.379997,0.023942016,0.533907,9.725247,0.005497787,-0.005497787,0.01160644,-0.05484384298324585,-0.002461836440488696,0.45425090193748474,1023.39185,
2021.02.09 08:35:50,79.0,20.0,-13.92,24.3,-52.199997,0.02873042,0.50996494,9.691729,-0.010995574,-0.016493361,0.0061086523,-0.05256986245512962,-0.0029644181486219168,0.4713025391101837,1023.40137,
2021.02.09 08:35:50,79.0,20.0,-14.28,24.359999,-52.199997,0.011971008,0.49559975,9.842564,-0.004886922,-0.0012217305,0.002443461,-0.050310179591178894,-0.0012162483762949705,0.48533716797828674,1023.40137,
2021.02.09 08:35:50,79.0,20.0,-14.16,24.119999,-52.02,-0.01436521,0.50038815,9.583989,-0.018936822,-0.015271631,-0.002443461,-0.05216342210769653,0.001498874742537737,0.4883720874786377,1023.40137,
2021.02.09 08:35:50,79.0,20.0,-13.62,24.48,-51.78,-0.033518825,0.50996494,9.80665,0.009773844,0.007330383,0.004276057,-0.05195485055446625,0.0034179557114839554,0.470409631729126,1023.40137,
2021.02.09 08:35:50,79.0,20.0,-13.38,24.72,-51.899998,-0.0023942017,0.50757074,9.651027,-0.029932396,-0.016493361,0.01038471,-0.0525439977645874,2.48077412834391E-4,0.45447492599487305,1023.397,
2021.02.09 08:35:50,79.0,20.0,-13.44,24.84,-51.899998,-0.023942016,0.51954174,9.9550905,-0.02443461,-0.0012217305,0.01282817,-0.05214109271764755,0.00240499759092927,0.45810869336128235,1023.397,
2021.02.09 08:35:50,79.0,20.0,-13.74,25.14,-51.66,0.02633622,0.50996494,9.667787,-0.022602014,-0.025045475,0.009162978,-0.052699845284223557,-0.002724114339798689,0.4545535743236542,1023.397,
2021.02.09 08:35:50,79.0,20.0,-13.86,25.199999,-52.199997,0.04070143,0.46686932,9.765948,0.015271631,-0.005497787,0.018325957,-0.04776905104517937,-0.004167664330452681,0.4581104815006256,1023.397,
2021.02.09 08:35:50,79.0,20.0,-13.74,25.5,-52.14,0.0047884034,0.48123455,9.710882,-0.01282817,-0.018936822,0.008552114,-0.04951569810509682,-4.930966533720493E-4,0.4547499418258667,1023.39624,
2021.02.09 08:35:50,79.0,20.0,-13.44,25.56,-51.719997,-0.02633622,0.48362875,9.830592,-0.0061086523,0.0036651916,0.009162978,-0.04915648698806763,0.002678999910131097,0.45057129859924316,1023.39624,
2021.02.09 08:35:50,79.0,20.0,-13.74,25.68,-51.539997,-0.016759412,0.49081135,9.581595,-0.0036651916,-0.016493361,0.0067195175,-0.05117957666516304,0.0017491236794739962,0.45481857657432556,1023.39624,
2021.02.09 08:35:50,79.0,20.0,-13.92,25.26,-51.239998,0.06943185,0.47884035,9.825804,0.01160644,-6.1086525E-4,0.020158553,-0.0486932098865509,-0.007066159043461084,0.45475608110427856,1023.39624,
2021.02.09 08:35:50,79.0,20.0,-14.4,24.779999,-50.879997,0.079008654,0.50517654,9.787497,-0.018936822,-0.015271631,0.021380283,-0.051567040383815765,-0.008072230964899063,0.47240662574768066,1023.39526,
2021.02.09 08:35:50,79.0,20.0,-14.4,24.72,-51.48,0.08140286,0.50757074,9.583989,0.015882496,-0.01160644,0.013439035,-0.052908945828676224,-0.008493426255881786,0.47106462717056274,1023.39526,
2021.02.09 08:35:50,79.0,20.0,-14.099999,24.48,-51.84,0.033518825,0.44771573,9.878476,0.004886922,-6.1086525E-4,-0.0030543262,-0.04529108852148056,-0.0033931038342416286,0.47910434007644653,1023.39526,
2021.02.09 08:35:50,79.0,20.0,-14.16,24.48,-51.66,0.06703765,0.47644615,9.737218,-0.009162978,-0.015271631,-0.005497787,-0.04889027029275894,-0.0068845730274915695,0.4729132652282715,1023.39526,
2021.02.09 08:35:50,79.0,20.0,-13.86,24.359999,-51.899998,0.08619126,0.50278234,9.662998,0.017104227,-0.009162978,-0.0012217305,-0.05198276787996292,-0.008919485844671726,0.46013379096984863,1023.39575,
2021.02.09 08:35:50,79.0,20.0,-14.219999,24.359999,-51.719997,0.08379706,0.49799395,9.816227,0.004276057,0.0,0.0,-0.05068640783429146,-0.008536377921700478,0.4725237190723419,1023.39575,
2021.02.09 08:35:50,79.0,20.0,-14.16,24.779999,-51.899998,0.059855044,0.4429273,9.715671,-0.019547688,-0.01160644,-0.0067195175,-0.04555654898285866,-0.006160592660307884,0.47184643149375916,1023.39575,
2021.02.09 08:35:50,79.0,20.0,-13.679999,24.96,-52.199997,0.12928689,0.50038815,9.667787,0.015882496,0.01038471,-0.0018325958,-0.05170753225684166,-0.013372158631682396,0.43915024399757385,1023.39575,
2021.02.09 08:35:50,79.0,20.0,-13.559999,25.199999,-52.32,-0.0047884034,0.45968673,9.792285,-0.008552114,0.0012217305,-0.01282817,-0.04690932109951973,4.889974952675402E-4,0.45704951882362366,1023.40625,
2021.02.09 08:35:50,79.0,20.0,-13.139999,25.32,-52.26,0.08379706,0.49081135,9.65821,-0.0061086523,0.015882496,-0.01160644,-0.05077246204018593,-0.008676033467054367,0.42614391446113586,1023.40625,
2021.02.09 08:35:50,79.0,20.0,-12.9,24.9,-52.199997,-0.007182605,0.4405331,9.749189,-0.015271631,0.021380283,-0.010995574,-0.04515590891242027,7.367386133410037E-4,0.44356685876846313,1023.40625,
2021.02.09 08:35:50,79.0,20.0,-13.38,25.019999,-52.02,0.076614454,0.50278234,9.821015,-0.01282817,0.014660766,-0.015882496,-0.05114832893013954,-0.0078009143471717834,0.43868836760520935,1023.40625,
2021.02.09 08:35:50,79.0,20.0,-13.38,25.26,-51.78,-0.05746084,0.49799395,9.801862,-0.01282817,0.022602014,-0.004276057,-0.05076153948903084,0.005862170364707708,0.4566704332828522,1023.4031,
2021.02.09 08:35:51,79.0,20.0,-13.679999,25.14,-51.899998,0.076614454,0.48841715,9.672575,0.007330383,0.016493361,-0.01282817,-0.05045061558485031,-0.007920626550912857,0.4462816119194031,1023.4031,
2021.02.09 08:35:51,79.0,20.0,-13.98,24.96,-51.899998,-0.02873042,0.46926352,9.67018,0.009162978,0.03604105,-0.0030543262,-0.04848861321806908,0.0029710237868130207,0.4755859971046448,1023.4031,
2021.02.09 08:35:51,79.0,20.0,-13.98,25.08,-52.14,0.023942016,0.48602295,9.648633,0.007330383,0.02565634,-0.0067195175,-0.05032951384782791,-0.002481384202837944,0.464053750038147,1023.4031,
2021.02.09 08:35:51,79.0,20.0,-14.099999,24.66,-52.14,0.02873042,0.50278234,9.7324295,-0.005497787,0.018936822,0.004886922,-0.05161441117525101,-0.0029520210810005665,0.4719986319541931,1023.4075,
2021.02.09 08:35:51,79.0,20.0,-13.98,24.18,-52.02,-0.033518825,0.51235914,9.753978,-0.016493361,0.015271631,0.002443461,-0.052479684352874756,0.003436412662267685,0.48491615056991577,1023.4075,
2021.02.09 08:35:51,79.0,20.0,-14.04,24.119999,-52.14,0.007182605,0.50517654,9.933543,-0.028099801,0.029321533,-0.017104227,-0.05081184208393097,-7.230656337924302E-4,0.4824223518371582,1023.4075,
2021.02.09 08:35:51,79.0,20.0,-13.74,23.939999,-52.14,-0.10055647,0.51714754,9.77792,-0.014660766,0.016493361,-0.008552114,-0.0528373047709465,0.01028367318212986,0.491729199886322,1023.4075,
2021.02.09 08:35:51,79.0,20.0,-14.099999,24.42,-52.02,-0.007182605,0.47405192,9.8042555,0.03481932,0.025045475,-0.01160644,-0.04831400886178017,7.326006889343262E-4,0.4838508367538452,1023.3948,
2021.02.09 08:35:51,79.0,20.0,-14.219999,25.199999,-52.44,-0.17956513,0.45010993,9.545682,0.059253927,0.051923547,0.0036651916,-0.04711002856492996,0.018808918073773384,0.5030673146247864,1023.3948,
2021.02.09 08:35:51,79.0,20.0,-14.5199995,25.56,-52.559998,0.05746084,0.60812724,9.473856,0.06536258,0.02565634,0.01160644,-0.06410092860460281,-0.00606512650847435,0.4570048749446869,1023.3948,
2021.02.09 08:35:51,79.0,20.0,-15.12,25.859999,-52.379997,0.031124622,0.5410896,9.543288,0.010995574,0.022602014,0.032986723,-0.05663750320672989,-0.003261403413489461,0.47897663712501526,1023.3948,
2021.02.09 08:35:51,79.0,20.0,-14.94,25.56,-52.44,-0.031124622,0.48362875,9.545682,-0.03604105,0.010995574,0.015882496,-0.050621114671230316,0.003260585479438305,0.49223455786705017,1023.3972,
2021.02.09 08:35:51,79.0,20.0,-14.88,25.439999,-52.14,-0.021547815,0.4285621,9.124303,-0.07574729,0.02565634,0.0061086523,-0.04693467542529106,0.002361580263823271,0.49403542280197144,1023.3972,
2021.02.09 08:35:51,79.0,20.0,-14.82,25.619999,-52.199997,0.19153613,0.36870706,10.551247,-0.13622294,0.02321288,0.017104227,-0.03492444381117821,-0.018150944262742996,0.46807146072387695,1023.3972,
2021.02.09 08:35:51,79.0,20.0,-14.4,25.439999,-52.559998,-0.39983168,0.39264908,11.535264,-0.29749137,-0.044593163,0.04520403,-0.03400547429919243,0.03464781492948532,0.5375902056694031,1023.3972,
