Time,X-cord,Y-cord,Mag_x,Mag_y,Mag_z,Acc_x,Acc_y,Acc_z,Gyro_x,Gyro_y,Gyro_z,Orn_x,Orn_y,Orn_z,Pressure,
2021.02.09 08:26:54,47.0,18.0,-10.26,16.74,-48.48,-0.21068975,0.45010993,10.405201,-0.02076942,0.021380283,-0.0012217305,-0.04322236776351929,0.020245736464858055,0.5386000275611877,1023.30225,
2021.02.09 08:26:54,47.0,18.0,-10.559999,17.22,-48.239998,0.33518824,0.40222588,8.899248,0.1563815,0.058643065,0.05681047,-0.04513503611087799,-0.03764698654413223,0.42323604226112366,1023.30225,
2021.02.09 08:26:54,47.0,18.0,-10.679999,17.4,-48.0,-0.15562311,0.38067806,9.167398,0.24251351,0.073303826,0.02565634,-0.04149538278579712,0.016974082216620445,0.5355507135391235,1023.2871,
2021.02.09 08:26:54,47.0,18.0,-10.62,17.76,-48.48,-0.4213795,0.40462008,9.655815,0.044593163,-0.04153884,-0.029932396,-0.04184001311659813,0.04361230134963989,0.5722863078117371,1023.2871,
2021.02.09 08:26:54,47.0,18.0,-10.139999,17.64,-48.42,-0.1340753,0.3878607,10.060435,-0.08307768,-0.069027774,-6.1086525E-4,-0.03853056952357292,0.013326198793947697,0.5054647922515869,1023.2871,
2021.02.09 08:26:54,47.0,18.0,-10.26,17.34,-48.36,-0.050278235,0.46208093,10.283096,-0.096516706,-0.08002335,0.07574729,-0.044905226677656174,0.004889367613941431,0.49398526549339294,1023.2871,
2021.02.09 08:26:54,47.0,18.0,-10.32,17.22,-48.36,0.01436521,0.49320555,9.512163,0.017715093,-0.077579886,0.09162979,-0.05180353671312332,-0.0015101927565410733,0.4795999228954315,1023.2844,
2021.02.09 08:26:55,47.0,18.0,-10.559999,17.22,-47.94,-0.009576807,0.4213795,10.060435,0.06414085,-0.047647487,0.07941248,-0.04186033084988594,9.51927388086915E-4,0.5044304728507996,1023.2844,
2021.02.09 08:26:55,47.0,18.0,-10.8,17.22,-47.82,0.035913024,0.4429273,9.205706,0.1020145,-0.052534413,0.07574729,-0.048076990991830826,-0.003901150543242693,0.49843159317970276,1023.2844,
2021.02.09 08:26:55,47.0,18.0,-10.38,17.279999,-47.399998,0.20111294,0.5530606,9.31105,0.15577064,-0.07086037,0.07452556,-0.059314798563718796,-0.021596025675535202,0.4360959827899933,1023.2844,
2021.02.09 08:26:55,47.0,18.0,-10.5,17.34,-47.399998,0.15322891,0.7278373,9.607931,0.04153884,-0.031154128,0.07513642,-0.07559981942176819,-0.01594681665301323,0.4365314543247223,1023.28906,
2021.02.09 08:26:55,47.0,18.0,-10.74,17.16,-47.82,-0.21068975,0.5770026,10.000581,-0.06963864,0.050701816,0.026267206,-0.057620249688625336,0.02106463722884655,0.5337995886802673,1023.28906,
2021.02.09 08:26:55,47.0,18.0,-10.8,17.4,-48.0,-0.019153614,0.5746084,9.821015,-0.061086524,0.016493361,0.055588737,-0.05844130367040634,0.0019502657232806087,0.4951472580432892,1023.28906,
2021.02.09 08:26:55,47.0,18.0,-10.92,17.279999,-48.48,0.1364695,0.5554548,9.490616,0.055588737,0.022602014,0.09896017,-0.058454014360904694,-0.014378423802554607,0.47063204646110535,1023.28906,
2021.02.09 08:26:55,47.0,18.0,-10.679999,17.46,-48.84,0.15083471,0.62728083,9.634268,0.052534413,0.037873644,0.0842994,-0.06500963121652603,-0.015654785558581352,0.4484289884567261,1023.2822,
2021.02.09 08:26:55,47.0,18.0,-10.26,17.4,-48.84,-0.031124622,0.6607997,9.739613,-0.014660766,0.022602014,0.03359759,-0.06774245202541351,0.0031956627499312162,0.4668978750705719,1023.2822,
2021.02.09 08:26:55,47.0,18.0,-10.08,17.279999,-49.079998,-0.04309563,0.6344634,9.701305,-0.02321288,0.02687807,0.040927973,-0.0653061494231224,0.004442221485078335,0.4666307270526886,1023.2822,
2021.02.09 08:26:55,47.0,18.0,-9.78,17.64,-49.02,-0.19153613,0.58418524,9.514558,0.01282817,0.040317107,0.040317107,-0.06130972504615784,0.02012813091278076,0.48157405853271484,1023.2822,
2021.02.09 08:26:55,47.0,18.0,-9.599999,17.64,-48.78,0.031124622,0.6512229,9.787497,0.010995574,-0.004886922,0.053145275,-0.06643795222043991,-0.0031800284050405025,0.42548951506614685,1023.28564,
2021.02.09 08:26:55,47.0,18.0,-9.719999,17.88,-48.6,0.12928689,0.6943185,9.864111,-0.02076942,0.010995574,0.05681047,-0.07026643306016922,-0.013106044381856918,0.4037874937057495,1023.28564,
2021.02.09 08:26:55,47.0,18.0,-9.66,18.18,-48.36,0.12928689,0.61770403,9.476251,-0.01282817,-0.007941248,0.025045475,-0.06508630514144897,-0.013642406091094017,0.39983800053596497,1023.28564,
2021.02.09 08:26:55,47.0,18.0,-9.78,17.82,-48.42,0.04070143,0.61770403,9.361329,0.04337143,0.02565634,-0.0030543262,-0.06588850915431976,-0.00434779841452837,0.4280731976032257,1023.28564,
2021.02.09 08:26:55,47.0,18.0,-9.719999,17.82,-48.48,-0.24181437,0.5410896,9.701305,-0.05131268,0.0067195175,-0.027488936,-0.05569993332028389,0.02492080256342888,0.490107923746109,1023.282,
2021.02.09 08:26:55,47.0,18.0,-9.599999,17.76,-48.539997,-0.11971009,0.4261679,9.85214,-0.11789699,0.01160644,-0.040317107,-0.04322623834013939,0.012150070630013943,0.4745239317417145,1023.282,
2021.02.09 08:26:55,47.0,18.0,-9.9,17.46,-48.6,0.06703765,0.50517654,9.605537,-0.08735373,-0.0018325958,0.0036651916,-0.05254253372550011,-0.006978949531912804,0.446075439453125,1023.282,
2021.02.09 08:26:55,47.0,18.0,-10.0199995,17.94,-48.42,0.074220255,0.4333505,9.514558,-0.0061086523,0.0018325958,0.0067195175,-0.04551321268081665,-0.00780054647475481,0.44673648476600647,1023.282,
2021.02.09 08:26:55,47.0,18.0,-10.2,17.94,-48.36,-0.033518825,0.46926352,9.722853,-0.042760566,0.007941248,-0.0012217305,-0.04822626709938049,0.0034474132116883993,0.4731738865375519,1023.27905,
2021.02.09 08:26:55,47.0,18.0,-10.139999,17.82,-48.36,-0.107739076,0.44771573,9.605537,-0.08124508,6.1086525E-4,-0.021991149,-0.04657353460788727,0.011215880513191223,0.4895752966403961,1023.27905,
2021.02.09 08:26:55,47.0,18.0,-9.84,17.88,-48.6,-0.009576807,0.46686932,9.710882,-0.043982297,-0.004886922,-0.026267206,-0.048039909452199936,9.861929574981332E-4,0.455355167388916,1023.27905,
2021.02.09 08:26:55,47.0,18.0,-9.78,17.82,-48.42,-0.079008654,0.37110126,9.725247,-0.05009095,-0.008552114,-0.013439035,-0.03813878074288368,0.008123897016048431,0.477712482213974,1023.27905,
2021.02.09 08:26:55,47.0,18.0,-10.0199995,17.64,-48.36,-0.09816227,0.36631286,9.720459,-0.04153884,-0.004276057,-0.027488936,-0.0376649871468544,0.010098178870975971,0.49544087052345276,1023.2949,
2021.02.09 08:26:55,47.0,18.0,-10.38,17.82,-48.539997,0.0023942017,0.4333505,9.655815,-0.013439035,-0.02321288,-0.009773844,-0.04484964534640312,-2.479543909430504E-4,0.47869792580604553,1023.2949,
2021.02.09 08:26:56,47.0,18.0,-10.26,17.76,-48.0,0.035913024,0.37588966,9.801862,-0.013439035,-0.023823744,0.0030543262,-0.03832976147532463,-0.0036638816818594933,0.47542890906333923,1023.2949,
2021.02.09 08:26:56,47.0,18.0,-10.139999,17.94,-48.6,-0.12210429,0.37588966,9.512163,0.015271631,-0.009773844,-0.0061086523,-0.03949293866753578,0.012835943140089512,0.49706706404685974,1023.2949,
2021.02.09 08:26:56,47.0,18.0,-10.0199995,17.76,-48.719997,0.019153614,0.4309563,9.49301,0.009773844,-0.014049901,0.0,-0.045365989208221436,-0.0020176516845822334,0.46146488189697266,1023.28394,
2021.02.09 08:26:56,47.0,18.0,-9.54,17.82,-48.6,0.088585466,0.4429273,9.715671,-0.023823744,-0.008552114,-0.002443461,-0.04555552452802658,-0.00911753997206688,0.4265086054801941,1023.28394,
2021.02.09 08:26:56,47.0,18.0,-9.78,18.06,-48.84,-0.038307227,0.37828386,9.916783,-0.05375614,-0.013439035,-0.028710667,-0.038127053529024124,0.0038628489710390568,0.464251846075058,1023.28394,
2021.02.09 08:26:56,47.0,18.0,-10.0199995,17.76,-48.6,0.088585466,0.4189853,9.500193,0.007941248,-0.01038471,-0.02076942,-0.04407234862446785,-0.009324326179921627,0.44834384322166443,1023.28394,
2021.02.09 08:26:56,47.0,18.0,-10.2,18.06,-48.48,-0.016759412,0.36870706,9.64145,-6.1086525E-4,0.0012217305,-0.03176499,-0.038223184645175934,0.0017382650403305888,0.4770204424858093,1023.29297,
2021.02.09 08:26:56,47.0,18.0,-10.38,18.06,-48.059998,-0.031124622,0.34476504,9.933543,-0.059864793,0.007330383,-0.03970624,-0.03469305858016014,0.0031332748476415873,0.49058350920677185,1023.29297,
2021.02.09 08:26:56,47.0,18.0,-10.2,18.0,-48.239998,0.059855044,0.39743748,9.591172,-0.020158553,-0.014049901,-0.026267206,-0.04141334444284439,-0.006240557879209518,0.4599006175994873,1023.29297,
2021.02.09 08:26:56,47.0,18.0,-10.2,18.24,-47.94,-0.06703765,0.34476504,9.7324295,0.02565634,0.0036651916,-0.022602014,-0.035408709198236465,0.006887960713356733,0.4862089455127716,1023.29297,
2021.02.09 08:26:56,47.0,18.0,-10.38,18.06,-48.0,-0.095768064,0.34237084,9.67018,0.0036651916,-0.016493361,-0.03970624,-0.035388290882110596,0.009903118014335632,0.5026893019676208,1023.29736,
2021.02.09 08:26:56,47.0,18.0,-10.62,18.18,-48.18,-0.04309563,0.37110126,9.672575,0.014049901,-0.004276057,-0.02565634,-0.03834714740514755,0.0044554159976542,0.4962206482887268,1023.29736,
2021.02.09 08:26:56,47.0,18.0,-10.74,18.06,-47.94,0.023942016,0.36391866,9.514558,0.025045475,-0.0030543262,-0.0018325958,-0.03822986036539078,-0.002516350708901882,0.4906071722507477,1023.29736,
2021.02.09 08:26:56,47.0,18.0,-10.86,18.06,-47.82,-0.08619126,0.35434186,9.701305,0.014660766,0.0018325958,0.002443461,-0.0365075021982193,0.008884266950190067,0.5182301998138428,1023.29736,
2021.02.09 08:26:56,47.0,18.0,-10.44,18.359999,-47.76,0.033518825,0.39025488,9.725247,0.0012217305,-0.004886922,0.010995574,-0.040106263011693954,-0.0034465643111616373,0.4693373143672943,1023.29224,
2021.02.09 08:26:56,47.0,18.0,-10.86,18.48,-47.94,0.090979666,0.39025488,9.636662,0.01160644,-0.007941248,0.027488936,-0.040472980588674545,-0.009440713562071323,0.4715576767921448,1023.29224,
2021.02.09 08:26:56,47.0,18.0,-10.86,18.48,-48.059998,0.074220255,0.39983168,9.56723,0.039095376,-0.009773844,0.02443461,-0.04176623001694679,-0.007757602259516716,0.47336146235466003,1023.29224,
2021.02.09 08:26:56,47.0,18.0,-10.38,18.72,-48.18,-0.0023942017,0.40701428,9.639056,0.01282817,-0.010995574,0.01282817,-0.04220046103000641,2.483854768797755E-4,0.464574933052063,1023.29224,
2021.02.09 08:26:56,47.0,18.0,-10.5,18.72,-48.42,0.04309563,0.45010993,9.586384,0.005497787,0.002443461,0.0030543262,-0.0469181127846241,-0.0044954740442335606,0.45583415031433105,1023.2976,
2021.02.09 08:26:56,47.0,18.0,-10.08,18.48,-48.6,0.076614454,0.38067806,9.706094,-0.0030543262,0.002443461,-6.1086525E-4,-0.039199210703372955,-0.007893274538218975,0.44419634342193604,1023.2976,
2021.02.09 08:26:56,47.0,18.0,-10.08,18.3,-48.899998,-0.033518825,0.39983168,9.765948,-0.019547688,0.0067195175,0.0018325958,-0.040918316692113876,0.0034322007559239864,0.4678185284137726,1023.2976,
2021.02.09 08:26:56,47.0,18.0,-10.559999,17.82,-48.84,0.076614454,0.48123455,9.576807,0.012217305,-0.004276057,0.0067195175,-0.05020616576075554,-0.007999829016625881,0.4653282165527344,1023.2976,
2021.02.09 08:26:56,47.0,18.0,-10.559999,17.699999,-48.899998,0.011971008,0.4405331,9.622296,0.03176499,0.0030543262,0.008552114,-0.04575055465102196,-0.0012440899154171348,0.4850963056087494,1023.2937,
2021.02.09 08:26:56,47.0,18.0,-10.8,17.88,-48.66,0.04309563,0.46208093,9.651027,0.014049901,0.0061086523,0.0018325958,-0.04784192517399788,-0.004465363919734955,0.4828031361103058,1023.2937,
2021.02.09 08:26:56,47.0,18.0,-11.16,18.06,-48.36,0.074220255,0.49320555,9.753978,-0.004276057,0.0061086523,-0.0012217305,-0.05052006244659424,-0.007609082851558924,0.48489949107170105,1023.2937,
2021.02.09 08:26:57,47.0,18.0,-10.92,18.24,-48.539997,0.059855044,0.51954174,9.631873,0.0,0.0012217305,-0.004886922,-0.05388658493757248,-0.006214188411831856,0.471390038728714,1023.2937,
2021.02.09 08:26:57,47.0,18.0,-10.679999,17.88,-48.12,-0.088585466,0.4333505,9.840169,0.004886922,0.007330383,-0.022602014,-0.044008709490299225,0.00900219101458788,0.5076839327812195,1023.29126,
2021.02.09 08:26:57,47.0,18.0,-10.5,17.58,-48.12,0.093373865,0.46686932,9.662998,0.012217305,-0.007330383,-0.014660766,-0.04827537015080452,-0.009662731550633907,0.46731528639793396,1023.29126,
2021.02.09 08:26:57,47.0,18.0,-9.96,17.64,-48.42,0.062249243,0.47644615,9.629479,0.049480084,0.0061086523,-0.007330383,-0.049436528235673904,-0.006464355159550905,0.4491395950317383,1023.29126,
2021.02.09 08:26:57,47.0,18.0,-10.26,17.4,-48.48,-0.088585466,0.4165911,9.619903,0.02443461,0.01038471,-0.030543262,-0.04327625781297684,0.009208301082253456,0.5025938749313354,1023.29126,
2021.02.09 08:26:57,47.0,18.0,-10.559999,17.4,-48.84,-0.019153614,0.48362875,9.64145,0.015882496,0.017715093,-0.029321533,-0.0501193068921566,0.001986588118597865,0.49326056241989136,1023.29395,
2021.02.09 08:26:57,47.0,18.0,-10.32,17.58,-48.66,0.009576807,0.48123455,9.646238,0.0030543262,0.017104227,-0.02565634,-0.049846965819597244,-9.9280197173357E-4,0.47479698061943054,1023.29395,
2021.02.09 08:26:57,47.0,18.0,-10.38,17.34,-48.899998,-0.076614454,0.45968673,9.727641,-0.009162978,0.017104227,-0.025045475,-0.04721913859248161,0.007875791750848293,0.5017120838165283,1023.29395,
2021.02.09 08:26:57,47.0,18.0,-10.26,17.34,-48.84,-0.045489833,0.45489833,9.555259,0.002443461,0.01160644,-0.025045475,-0.04757066071033478,0.004760675597935915,0.49064901471138,1023.29395,
2021.02.09 08:26:57,47.0,18.0,-10.139999,17.279999,-48.719997,0.0,0.46686932,9.548077,0.01038471,0.016493361,-0.009162978,-0.04885777831077576,1.0E-6,0.4766223132610321,1023.2927,
2021.02.09 08:26:57,47.0,18.0,-10.26,16.98,-48.539997,-0.0023942017,0.46686932,9.773131,-0.025045475,0.014049901,-0.007941248,-0.04773440957069397,2.449779713060707E-4,0.4895934462547302,1023.2927,
2021.02.09 08:26:57,47.0,18.0,-9.96,16.8,-47.82,-0.0047884034,0.48841715,9.557653,-0.021991149,0.002443461,-0.007941248,-0.051057785749435425,5.010020104236901E-4,0.47912609577178955,1023.2927,
2021.02.09 08:26:57,47.0,18.0,-9.96,16.98,-47.94,-0.045489833,0.40462008,9.765948,-0.023823744,0.014660766,-0.012217305,-0.04140758886933327,0.004657970741391182,0.4931398630142212,1023.2927,
2021.02.09 08:26:57,47.0,18.0,-9.78,17.279999,-48.059998,0.038307227,0.45968673,9.581595,-0.021991149,-0.0018325958,-0.0067195175,-0.04793886840343475,-0.003997979685664177,0.45565271377563477,1023.2905,
2021.02.09 08:26:57,47.0,18.0,-9.54,17.58,-48.42,0.007182605,0.47405192,9.653421,0.002443461,0.0067195175,-0.005497787,-0.04906770959496498,-7.440475164912641E-4,0.4448912441730499,1023.2905,
2021.02.09 08:26:57,47.0,18.0,-9.96,17.82,-48.719997,-0.14844051,0.4213795,9.821015,-0.029932396,0.007941248,-0.02076942,-0.042874716222286224,0.015113427303731441,0.49346449971199036,1023.2905,
2021.02.09 08:26:57,47.0,18.0,-9.96,17.64,-48.48,-0.031124622,0.45729253,9.662998,-0.018936822,-6.1086525E-4,-0.016493361,-0.04728855937719345,0.003220999613404274,0.4700907766819,1023.2905,
2021.02.09 08:26:57,47.0,18.0,-10.32,17.46,-48.239998,-0.047884032,0.4285621,9.581595,0.012217305,6.1086525E-4,-0.0030543262,-0.04469728842377663,0.00499745924025774,0.49431368708610535,1023.2888,
2021.02.09 08:26:57,47.0,18.0,-10.8,17.4,-48.239998,-0.04309563,0.4333505,9.627085,0.009162978,0.0030543262,-0.0018325958,-0.04498286545276642,0.0044764685444533825,0.5131381154060364,1023.2888,
2021.02.09 08:26:57,47.0,18.0,-10.98,17.16,-48.239998,-0.031124622,0.4285621,9.758766,-0.017104227,0.0030543262,-0.007941248,-0.0438871793448925,0.0031893905252218246,0.5241817831993103,1023.2888,
2021.02.09 08:26:57,47.0,18.0,-10.679999,17.34,-48.48,0.023942016,0.47405192,9.598354,-0.0067195175,-0.004276057,-6.1086525E-4,-0.0493486225605011,-0.0024943824391812086,0.49177876114845276,1023.2888,
2021.02.09 08:26:57,47.0,18.0,-10.38,17.52,-48.66,-0.047884032,0.4381389,9.6845455,0.0036651916,0.007330383,-0.0030543262,-0.04520966112613678,0.004944335203617811,0.49446699023246765,1023.29565,
2021.02.09 08:26:57,47.0,18.0,-10.139999,17.4,-48.6,-0.0023942017,0.46926352,9.753978,-0.013439035,0.004276057,-0.01038471,-0.048072896897792816,2.454589994158596E-4,0.47551894187927246,1023.29565,
2021.02.09 08:26:57,47.0,18.0,-9.84,18.06,-48.539997,-0.110133275,0.4141969,9.77792,-0.017715093,0.004886922,-0.0067195175,-0.042332444339990616,0.011262990534305573,0.4770718216896057,1023.29565,
2021.02.09 08:26:57,47.0,18.0,-10.08,18.24,-48.239998,0.035913024,0.48362875,9.502586,0.005497787,-0.002443461,-0.005497787,-0.05085020139813423,-0.0037792713847011328,0.44657087326049805,1023.29565,
2021.02.09 08:26:58,47.0,18.0,-10.559999,18.48,-48.36,-0.04309563,0.4165911,9.828198,0.015882496,0.004886922,0.004276057,-0.04236156865954399,0.004384868312627077,0.48361891508102417,1023.2993,
2021.02.09 08:26:58,47.0,18.0,-10.74,18.72,-48.42,-0.06943185,0.4189853,9.598354,-0.022602014,-0.004886922,-0.01038471,-0.043622955679893494,0.007233597803860903,0.48962581157684326,1023.2993,
2021.02.09 08:26:58,47.0,18.0,-11.099999,18.42,-48.48,-0.06943185,0.4309563,9.6845455,0.0012217305,0.009162978,-0.0018325958,-0.04446890577673912,0.007169222459197044,0.5081668496131897,1023.2993,
2021.02.09 08:26:58,47.0,18.0,-10.92,18.3,-48.36,-0.090979666,0.4189853,9.694122,-0.004886922,-0.0036651916,0.002443461,-0.04319177195429802,0.00938475877046585,0.5092954635620117,1023.2993,
2021.02.09 08:26:58,47.0,18.0,-10.5,18.119999,-48.12,0.01436521,0.4381389,9.758766,0.0030543262,0.01160644,0.0067195175,-0.04486677795648575,-0.0014720303006470203,0.47537586092948914,1023.30054,
2021.02.09 08:26:58,47.0,18.0,-10.26,17.88,-47.879997,-0.05746084,0.45250413,9.639056,0.018936822,0.0018325958,0.007941248,-0.04690958559513092,0.005961181130260229,0.4831099808216095,1023.30054,
2021.02.09 08:26:58,47.0,18.0,-9.48,17.64,-47.879997,-0.016759412,0.4213795,9.572019,0.02076942,0.005497787,0.007941248,-0.04399354010820389,0.0017508736345916986,0.4514021575450897,1023.30054,
2021.02.09 08:26:58,47.0,18.0,-9.24,17.46,-48.0,-0.12928689,0.38307226,9.80665,-0.01160644,0.01160644,-0.0018325958,-0.039039261639118195,0.01318282913416624,0.4724865257740021,1023.30054,
2021.02.09 08:26:58,47.0,18.0,-9.36,17.279999,-48.0,-0.02873042,0.4357447,9.679757,0.004886922,0.007941248,0.005497787,-0.04498550668358803,0.0029680842999368906,0.4550635814666748,1023.29517,
2021.02.09 08:26:58,47.0,18.0,-9.24,17.16,-48.18,-0.05267244,0.4189853,9.698911,0.01160644,0.0067195175,0.010995574,-0.04317173361778259,0.005430704914033413,0.4590974748134613,1023.29517,
2021.02.09 08:26:58,47.0,18.0,-9.78,17.16,-48.0,-0.07182605,0.4141969,9.600749,0.02687807,0.018325957,6.1086525E-4,-0.04311420023441315,0.007481156382709742,0.4856373369693756,1023.29517,
2021.02.09 08:26:58,47.0,18.0,-9.96,17.34,-48.6,-0.107739076,0.45489833,9.794679,0.005497787,0.004276057,0.004886922,-0.04640726372599602,0.010999312624335289,0.4921922981739044,1023.29517,
2021.02.09 08:26:58,47.0,18.0,-9.84,17.58,-48.719997,-0.023942016,0.46926352,9.727641,0.007941248,0.002443461,-6.1086525E-4,-0.04820270463824272,0.0024612306151539087,0.4639255106449127,1023.2937,
2021.02.09 08:26:58,47.0,18.0,-9.84,17.699999,-48.66,-0.047884032,0.4405331,9.622296,0.027488936,0.009773844,-6.1086525E-4,-0.04575001820921898,0.0049763210117816925,0.46884727478027344,1023.2937,
2021.02.09 08:26:58,47.0,18.0,-9.66,18.119999,-49.02,-0.031124622,0.4333505,9.653421,0.017715093,0.004276057,-0.0036651916,-0.04486052319407463,0.0032241949811577797,0.45050379633903503,1023.2937,
2021.02.09 08:26:58,47.0,18.0,-10.08,18.18,-48.48,-0.011971008,0.45489833,9.770737,0.0061086523,0.0036651916,-6.1086525E-4,-0.04652359336614609,0.0012251893058419228,0.4609866738319397,1023.2937,
2021.02.09 08:26:58,47.0,18.0,-10.26,17.76,-48.6,-0.08140286,0.45489833,9.694122,-0.008552114,-6.1086525E-4,-0.009162978,-0.04688912257552147,0.008396938443183899,0.48970097303390503,1023.2964,
2021.02.09 08:26:58,47.0,18.0,-10.26,17.58,-48.42,-0.059855044,0.46447513,9.682152,0.018936822,0.0030543262,-0.005497787,-0.047934640198946,0.006181919481605291,0.4883168637752533,1023.2964,
2021.02.09 08:26:58,47.0,18.0,-10.44,17.4,-48.239998,-0.023942016,0.47165772,9.751583,-0.002443461,-0.0036651916,-0.007941248,-0.048329487442970276,0.00245518796145916,0.49181094765663147,1023.2964,
2021.02.09 08:26:58,47.0,18.0,-10.38,17.64,-48.3,-0.033518825,0.50757074,9.667787,0.007330383,0.0036651916,-0.008552114,-0.05245276913046837,0.003467049216851592,0.48230502009391785,1023.2964,
2021.02.09 08:26:58,47.0,18.0,-10.5,17.82,-47.94,-0.20111294,0.44771573,9.715671,0.007941248,0.009162978,-0.01282817,-0.046039387583732605,0.020696895197033882,0.5215192437171936,1023.2876,
2021.02.09 08:26:58,47.0,18.0,-10.98,17.88,-48.239998,-0.033518825,0.49320555,9.603143,-0.0012217305,-0.002443461,-0.01160644,-0.051313366740942,0.003490387462079525,0.5016147494316101,1023.2876,
2021.02.09 08:26:58,47.0,18.0,-10.44,17.82,-48.18,-0.10534488,0.49320555,9.837775,0.015271631,0.0061086523,0.007941248,-0.050089046359062195,0.010707791894674301,0.49685704708099365,1023.2876,
2021.02.09 08:26:58,47.0,18.0,-10.139999,17.4,-48.3,-0.0047884034,0.51475334,9.667787,-0.014660766,-0.009162978,0.0030543262,-0.053193941712379456,4.952946910634637E-4,0.4713330566883087,1023.2876,
2021.02.09 08:26:58,47.0,18.0,-9.96,17.82,-48.42,-0.06943185,0.49320555,9.651027,0.018325957,0.0036651916,0.009162978,-0.05105821043252945,0.007194120902568102,0.4705704152584076,1023.29004,
2021.02.09 08:26:59,47.0,18.0,-9.66,18.06,-48.42,-0.093373865,0.49559975,9.739613,0.01282817,-0.0018325958,-0.0012217305,-0.05083877220749855,0.009586726315319538,0.45885545015335083,1023.29004,
2021.02.09 08:26:59,47.0,18.0,-10.38,17.82,-48.48,-0.11971009,0.50038815,9.801862,0.0,0.0012217305,-0.0012217305,-0.05100223794579506,0.012212387286126614,0.49627700448036194,1023.29004,
2021.02.09 08:26:59,47.0,18.0,-10.5,17.94,-48.42,-0.047884032,0.5626374,9.627085,0.022602014,-0.013439035,0.017104227,-0.05837605148553848,0.004973846022039652,0.47801506519317627,1023.29004,
2021.02.09 08:26:59,47.0,18.0,-10.559999,17.52,-48.36,-0.033518825,0.5267244,9.607931,0.037873644,0.008552114,0.020158553,-0.05476667732000351,0.0034886477515101433,0.48948952555656433,1023.2864,
2021.02.09 08:26:59,47.0,18.0,-10.62,17.16,-48.239998,-0.12210429,0.51954174,9.706094,-0.008552114,-0.017104227,0.01038471,-0.0534721203148365,0.01257950346916914,0.5178131461143494,1023.2864,
2021.02.09 08:26:59,47.0,18.0,-10.5,17.34,-48.18,0.016759412,0.581791,9.540894,0.01038471,-0.0030543262,0.014049901,-0.060903165489435196,-0.0017565854359418154,0.47522372007369995,1023.2864,
2021.02.09 08:26:59,47.0,18.0,-10.38,17.34,-48.12,-0.04070143,0.521936,9.76116,-0.005497787,-0.0061086523,0.012217305,-0.053419359028339386,0.004169709049165249,0.48904407024383545,1023.2864,
2021.02.09 08:26:59,47.0,18.0,-10.38,17.279999,-48.42,-0.107739076,0.5386954,9.710882,-0.028099801,-0.015271631,0.012217305,-0.055413175374269485,0.01109421905130148,0.5011374950408936,1023.28784,
2021.02.09 08:26:59,47.0,18.0,-10.26,17.4,-48.66,-0.035913024,0.5530606,9.7324295,0.0018325958,-6.1086525E-4,0.019547688,-0.056765131652355194,0.0036900201812386513,0.47840890288352966,1023.28784,
2021.02.09 08:26:59,47.0,18.0,-10.139999,17.64,-48.42,-0.016759412,0.521936,9.545682,0.004276057,-0.01160644,0.015271631,-0.054623231291770935,0.0017557044047862291,0.46746599674224854,1023.28784,
2021.02.09 08:26:59,47.0,18.0,-10.08,17.699999,-48.66,-0.0047884034,0.5722142,9.67018,-0.0036651916,-0.0061086523,0.021380283,-0.05910413712263107,4.95172047521919E-4,0.4571045935153961,1023.28784,
2021.02.09 08:26:59,47.0,18.0,-10.2,18.119999,-48.539997,-0.05267244,0.5626374,9.734824,-0.01282817,-0.0061086523,0.0067195175,-0.05773128941655159,0.005410670302808285,0.4643685221672058,1023.282,
2021.02.09 08:26:59,47.0,18.0,-10.2,18.0,-48.3,0.01436521,0.5602432,9.691729,-0.01282817,-0.0036651916,0.01038471,-0.057742003351449966,-0.0014822123339399695,0.4539380371570587,1023.282,
2021.02.09 08:26:59,47.0,18.0,-10.26,17.64,-48.899998,-0.06464344,0.48841715,9.533711,-0.0018325958,-0.0067195175,0.004886922,-0.05118461325764656,0.006780407391488552,0.48465001583099365,1023.282,
2021.02.09 08:26:59,47.0,18.0,-10.559999,17.4,-48.78,0.0047884034,0.51954174,9.495404,0.007330383,-0.004276057,0.009773844,-0.05466056242585182,-5.042863194830716E-4,0.4840240776538849,1023.282,
2021.02.09 08:26:59,47.0,18.0,-10.32,17.34,-48.719997,-0.038307227,0.49799395,9.835381,-0.047036625,6.1086525E-4,0.0061086523,-0.05058932676911354,0.0038948196452111006,0.4884071350097656,1023.2932,
2021.02.09 08:26:59,47.0,18.0,-10.5,17.46,-48.78,-0.031124622,0.533907,9.703699,-0.047036625,-0.007330383,0.0012217305,-0.054965272545814514,0.003207489615306258,0.4872516989707947,1023.2932,
2021.02.09 08:26:59,47.0,18.0,-10.5,17.52,-48.6,0.0023942017,0.47884035,9.720459,-0.026267206,-0.0067195175,0.0012217305,-0.04922129586338997,-2.4630542611703277E-4,0.48524758219718933,1023.2932,
2021.02.09 08:26:59,47.0,18.0,-10.38,17.82,-48.66,0.0047884034,0.48123455,9.591172,-0.009773844,-0.018936822,-0.0030543262,-0.050132688134908676,-4.99251123983413E-4,0.4729945957660675,1023.2932,
2021.02.09 08:26:59,47.0,18.0,-10.26,17.94,-48.42,0.016759412,0.47884035,9.7563715,0.0061086523,-0.0036651916,0.004276057,-0.04904033616185188,-0.0017177897971123457,0.4648441970348358,1023.2864,
2021.02.09 08:26:59,47.0,18.0,-10.32,17.88,-48.18,-0.093373865,0.50757074,9.859323,-0.026267206,-0.0067195175,-0.005497787,-0.05143359303474426,0.009470333345234394,0.48743027448654175,1023.2864,
2021.02.09 08:26:59,47.0,18.0,-10.32,18.18,-48.0,0.02633622,0.50996494,9.679757,0.0030543262,0.0,-0.007941248,-0.052634790539741516,-0.002720745513215661,0.4577728807926178,1023.2864,
2021.02.09 08:26:59,47.0,18.0,-10.38,18.0,-47.94,-0.06943185,0.4309563,9.497798,0.037873644,-0.0061086523,-0.005497787,-0.04534202814102173,0.007310179527848959,0.48930004239082336,1023.2864,
2021.02.09 08:26:59,47.0,18.0,-10.5,17.58,-48.18,0.016759412,0.46926352,9.514558,0.037873644,0.002443461,-0.002443461,-0.04928057640790939,-0.0017614475218579173,0.48149123787879944,1023.28467,
2021.02.09 08:26:59,47.0,18.0,-10.44,17.64,-48.18,-0.038307227,0.5506664,9.718064,0.005497787,-0.0012217305,0.0036651916,-0.056603237986564636,0.003941837698221207,0.48166874051094055,1023.28467,
2021.02.09 08:27:00,47.0,18.0,-10.44,17.52,-48.42,-0.045489833,0.49081135,9.677363,-0.019547688,0.0012217305,-0.01038471,-0.05067349225282669,0.004700608551502228,0.4910801947116852,1023.28467,
2021.02.09 08:27:00,47.0,18.0,-10.44,17.4,-48.059998,-0.05267244,0.49320555,9.674969,-0.004886922,0.008552114,-0.005497787,-0.050932642072439194,0.005444143433123827,0.49505525827407837,1023.28467,
2021.02.09 08:27:00,47.0,18.0,-10.38,17.76,-48.42,0.031124622,0.533907,9.639056,-0.002443461,0.004276057,-0.0036651916,-0.05533313378691673,-0.0032290001399815083,0.4643268585205078,1023.28345,
2021.02.09 08:27:00,47.0,18.0,-10.26,17.76,-48.539997,-0.023942016,0.49799395,9.560047,0.002443461,0.008552114,-0.0067195175,-0.05204395949840546,0.002504377393051982,0.4735367000102997,1023.28345,
2021.02.09 08:27:00,47.0,18.0,-10.44,17.82,-48.42,0.01436521,0.5267244,9.78989,-0.016493361,0.01160644,-0.009162978,-0.053751010447740555,-0.0014673504047095776,0.4703209102153778,1023.28345,
2021.02.09 08:27:00,47.0,18.0,-10.5,18.06,-48.78,-0.07182605,0.5386954,9.76116,-0.017715093,0.014049901,-0.019547688,-0.05513022840023041,0.007358219008892775,0.4827914535999298,1023.28345,
2021.02.09 08:27:00,47.0,18.0,-10.5,18.06,-48.78,-0.031124622,0.49799395,9.600749,0.016493361,0.022602014,-0.021380283,-0.051823604851961136,0.003241883823648095,0.4782346785068512,1023.2905,
2021.02.09 08:27:00,47.0,18.0,-10.679999,17.64,-48.78,-0.093373865,0.49081135,9.610326,0.01282817,0.021380283,-0.019547688,-0.05102451145648956,0.009715688414871693,0.5066047310829163,1023.2905,
2021.02.09 08:27:00,47.0,18.0,-10.559999,17.279999,-48.78,-0.02633622,0.51714754,9.591172,-0.008552114,0.018936822,-0.02443461,-0.05386675149202347,0.0027458742260932922,0.4935295581817627,1023.2905,
2021.02.09 08:27:00,47.0,18.0,-10.32,17.279999,-48.48,-0.076614454,0.47165772,9.7563715,-0.022602014,0.01282817,-0.021380283,-0.04830446094274521,0.007852599956095219,0.4997885525226593,1023.2905,
2021.02.09 08:27:00,47.0,18.0,-10.74,17.52,-48.3,-0.09816227,0.5267244,9.574412,-0.014049901,0.0067195175,-0.02443461,-0.05495547130703926,0.010252204723656178,0.508823573589325,1023.30176,
2021.02.09 08:27:00,47.0,18.0,-10.8,17.94,-48.36,-0.11252748,0.48123455,9.653421,-0.01160644,0.026267206,-0.028710667,-0.04980657622218132,0.011656218208372593,0.5099007487297058,1023.30176,
2021.02.09 08:27:00,47.0,18.0,-10.8,18.24,-48.36,-0.059855044,0.47405192,9.866506,-0.04520403,0.004276057,-0.018325957,-0.04800878465175629,0.006066414061933756,0.495261549949646,1023.30176,
2021.02.09 08:27:00,47.0,18.0,-11.16,18.119999,-48.719997,-0.11971009,0.4429273,9.560047,-0.010995574,0.004276057,-0.002443461,-0.04629434645175934,0.012521260417997837,0.5243679285049438,1023.30176,
2021.02.09 08:27:00,47.0,18.0,-11.28,17.82,-48.42,-0.031124622,0.48602295,9.636662,-0.004886922,0.0,-0.002443461,-0.050391823053359985,0.0032298024743795395,0.514430820941925,1023.3054,
2021.02.09 08:27:00,47.0,18.0,-11.04,17.82,-48.6,-0.088585466,0.4285621,9.840169,-0.029321533,0.007941248,0.004886922,-0.043523043394088745,0.009002190083265305,0.5228497982025146,1023.3054,
2021.02.09 08:27:00,47.0,18.0,-10.92,17.76,-48.539997,-0.06464344,0.45010993,9.751583,-0.027488936,-0.005497787,-0.004886922,-0.04612387344241142,0.0066289231181144714,0.5125851631164551,1023.3054,
2021.02.09 08:27:00,47.0,18.0,-10.139999,17.64,-48.36,-0.090979666,0.45010993,9.425972,0.021991149,-0.004276057,0.004276057,-0.04771363362669945,0.009651719592511654,0.48922887444496155,1023.3054,
2021.02.09 08:27:00,47.0,18.0,-9.9,17.58,-48.36,-0.11252748,0.40701428,9.787497,0.004886922,0.0067195175,-0.007330383,-0.041558437049388885,0.011496557854115963,0.4906901717185974,1023.29956,
2021.02.09 08:27:00,47.0,18.0,-9.84,17.34,-48.059998,-0.10295067,0.44771573,9.696517,-0.025045475,-0.0036651916,-0.004886922,-0.04613747075200081,0.01061688456684351,0.4872424900531769,1023.29956,
2021.02.09 08:27:00,47.0,18.0,-9.96,17.52,-48.12,-0.09816227,0.4237737,9.516952,0.0030543262,0.004276057,0.0036651916,-0.04449654743075371,0.010314099490642548,0.4892410635948181,1023.29956,
2021.02.09 08:27:00,47.0,18.0,-10.62,17.52,-48.36,-0.059855044,0.3854665,9.770737,0.0012217305,0.0030543262,0.0036651916,-0.0394299291074276,0.006125872954726219,0.512305498123169,1023.29956,
2021.02.09 08:27:00,47.0,18.0,-10.32,17.58,-48.48,-0.062249243,0.4261679,9.622296,-0.02443461,-0.01038471,0.01160644,-0.044259779155254364,0.006469180807471275,0.49485093355178833,1023.3025,
2021.02.09 08:27:00,47.0,18.0,-10.38,17.64,-48.48,-0.110133275,0.4261679,9.648633,-0.007941248,0.01282817,0.009773844,-0.044137172400951385,0.011413895525038242,0.5054264068603516,1023.3025,
2021.02.09 08:27:00,47.0,18.0,-10.2,17.64,-48.719997,-0.079008654,0.41180268,9.701305,-0.013439035,-6.1086525E-4,0.0018325958,-0.04242129996418953,0.008143946528434753,0.4937802851200104,1023.3025,
2021.02.09 08:27:01,47.0,18.0,-10.2,17.64,-48.48,-0.06464344,0.3854665,9.603143,-0.01038471,0.002443461,0.012217305,-0.04011717066168785,0.006731386762112379,0.49353834986686707,1023.3025,
2021.02.09 08:27:01,47.0,18.0,-10.08,17.46,-48.059998,-0.06943185,0.40222588,9.617508,-0.005497787,0.005497787,0.005497787,-0.041796810925006866,0.007219193037599325,0.4920942783355713,1023.3076,
2021.02.09 08:27:01,47.0,18.0,-10.2,17.64,-48.12,-0.06943185,0.4333505,9.78989,-0.020158553,-6.1086525E-4,0.010995574,-0.04423511400818825,0.00709208007901907,0.4903148114681244,1023.3076,
2021.02.09 08:27:01,47.0,18.0,-10.38,17.699999,-47.82,-0.047884032,0.3854665,9.653421,-0.009773844,0.0030543262,0.0018325958,-0.039908867329359055,0.004960276652127504,0.4966147541999817,1023.3076,
2021.02.09 08:27:01,47.0,18.0,-10.08,17.34,-47.94,-0.009576807,0.39983168,9.581595,0.0030543262,0.004276057,0.009162978,-0.04170491546392441,9.994999272748828E-4,0.482765257358551,1023.3076,
2021.02.09 08:27:01,47.0,18.0,-10.26,17.22,-48.059998,-0.06703765,0.4213795,9.749189,-0.03481932,0.0036651916,6.1086525E-4,-0.04319409653544426,0.006876119412481785,0.5023796558380127,1023.29834,
2021.02.09 08:27:01,47.0,18.0,-10.26,16.92,-48.059998,-0.047884032,0.35194764,9.677363,-0.010995574,0.008552114,-0.005497787,-0.03635166957974434,0.0049480050802230835,0.5125933885574341,1023.29834,
2021.02.09 08:27:01,47.0,18.0,-9.719999,16.56,-48.0,0.15562311,0.50038815,10.304645,-0.015271631,0.0061086523,-0.002443461,-0.04851583391427994,-0.015101081691682339,0.44467267394065857,1023.29834,
2021.02.09 08:27:01,47.0,18.0,-9.54,16.74,-47.7,0.25139117,0.47165772,10.876859,-0.08857546,-0.07513642,0.02443461,-0.04332470893859863,-0.023108365014195442,0.42177531123161316,1023.29834,
