Time,X-cord,Y-cord,Mag_x,Mag_y,Mag_z,Acc_x,Acc_y,Acc_z,Gyro_x,Gyro_y,Gyro_z,Orn_x,Orn_y,Orn_z,Pressure,
2021.02.09 08:34:16,77.0,15.0,9.66,-33.18,-40.079998,-0.8595184,0.51714754,9.31105,0.13744467,0.050701816,-0.025045475,-0.055249836295843124,0.09205077588558197,-2.951693534851074,1023.3833,
2021.02.09 08:34:16,77.0,15.0,9.36,-33.0,-40.079998,-0.16280572,0.50996494,9.088389,0.055588737,-0.059864793,0.09101892,-0.056043945252895355,0.017911678180098534,-2.8671860694885254,1023.3833,
2021.02.09 08:34:16,77.0,15.0,9.48,-33.3,-39.719997,0.045489833,0.6536171,9.090784,-0.048258353,-0.15515977,0.057421334,-0.07177446037530899,-0.005003908183425665,-2.833070993423462,1023.3833,
2021.02.09 08:34:16,77.0,15.0,9.96,-33.48,-39.48,-0.019153614,0.58418524,9.682152,-0.1826487,-0.1459968,0.007941248,-0.06026312708854675,0.0019782367162406445,-2.833381175994873,1023.395,
2021.02.09 08:34:16,77.0,15.0,9.78,-33.18,-39.42,-0.02873042,0.58897364,10.323798,-0.16310102,-0.12644911,-0.0061086523,-0.056988101452589035,0.0027829238679260015,-2.838104009628296,1023.395,
2021.02.09 08:34:16,77.0,15.0,9.48,-32.94,-38.82,0.062249243,0.6536171,9.691729,-0.020158553,-0.07880162,-0.026267206,-0.06733736395835876,-0.00642283633351326,-2.830488443374634,1023.395,
2021.02.09 08:34:16,77.0,15.0,9.12,-32.7,-39.0,0.09816227,0.5315128,9.519346,-0.02565634,-0.10323623,-0.0421497,-0.055774133652448654,-0.010311505757272243,-2.8388118743896484,1023.395,
2021.02.09 08:34:16,77.0,15.0,9.059999,-32.46,-39.0,0.14604631,0.5674258,9.703699,-0.1020145,-0.08307768,-0.073303826,-0.05840209499001503,-0.015049444511532784,-2.8318233489990234,1023.39136,
2021.02.09 08:34:16,77.0,15.0,9.24,-32.1,-39.54,-0.08379706,0.40701428,10.149021,-0.026267206,-0.04153884,-0.07452556,-0.040080949664115906,0.008256476372480392,-2.857156753540039,1023.39136,
2021.02.09 08:34:16,77.0,15.0,9.179999,-32.46,-40.14,0.05267244,0.36391866,9.545682,0.023823744,-0.0067195175,-0.03970624,-0.03810487315058708,-0.005517877638339996,-2.8463239669799805,1023.39136,
2021.02.09 08:34:16,77.0,15.0,9.3,-32.34,-40.32,-0.08379706,0.4333505,9.749189,-0.0030543262,6.1086525E-4,-0.019547688,-0.044419024139642715,0.008595073595643044,-2.8561947345733643,1023.39136,
2021.02.09 08:34:16,77.0,15.0,8.82,-32.46,-40.379997,0.035913024,0.49799395,9.531317,-0.027488936,0.012217305,-0.014049901,-0.05220034718513489,-0.00376787967979908,-2.8538055419921875,1023.39844,
2021.02.09 08:34:16,77.0,15.0,8.28,-32.7,-40.32,-0.25139117,0.39025488,9.787497,-0.031154128,-0.03604105,-0.002443461,-0.03983856365084648,0.02567928470671177,-2.9125254154205322,1023.39844,
2021.02.09 08:34:16,77.0,15.0,8.28,-32.46,-40.14,-0.1340753,0.30645782,9.615114,-0.016493361,-0.06291912,0.042760566,-0.03185862675309181,0.013943320140242577,-2.898754119873047,1023.39844,
2021.02.09 08:34:16,77.0,15.0,8.4,-32.46,-40.14,-0.14844051,0.34955344,9.49301,-0.008552114,-0.007330383,0.03848451,-0.03680107370018959,0.015635548159480095,-2.8956334590911865,1023.39844,
2021.02.09 08:34:16,77.0,15.0,8.7,-32.82,-40.079998,-0.110133275,0.33518824,9.593566,-0.0580322,-0.0067195175,0.06536258,-0.03492235019803047,0.011479406617581844,-2.8849563598632812,1023.3948,
2021.02.09 08:34:16,77.0,15.0,9.12,-33.12,-40.14,0.10055647,0.4189853,9.746795,-0.029932396,0.016493361,0.052534413,-0.042958252131938934,-0.010316510684788227,-2.8465516567230225,1023.3948,
2021.02.09 08:34:17,77.0,15.0,9.0,-32.88,-40.14,0.074220255,0.47405192,9.660604,-0.02443461,0.029321533,0.02443461,-0.04902986064553261,-0.007682624738663435,-2.8487958908081055,1023.3948,
2021.02.09 08:34:17,77.0,15.0,8.76,-32.94,-39.899998,0.038307227,0.50757074,9.758766,-0.051923547,0.023823744,0.0012217305,-0.051964547485113144,-0.00392539706081152,-2.860013484954834,1023.3948,
2021.02.09 08:34:17,77.0,15.0,9.0,-32.64,-39.899998,-0.20829555,0.3854665,10.084377,0.005497787,0.007941248,-0.010995574,-0.03819738328456879,0.02065233513712883,-2.8844597339630127,1023.396,
2021.02.09 08:34:17,77.0,15.0,8.58,-32.52,-39.48,-0.16280572,0.37110126,9.64145,0.07696902,0.005497787,0.025045475,-0.038465723395347595,0.016884416341781616,-2.8914811611175537,1023.396,
2021.02.09 08:34:17,77.0,15.0,8.639999,-32.64,-39.719997,0.06703765,0.37588966,9.473856,0.035430185,0.012217305,0.035430185,-0.03965473175048828,-0.007075950037688017,-2.861755132675171,1023.396,
2021.02.09 08:34:17,77.0,15.0,8.58,-32.579998,-39.899998,0.05267244,0.34955344,9.674969,0.009162978,0.013439035,0.007941248,-0.0361134298145771,-0.005444143433123827,-2.8660964965820312,1023.396,
2021.02.09 08:34:17,77.0,15.0,8.5199995,-32.1,-40.02,-0.0047884034,0.39504328,9.727641,0.017715093,0.0030543262,-0.0067195175,-0.040588077157735825,4.922470543533564E-4,-2.8693625926971436,1023.3865,
2021.02.09 08:34:17,77.0,15.0,8.639999,-32.219997,-40.44,0.031124622,0.4429273,9.710882,0.035430185,-0.0067195175,-0.018936822,-0.045579612255096436,-0.0032051170710474253,-2.8602638244628906,1023.3865,
2021.02.09 08:34:17,77.0,15.0,8.639999,-32.219997,-40.32,-0.055066638,0.4357447,9.631873,0.035430185,6.1086525E-4,-0.03359759,-0.04520830512046814,0.005717064253985882,-2.8714022636413574,1023.3865,
2021.02.09 08:34:17,77.0,15.0,8.76,-32.28,-40.62,-0.15083471,0.4381389,9.646238,0.023823744,-0.009773844,-0.031154128,-0.04538396745920181,0.015635360032320023,-2.8804454803466797,1023.3865,
2021.02.09 08:34:17,77.0,15.0,8.46,-32.52,-40.68,-0.02873042,0.45968673,9.660604,0.018936822,0.005497787,-0.025045475,-0.04754757508635521,0.002973969094455242,-2.875110387802124,1023.38135,
2021.02.09 08:34:17,77.0,15.0,8.76,-32.16,-40.32,-0.08140286,0.46447513,9.730036,0.016493361,-0.0036651916,-0.03726278,-0.04769834503531456,0.00836594682186842,-2.8695952892303467,1023.38135,
2021.02.09 08:34:17,77.0,15.0,8.639999,-32.579998,-40.2,-0.076614454,0.51475334,9.526528,0.02687807,0.005497787,-0.034208454,-0.05397943779826164,0.008042048662900925,-2.874223470687866,1023.38135,
2021.02.09 08:34:17,77.0,15.0,8.82,-32.399998,-40.02,-0.20829555,0.46447513,9.727641,0.0018325958,-6.1086525E-4,-0.040927973,-0.04770081490278244,0.021409478038549423,-2.8858346939086914,1023.38135,
2021.02.09 08:34:17,77.0,15.0,8.88,-32.46,-39.96,-0.17717093,0.50038815,9.629479,0.015271631,0.0012217305,-0.018936822,-0.05190873146057129,0.018396731466054916,-2.8793253898620605,1023.38403,
2021.02.09 08:34:17,77.0,15.0,8.94,-32.7,-39.66,-0.02633622,0.581791,9.528923,-0.01038471,0.014049901,-0.008552114,-0.06097934767603874,0.0027638119645416737,-2.857311964035034,1023.38403,
2021.02.09 08:34:17,77.0,15.0,9.54,-32.579998,-39.84,-0.062249243,0.50278234,9.902418,-0.0067195175,-0.007330383,-0.019547688,-0.05072912946343422,0.006286184303462505,-2.8460850715637207,1023.38403,
2021.02.09 08:34:17,77.0,15.0,9.78,-33.059998,-39.54,-0.095768064,0.5434838,9.636662,0.0030543262,0.004886922,-0.009773844,-0.05633506551384926,0.009937561117112637,-2.8455564975738525,1023.38403,
2021.02.09 08:34:17,77.0,15.0,10.08,-33.12,-39.42,-0.1316811,0.5506664,9.696517,-0.0012217305,-0.0018325958,-0.015882496,-0.05672397091984749,0.0135794123634696,-2.841334819793701,1023.3772,
2021.02.09 08:34:17,77.0,15.0,10.0199995,-33.54,-39.719997,-0.08379706,0.5386954,9.646238,-0.0018325958,0.008552114,-0.0067195175,-0.055785082280635834,0.008686801418662071,-2.8415305614471436,1023.3772,
2021.02.09 08:34:17,77.0,15.0,9.84,-33.54,-39.3,-0.019153614,0.5291186,9.610326,-0.02321288,0.009773844,-6.1086525E-4,-0.05500166118144989,0.001993021694943309,-2.8395297527313232,1023.3772,
2021.02.09 08:34:17,77.0,15.0,9.78,-33.42,-39.36,-0.079008654,0.5243302,9.725247,-0.005497787,0.012217305,-0.007941248,-0.05386040732264519,0.008123897947371006,-2.847630500793457,1023.3772,
2021.02.09 08:34:17,77.0,15.0,9.84,-33.84,-39.42,-0.033518825,0.5530606,9.639056,-0.010995574,-0.0067195175,-0.01038471,-0.057313863188028336,0.0034773829393088818,-2.843005657196045,1023.37964,
2021.02.09 08:34:17,77.0,15.0,10.0199995,-34.02,-39.3,-0.16759412,0.48841715,9.794679,-0.018936822,-0.0067195175,-0.0018325958,-0.04981701448559761,0.017109062522649765,-2.857534170150757,1023.37964,
2021.02.09 08:34:17,77.0,15.0,10.139999,-33.899998,-39.899998,-0.079008654,0.5746084,9.792285,0.025045475,-0.009162978,0.004886922,-0.05861058458685875,0.008068284019827843,-2.839458465576172,1023.37964,
2021.02.09 08:34:18,77.0,15.0,9.84,-33.719997,-40.14,-0.047884032,0.5530606,9.490616,0.017104227,-0.0061086523,0.008552114,-0.05820789560675621,0.005045365542173386,-2.8431248664855957,1023.37964,
2021.02.09 08:34:18,77.0,15.0,9.599999,-32.88,-39.96,0.0047884034,0.5674258,9.665392,-0.037873644,-6.1086525E-4,-0.0012217305,-0.05863964930176735,-4.954173928126693E-4,-2.8358945846557617,1023.3794,
2021.02.09 08:34:18,77.0,15.0,9.3,-32.219997,-40.32,-0.06703765,0.50517654,9.957485,-0.016493361,-0.0030543262,-0.010995574,-0.050688739866018295,0.00673228595405817,-2.8504838943481445,1023.3794,
2021.02.09 08:34:18,77.0,15.0,9.059999,-31.98,-40.32,-0.04309563,0.5243302,9.751583,0.034208454,-0.020158553,-0.004276057,-0.053716473281383514,0.004419318400323391,-2.8516268730163574,1023.3794,
2021.02.09 08:34:18,77.0,15.0,9.059999,-31.56,-40.379997,-0.050278235,0.51954174,9.370906,0.029321533,-0.0067195175,0.0061086523,-0.05538450554013252,0.005365303251892328,-2.84822154045105,1023.3794,
2021.02.09 08:34:18,77.0,15.0,8.94,-32.28,-40.32,-0.12449849,0.49320555,9.665392,-0.039095376,-0.017715093,0.0036651916,-0.05097954720258713,0.012880139984190464,-2.8695006370544434,1023.38477,
2021.02.09 08:34:18,77.0,15.0,8.94,-32.28,-40.26,0.01436521,0.545878,9.821015,-0.029321533,-0.01038471,0.008552114,-0.05552545189857483,-0.001462699961848557,-2.850139617919922,1023.38477,
2021.02.09 08:34:18,77.0,15.0,9.0,-32.88,-39.899998,-0.04070143,0.533907,9.634268,-0.004276057,-0.0018325958,0.004276057,-0.055360373109579086,0.004224626813083887,-2.860793352127075,1023.38477,
2021.02.09 08:34:18,77.0,15.0,8.76,-33.3,-39.54,-0.107739076,0.4309563,9.715671,-0.01160644,-0.01160644,0.009162978,-0.04432504624128342,0.011088751256465912,-2.8834192752838135,1023.38477,
2021.02.09 08:34:18,77.0,15.0,8.639999,-33.12,-39.719997,-0.062249243,0.46926352,9.564836,-0.005497787,-0.002443461,0.018325957,-0.04902098700404167,0.006508043501526117,-2.8786022663116455,1023.3828,
2021.02.09 08:34:18,77.0,15.0,8.82,-32.94,-39.48,-0.031124622,0.48602295,9.751583,-0.023823744,-0.014660766,0.013439035,-0.04979895055294037,0.0031917395535856485,-2.8675997257232666,1023.3828,
2021.02.09 08:34:18,77.0,15.0,8.82,-32.76,-39.54,0.02873042,0.5410896,9.730036,-0.014660766,-0.0061086523,0.01038471,-0.05555277690291405,-0.0029527475126087666,-2.8567006587982178,1023.3828,
2021.02.09 08:34:18,77.0,15.0,9.179999,-33.059998,-39.899998,-0.02633622,0.49320555,9.813833,-0.002443461,-0.008552114,0.0012217305,-0.050213731825351715,0.0026835747994482517,-2.8569958209991455,1023.3828,
2021.02.09 08:34:18,77.0,15.0,8.88,-32.76,-40.14,-0.074220255,0.46208093,9.679757,0.016493361,0.002443461,-0.004276057,-0.0476992204785347,0.007667423691600561,-2.8701982498168945,1023.3799,
2021.02.09 08:34:18,77.0,15.0,8.82,-32.82,-40.559998,-0.038307227,0.46447513,9.634268,0.014660766,-0.0012217305,-0.002443461,-0.04817305505275726,0.003976122010499239,-2.867769956588745,1023.3799,
2021.02.09 08:34:18,77.0,15.0,8.82,-32.76,-40.739998,0.090979666,0.49320555,9.763555,-0.017104227,0.01282817,-0.002443461,-0.05046986788511276,-0.009318023920059204,-2.8501641750335693,1023.3799,
2021.02.09 08:34:18,77.0,15.0,8.58,-32.34,-40.62,-0.031124622,0.4381389,9.864111,0.018325957,-0.007330383,-0.015882496,-0.04438807815313339,0.0031553292647004128,-2.8713059425354004,1023.3799,
2021.02.09 08:34:18,77.0,15.0,8.88,-32.64,-39.899998,-0.035913024,0.47405192,9.435549,0.016493361,-0.0030543262,-0.018936822,-0.05019848793745041,0.003806122113019228,-2.8636977672576904,1023.3716,
2021.02.09 08:34:18,77.0,15.0,8.82,-32.7,-39.36,-0.12449849,0.4357447,9.646238,-0.009773844,0.019547688,-0.0061086523,-0.04513805732131004,0.012905712239444256,-2.87872052192688,1023.3716,
2021.02.09 08:34:18,77.0,15.0,8.5199995,-32.7,-39.66,-0.01436521,0.49799395,9.782708,-0.010995574,0.0036651916,-0.017104227,-0.05086157098412514,0.001468427712097764,-2.8721485137939453,1023.3716,
2021.02.09 08:34:18,77.0,15.0,8.5199995,-32.94,-39.719997,-0.06703765,0.48123455,9.64145,0.032375857,0.007941248,-0.0018325958,-0.04987049475312233,0.006952954921871424,-2.8810105323791504,1023.3716,
2021.02.09 08:34:18,77.0,15.0,8.16,-32.94,-40.2,-0.045489833,0.5434838,9.531317,-0.005497787,0.0061086523,-0.017715093,-0.056958526372909546,0.004772634245455265,-2.8868231773376465,1023.3694,
2021.02.09 08:34:18,77.0,15.0,7.98,-32.88,-40.739998,-0.11731588,0.48841715,9.847352,-0.014049901,0.01038471,-0.032375857,-0.04955470934510231,0.011912880465388298,-2.9030423164367676,1023.3694,
2021.02.09 08:34:18,77.0,15.0,8.28,-32.7,-40.8,-0.1604115,0.45489833,9.691729,0.035430185,0.0067195175,0.0030543262,-0.04689592123031616,0.01654987223446369,-2.8991456031799316,1023.3694,
2021.02.09 08:34:18,77.0,15.0,8.34,-32.64,-40.92,-0.04070143,0.5410896,9.43076,-0.0061086523,0.018936822,0.004276057,-0.05731160566210747,0.0043157897889614105,-2.877930164337158,1023.3694,
2021.02.09 08:34:18,77.0,15.0,9.12,-32.64,-40.5,-0.06943185,0.49559975,9.7324295,-0.04642576,0.014049901,-0.0018325958,-0.050877269357442856,0.007133950479328632,-2.8600685596466064,1023.37744,
2021.02.09 08:34:19,77.0,15.0,8.94,-32.88,-40.44,-0.095768064,0.49559975,9.888053,0.0012217305,0.018325957,-0.004886922,-0.050076816231012344,0.009684926830232143,-2.8709616661071777,1023.37744,
2021.02.09 08:34:19,77.0,15.0,8.76,-32.88,-40.14,-0.107739076,0.49559975,9.605537,0.013439035,0.019547688,0.0,-0.05154626816511154,0.011215879581868649,-2.877784490585327,1023.37744,
2021.02.09 08:34:19,77.0,15.0,8.76,-33.059998,-39.6,-0.023942016,0.47405192,9.720459,0.014049901,0.009162978,0.005497787,-0.04872971773147583,0.0024630490224808455,-2.869866371154785,1023.37744,
2021.02.09 08:34:19,77.0,15.0,8.5199995,-32.76,-39.899998,-0.079008654,0.50996494,9.61272,0.0036651916,0.021991149,0.0036651916,-0.0529995895922184,0.008218993432819843,-2.8799936771392822,1023.3728,
2021.02.09 08:34:19,77.0,15.0,8.76,-32.579998,-39.78,-0.06464344,0.51235914,9.782708,-0.015271631,0.015271631,-0.0030543262,-0.05232501029968262,0.006607833318412304,-2.8694849014282227,1023.3728,
2021.02.09 08:34:19,77.0,15.0,8.58,-32.94,-39.42,-0.15322891,0.47405192,9.7084875,0.02443461,0.02687807,-6.1086525E-4,-0.0487837940454483,0.015781674534082413,-2.890127658843994,1023.3728,
2021.02.09 08:34:19,77.0,15.0,8.58,-32.76,-39.84,-0.062249243,0.5315128,9.56723,0.0067195175,0.0067195175,0.0030543262,-0.05549732968211174,0.0065064141526818275,-2.8752386569976807,1023.3728,
2021.02.09 08:34:19,77.0,15.0,8.639999,-32.88,-39.66,-0.15322891,0.48362875,9.7563715,0.0030543262,0.0,0.004886922,-0.049523912370204926,0.015704231336712837,-2.8875293731689453,1023.37036,
2021.02.09 08:34:19,77.0,15.0,8.94,-32.7,-39.66,-0.031124622,0.5482722,9.615114,0.005497787,0.009773844,0.01038471,-0.056959930807352066,0.0032370404805988073,-2.8593597412109375,1023.37036,
2021.02.09 08:34:19,77.0,15.0,9.059999,-32.16,-39.899998,-0.12928689,0.49081135,9.7324295,0.0061086523,6.1086525E-4,0.0036651916,-0.05038338154554367,0.013283351436257362,-2.86550235748291,1023.37036,
2021.02.09 08:34:19,77.0,15.0,9.48,-32.16,-39.78,-0.10055647,0.5291186,9.605537,0.010995574,0.0030543262,0.01038471,-0.05502612143754959,0.010468211956322193,-2.8474512100219727,1023.37036,
2021.02.09 08:34:19,77.0,15.0,9.48,-32.34,-39.96,-0.19153613,0.50038815,9.610326,-0.014049901,0.01160644,0.002443461,-0.05201047658920288,0.019927604123950005,-2.861745595932007,1023.3816,
2021.02.09 08:34:19,77.0,15.0,9.36,-32.46,-39.54,-0.18674773,0.533907,9.773131,-0.007941248,-0.0036651916,0.01160644,-0.05456589534878731,0.019105954095721245,-2.8644790649414062,1023.3816,
2021.02.09 08:34:19,77.0,15.0,9.599999,-32.579998,-39.66,-0.079008654,0.58897364,9.548077,-0.005497787,0.02076942,0.012217305,-0.06160489097237587,0.008274635300040245,-2.842526435852051,1023.3816,
2021.02.09 08:34:19,77.0,15.0,9.54,-33.0,-39.3,-0.19153613,0.46926352,9.835381,-0.026267206,-0.0036651916,0.007330383,-0.047666601836681366,0.019471734762191772,-2.8664908409118652,1023.3816,
2021.02.09 08:34:19,77.0,15.0,9.78,-32.82,-38.94,-0.107739076,0.5506664,9.682152,0.01038471,0.0012217305,0.016493361,-0.056809667497873306,0.011127137579023838,-2.8447060585021973,1023.38086,
2021.02.09 08:34:19,77.0,15.0,9.78,-32.7,-39.36,-0.1340753,0.5267244,9.595961,-0.0061086523,0.015271631,0.002443461,-0.054829854518175125,0.013971147127449512,-2.8476343154907227,1023.38086,
2021.02.09 08:34:19,77.0,15.0,9.9,-32.82,-39.3,-0.24420857,0.49799395,9.818622,0.005497787,-0.005497787,0.010995574,-0.05066026747226715,0.024866854771971703,-2.859492540359497,1023.38086,
2021.02.09 08:34:19,77.0,15.0,9.9,-32.76,-39.36,-0.1316811,0.545878,9.672575,0.021380283,0.002443461,0.014660766,-0.056370630860328674,0.01361302100121975,-2.843576192855835,1023.38086,
2021.02.09 08:34:19,77.0,15.0,9.78,-33.3,-39.54,-0.11731588,0.50996494,9.579201,0.009162978,0.0036651916,0.007941248,-0.05318250134587288,0.012246326543390751,-2.851562261581421,1023.3867,
2021.02.09 08:34:19,77.0,15.0,9.96,-33.78,-39.12,-0.20829555,0.46447513,9.744401,0.014049901,-0.0012217305,0.01282817,-0.04761892929673195,0.021372666582465172,-2.862828493118286,1023.3867,
2021.02.09 08:34:19,77.0,15.0,9.84,-34.26,-38.879997,-0.035913024,0.5674258,9.579201,0.0012217305,0.010995574,0.002443461,-0.05916563794016838,0.0037490450777113438,-2.8465588092803955,1023.3867,
2021.02.09 08:34:19,77.0,15.0,9.96,-33.899998,-39.239998,-0.22744916,0.50278234,9.7084875,-0.01282817,0.015271631,-0.004276057,-0.051727522164583206,0.023423584178090096,-2.864792585372925,1023.3867,
2021.02.09 08:34:19,77.0,15.0,10.0199995,-33.899998,-39.42,-0.21068975,0.533907,9.689334,0.0018325958,0.0018325958,0.01038471,-0.05503389611840248,0.021741077303886414,-2.8600142002105713,1023.3762,
2021.02.09 08:34:19,77.0,15.0,10.0199995,-33.48,-39.84,-0.10534488,0.5291186,9.600749,-0.016493361,0.010995574,0.007941248,-0.055053215473890305,0.010972128249704838,-2.8438925743103027,1023.3762,
2021.02.09 08:34:20,77.0,15.0,9.78,-33.3,-40.2,-0.15083471,0.49320555,9.85214,-0.008552114,-0.007941248,0.007330383,-0.05001314356923103,0.01530864555388689,-2.856283187866211,1023.3762,
2021.02.09 08:34:20,77.0,15.0,9.719999,-33.239998,-40.32,-0.095768064,0.557849,9.65821,0.007941248,0.002443461,0.007330383,-0.057692114263772964,0.009915390983223915,-2.8482511043548584,1023.3762,
2021.02.09 08:34:20,77.0,15.0,9.059999,-32.82,-40.14,-0.11492168,0.51954174,9.593566,-0.014049901,0.009773844,-0.0067195175,-0.054098501801490784,0.01197846420109272,-2.8682289123535156,1023.3784,
2021.02.09 08:34:20,77.0,15.0,8.94,-33.18,-40.2,-0.2657564,0.48362875,9.85214,-0.002443461,0.002443461,0.0,-0.049031518399715424,0.02696794457733631,-2.894709348678589,1023.3784,
2021.02.09 08:34:20,77.0,15.0,8.94,-32.82,-39.899998,-0.090979666,0.5626374,9.617508,0.007941248,0.005497787,0.005497787,-0.05843215808272362,0.009459514170885086,-2.8673033714294434,1023.3784,
2021.02.09 08:34:20,77.0,15.0,8.5199995,-33.12,-39.899998,-0.21547815,0.50996494,9.706094,0.0,0.0,-0.004276057,-0.052479520440101624,0.022196650505065918,-2.899980068206787,1023.3784,
2021.02.09 08:34:20,77.0,15.0,8.82,-33.239998,-40.2,-0.12210429,0.545878,9.739613,-0.01038471,0.002443461,0.0018325958,-0.05598423257470131,0.012536216527223587,-2.8789784908294678,1023.3782,
2021.02.09 08:34:20,77.0,15.0,8.46,-32.76,-40.14,-0.2753332,0.5267244,9.718064,0.010995574,-0.0061086523,-0.0012217305,-0.05412588641047478,0.02832452580332756,-2.906264543533325,1023.3782,
2021.02.09 08:34:20,77.0,15.0,8.76,-33.059998,-40.26,-0.02633622,0.5793968,9.615114,0.009162978,0.0012217305,0.008552114,-0.060185953974723816,0.0027390371542423964,-2.8659138679504395,1023.3782,
2021.02.09 08:34:20,77.0,15.0,8.46,-33.0,-40.2,-0.22266077,0.5315128,9.768343,-0.004276057,-0.002443461,-0.012217305,-0.05434407293796539,0.022790171205997467,-2.901139736175537,1023.3782,
2021.02.09 08:34:20,77.0,15.0,8.639999,-32.76,-39.899998,-0.12689269,0.58657944,9.639056,0.002443461,0.005497787,-0.0036651916,-0.060774240642786026,0.013163669966161251,-2.8796894550323486,1023.38354,
2021.02.09 08:34:20,77.0,15.0,8.94,-32.76,-39.6,-0.20590134,0.51714754,9.76116,0.0012217305,-0.0067195175,-0.014660766,-0.052918896079063416,0.021090814843773842,-2.882814884185791,1023.38354,
2021.02.09 08:34:20,77.0,15.0,9.0,-32.34,-39.719997,-0.08379706,0.5506664,9.698911,0.01038471,6.1086525E-4,-0.005497787,-0.056713104248046875,0.008639628067612648,-2.86095929145813,1023.38354,
2021.02.09 08:34:20,77.0,15.0,9.24,-31.92,-39.42,-0.19871874,0.521936,9.715671,0.009773844,-0.0067195175,-0.019547688,-0.05365825816988945,0.020450573414564133,-2.865410089492798,1023.38354,
2021.02.09 08:34:20,77.0,15.0,9.36,-31.8,-39.3,-0.19871874,0.5554548,9.739613,0.007941248,0.0012217305,-0.010995574,-0.0569569431245327,0.020400317385792732,-2.859299659729004,1023.38184,
2021.02.09 08:34:20,77.0,15.0,9.66,-32.46,-39.42,-0.16280572,0.5506664,9.67018,0.01282817,-0.004276057,-0.012217305,-0.0568753145635128,0.016834260895848274,-2.851726770401001,1023.38184,
2021.02.09 08:34:20,77.0,15.0,9.719999,-33.36,-38.879997,-0.22744916,0.5363012,9.615114,0.007330383,0.0061086523,-0.01038471,-0.05570360645651817,0.023650966584682465,-2.8661723136901855,1023.38184,
2021.02.09 08:34:20,77.0,15.0,10.08,-33.96,-39.0,-0.17238252,0.5386954,9.751583,0.013439035,-0.01160644,0.005497787,-0.055177148431539536,0.017675546929240227,-2.8540499210357666,1023.38184,
2021.02.09 08:34:20,77.0,15.0,10.38,-34.559998,-38.82,-0.1364695,0.60333884,9.787497,0.04642576,-0.014049901,0.005497787,-0.06155996024608612,0.013942345045506954,-2.8441874980926514,1023.3823,
2021.02.09 08:34:20,77.0,15.0,10.0199995,-34.68,-38.64,-0.04070143,0.61770403,9.660604,0.055588737,-0.0012217305,6.1086525E-4,-0.06385303288698196,0.004213110543787479,-2.8440158367156982,1023.3823,
2021.02.09 08:34:20,77.0,15.0,9.84,-34.38,-38.64,-0.19871874,0.5746084,9.78989,0.059864793,0.0061086523,-0.0067195175,-0.05861474946141243,0.020295575261116028,-2.8662450313568115,1023.3823,
2021.02.09 08:34:20,77.0,15.0,9.54,-34.26,-38.34,-0.15562311,0.60333884,9.560047,0.039095376,-0.0018325958,0.005497787,-0.06301852315664291,0.016277050599455833,-2.8680100440979004,1023.3823,
2021.02.09 08:34:20,77.0,15.0,9.3,-34.32,-38.46,-0.17477672,0.5602432,9.76116,0.036651913,-0.012217305,0.012217305,-0.05732307583093643,0.017903409898281097,-2.879154682159424,1023.3828,
2021.02.09 08:34:20,77.0,15.0,9.54,-33.899998,-38.579998,-0.055066638,0.62728083,9.531317,0.040317107,0.0018325958,-0.0012217305,-0.06571674346923828,0.005777378566563129,-2.8521885871887207,1023.3828,
2021.02.09 08:34:20,77.0,15.0,9.36,-33.6,-39.0,-0.20111294,0.6584055,9.457097,-0.036651913,-0.004886922,0.004886922,-0.06949243694543839,0.02126261778175831,-2.8714358806610107,1023.3828,
2021.02.09 08:34:21,77.0,15.0,9.48,-33.6,-39.3,-0.11731588,0.6679823,9.938332,-0.03970624,-0.0018325958,0.014049901,-0.06710712611675262,0.011803836561739445,-2.857551097869873,1023.3828,
2021.02.09 08:34:21,77.0,15.0,9.24,-33.3,-39.239998,-0.15562311,0.641646,9.797073,0.02687807,-0.017715093,0.01160644,-0.06539201736450195,0.015883317217230797,-2.8676135540008545,1023.3794,
2021.02.09 08:34:21,77.0,15.0,8.82,-33.36,-39.36,-0.055066638,0.6679823,9.478644,0.007330383,0.0018325958,0.01282817,-0.07035484164953232,0.0058094821870327,-2.867088556289673,1023.3794,
2021.02.09 08:34:21,77.0,15.0,8.76,-33.3,-39.18,-0.16519992,0.60333884,9.744401,-0.027488936,-0.014660766,0.005497787,-0.06182865425944328,0.01695169322192669,-2.884645462036133,1023.3794,
2021.02.09 08:34:21,77.0,15.0,8.7,-33.12,-38.94,-0.06703765,0.6895301,9.619903,-0.023823744,0.007941248,0.007330383,-0.07155334204435349,0.0069685280323028564,-2.869833469390869,1023.3794,
2021.02.09 08:34:21,77.0,15.0,8.82,-32.7,-39.18,-0.19632454,0.60094464,9.837775,-0.028710667,-0.012217305,0.004276057,-0.06099749729037285,0.019953545182943344,-2.881843328475952,1023.38184,
2021.02.09 08:34:21,77.0,15.0,9.059999,-32.579998,-39.3,-0.04309563,0.6392518,9.6845455,-0.004276057,-0.004276057,0.014660766,-0.06591115146875381,0.004449908621609211,-2.8529112339019775,1023.38184,
2021.02.09 08:34:21,77.0,15.0,9.179999,-32.399998,-39.3,-0.16519992,0.63206923,9.710882,-0.008552114,-0.018325957,0.0012217305,-0.06498768925666809,0.017010193318128586,-2.863150119781494,1023.38184,
2021.02.09 08:34:21,77.0,15.0,8.88,-32.7,-39.54,-0.06943185,0.6392518,9.662998,-0.014049901,-0.002443461,0.007941248,-0.06605664640665054,0.0071852076798677444,-2.8626744747161865,1023.38184,
2021.02.09 08:34:21,77.0,15.0,8.46,-33.0,-39.84,-0.10055647,0.60573304,9.7084875,-0.0067195175,-0.01282817,0.004276057,-0.06230800598859787,0.010357213206589222,-2.8832314014434814,1023.376,
2021.02.09 08:34:21,77.0,15.0,8.7,-33.18,-39.84,-0.007182605,0.62728083,9.615114,-0.015271631,0.0030543262,0.0012217305,-0.06514670699834824,7.470117998309433E-4,-2.864763021469116,1023.376,
2021.02.09 08:34:21,77.0,15.0,8.639999,-33.36,-39.719997,-0.08619126,0.59615624,9.665392,-0.028099801,-0.010995574,-0.014660766,-0.061598990112543106,0.008917276747524738,-2.8791866302490234,1023.376,
2021.02.09 08:34:21,77.0,15.0,9.0,-33.42,-39.48,-0.11971009,0.62488663,9.854534,-0.023823744,-0.0067195175,-0.005497787,-0.06332162767648697,0.012147119268774986,-2.872124433517456,1023.376,
2021.02.09 08:34:21,77.0,15.0,9.059999,-33.3,-39.42,-0.09816227,0.641646,9.65821,0.0018325958,-0.0061086523,-0.009773844,-0.06633439660072327,0.0101632596924901,-2.8658981323242188,1023.3821,
2021.02.09 08:34:21,77.0,15.0,8.7,-33.18,-39.42,-0.107739076,0.59376204,9.610326,-0.002443461,-0.0036651916,-0.005497787,-0.0617014542222023,0.01121029257774353,-2.8786745071411133,1023.3821,
2021.02.09 08:34:21,77.0,15.0,8.5199995,-33.3,-39.18,-0.11252748,0.61530983,9.744401,-0.03176499,-0.0012217305,-0.013439035,-0.0630570501089096,0.011547397822141647,-2.8851027488708496,1023.3821,
2021.02.09 08:34:21,77.0,15.0,8.4,-33.18,-39.6,-0.033518825,0.61770403,9.77792,-0.009162978,-0.002443461,-0.009773844,-0.06308914721012115,0.0034279983956366777,-2.877941370010376,1023.3821,
2021.02.09 08:34:21,77.0,15.0,8.58,-33.18,-39.3,-0.10055647,0.58418524,9.631873,0.015882496,-0.012217305,-0.012217305,-0.060573760420084,0.01043959055095911,-2.881800651550293,1023.37915,
2021.02.09 08:34:21,77.0,15.0,9.0,-33.12,-39.42,-0.06943185,0.581791,9.387665,-0.049480084,0.0018325958,-0.014660766,-0.06189313903450966,0.0073959375731647015,-2.8644628524780273,1023.37915,
2021.02.09 08:34:21,77.0,15.0,9.179999,-33.12,-40.02,-0.21308395,0.51714754,10.031705,-0.031154128,-0.03359759,0.012217305,-0.05149412900209427,0.02123785763978958,-2.8791961669921875,1023.37915,
2021.02.09 08:34:21,77.0,15.0,9.12,-32.76,-39.96,0.06464344,0.6751649,9.574412,-0.005497787,-0.0018325958,0.0036651916,-0.07039949297904968,-0.00675158528611064,-2.837047815322876,1023.37915,
2021.02.09 08:34:21,77.0,15.0,9.12,-32.76,-40.2,-0.038307227,0.50517654,9.703699,-0.02443461,-0.004276057,-0.022602014,-0.0520128458738327,0.00394767289981246,-2.8569178581237793,1023.3855,
2021.02.09 08:34:21,77.0,15.0,8.58,-32.82,-39.96,-0.045489833,0.48362875,9.713276,0.0030543262,0.004276057,-0.0061086523,-0.04974886029958725,0.004683229606598616,-2.875479221343994,1023.3855,
2021.02.09 08:34:21,77.0,15.0,8.4,-32.7,-39.899998,-0.06464344,0.5267244,9.562442,-0.007330383,0.0067195175,-0.0067195175,-0.05502576753497124,0.006760037038475275,-2.8807058334350586,1023.3855,
2021.02.09 08:34:21,77.0,15.0,8.58,-33.18,-39.6,-0.079008654,0.5315128,9.665392,-0.015882496,0.0012217305,-0.007941248,-0.054934170097112656,0.008174204267561436,-2.8809242248535156,1023.3855,
2021.02.09 08:34:22,77.0,15.0,8.7,-33.36,-39.78,0.0,0.59136784,9.801862,-0.0012217305,0.0030543262,-0.009773844,-0.06025915592908859,1.0E-6,-2.867176055908203,1023.3899,
2021.02.09 08:34:22,77.0,15.0,9.059999,-33.42,-39.6,-0.093373865,0.51475334,9.727641,0.015271631,0.007330383,-0.02076942,-0.05286482721567154,0.009598524309694767,-2.87089467048645,1023.3899,
2021.02.09 08:34:22,77.0,15.0,9.599999,-33.6,-39.36,-0.14844051,0.5267244,9.622296,0.03604105,6.1086525E-4,-0.009773844,-0.05467892065644264,0.015425501391291618,-2.8626182079315186,1023.3899,
2021.02.09 08:34:22,77.0,15.0,9.3,-33.36,-39.719997,-0.14604631,0.5434838,9.586384,0.02443461,0.02076942,-0.02565634,-0.05662612244486809,0.01523358654230833,-2.8685944080352783,1023.3899,
2021.02.09 08:34:22,77.0,15.0,9.24,-33.0,-39.18,-0.10295067,0.58897364,9.8042555,0.044593163,0.026267206,-0.023823744,-0.059997860342264175,0.010500225238502026,-2.8605942726135254,1023.3889,
2021.02.09 08:34:22,77.0,15.0,9.42,-32.82,-39.54,-0.062249243,0.62249243,9.698911,0.070249505,0.021991149,-0.02687807,-0.06409245729446411,0.006418080069124699,-2.8470678329467773,1023.3889,
2021.02.09 08:34:22,77.0,15.0,9.3,-32.46,-39.54,-0.18195933,0.60812724,9.698911,0.07391469,0.013439035,-0.02321288,-0.06260760873556137,0.01875860057771206,-2.862971782684326,1023.3889,
2021.02.09 08:34:22,77.0,15.0,9.66,-32.64,-39.42,-0.10534488,0.6991069,9.504981,0.06291912,0.014049901,-0.014660766,-0.07341493666172028,0.011082669720053673,-2.8400609493255615,1023.3889,
2021.02.09 08:34:22,77.0,15.0,10.139999,-32.94,-39.66,-0.14844051,0.6679823,9.581595,0.017104227,0.032986723,-0.022602014,-0.06959420442581177,0.01549101434648037,-2.8350563049316406,1023.396,
2021.02.09 08:34:22,77.0,15.0,10.2,-33.42,-39.059998,-0.24899697,0.62967503,9.765948,0.017104227,0.012217305,-0.01160644,-0.06436660140752792,0.02549092285335064,-2.851494312286377,1023.396,
2021.02.09 08:34:22,77.0,15.0,9.84,-33.96,-39.3,-0.06703765,0.7158663,9.627085,0.030543262,0.012217305,0.007941248,-0.07422122359275818,0.006963329389691353,-2.84179949760437,1023.396,
2021.02.09 08:34:22,77.0,15.0,9.66,-33.6,-39.54,-0.1340753,0.6943185,9.715671,0.03481932,-0.002443461,-6.1086525E-4,-0.07133571803569794,0.013799025677144527,-2.85290789604187,1023.396,
2021.02.09 08:34:22,77.0,15.0,9.42,-33.66,-39.3,-0.12449849,0.7541735,9.500193,0.016493361,0.025045475,-0.0012217305,-0.07921217381954193,0.013104087673127651,-2.8569724559783936,1023.3943,
2021.02.09 08:34:22,77.0,15.0,9.179999,-32.94,-39.36,-0.20590134,0.6703765,9.873688,-6.1086525E-4,-0.0061086523,6.1086525E-4,-0.06777652353048325,0.020850516855716705,-2.8714981079101562,1023.3943,
2021.02.09 08:34:22,77.0,15.0,9.3,-32.88,-39.18,-0.076614454,0.770933,9.478644,0.03359759,0.015882496,0.018325957,-0.08115240186452866,0.008082672953605652,-2.8468494415283203,1023.3943,
2021.02.09 08:34:22,77.0,15.0,9.36,-33.18,-38.7,-0.17956513,0.6823475,9.564836,-0.0061086523,0.010995574,0.002443461,-0.07120601087808609,0.01877126283943653,-2.8643274307250977,1023.3943,
2021.02.09 08:34:22,77.0,15.0,9.179999,-33.3,-39.0,-0.12689269,0.6823475,9.7563715,-0.009162978,-0.0036651916,0.017104227,-0.06981907039880753,0.013005401007831097,-2.8644886016845703,1023.3948,
2021.02.09 08:34:22,77.0,15.0,9.24,-33.719997,-39.18,-0.11492168,0.7398083,9.397242,0.023823744,-6.1086525E-4,0.02443461,-0.07855822890996933,0.012228690087795258,-2.86218523979187,1023.3948,
2021.02.09 08:34:22,77.0,15.0,9.42,-33.36,-39.48,-0.047884032,0.82360536,9.579201,-0.08674286,0.023823744,0.015271631,-0.0857665166258812,0.004998708609491587,-2.841947555541992,1023.3948,
2021.02.09 08:34:22,77.0,15.0,9.84,-33.42,-39.54,-0.21068975,0.7565677,9.983821,-0.035430185,0.030543262,0.019547688,-0.07561805099248886,0.021099986508488655,-2.8529562950134277,1023.3948,
2021.02.09 08:34:22,77.0,15.0,9.96,-33.36,-39.3,-0.1364695,0.7398083,9.763555,0.0030543262,0.034208454,0.018936822,-0.07562056928873062,0.01397653017193079,-2.8403453826904297,1023.38745,
2021.02.09 08:34:22,77.0,15.0,9.84,-33.3,-39.239998,-0.20111294,0.6392518,9.768343,0.04153884,0.036651913,0.013439035,-0.06533418595790863,0.020585326477885246,-2.855114698410034,1023.38745,
2021.02.09 08:34:22,77.0,15.0,9.719999,-33.78,-38.94,-0.45968673,0.5770026,9.334992,-0.12889257,-0.10262536,0.073303826,-0.06165765970945358,0.049203649163246155,-2.8974995613098145,1023.38745,
2021.02.09 08:34:22,77.0,15.0,9.96,-34.02,-38.579998,-0.1604115,0.7278373,9.911995,-0.030543262,-0.016493361,0.08552113,-0.07328884303569794,0.01618216186761856,-2.8499374389648438,1023.38745,
2021.02.09 08:34:22,77.0,15.0,9.84,-33.78,-38.579998,-0.08379706,0.7733272,9.7084875,0.010995574,0.018325957,0.08246681,-0.07948397099971771,0.008631105534732342,-2.8404033184051514,1023.3904,
2021.02.09 08:34:23,77.0,15.0,9.9,-33.78,-38.879997,0.011971008,0.82360536,9.945514,0.0012217305,0.04337143,0.070249505,-0.08262316137552261,-0.0012036585249006748,-2.825928211212158,1023.3904,
2021.02.09 08:34:23,77.0,15.0,9.719999,-33.48,-39.12,-0.25617957,0.5554548,9.950302,0.09407325,0.099571034,0.07574729,-0.055746596306562424,0.02574022300541401,-2.869649887084961,1023.3904,
