Time,X-cord,Y-cord,Mag_x,Mag_y,Mag_z,Acc_x,Acc_y,Acc_z,Gyro_x,Gyro_y,Gyro_z,Orn_x,Orn_y,Orn_z,Pressure,
2021.02.09 08:20:08,15.0,24.0,25.26,0.12,-40.92,-0.15801731,0.34955344,9.466674,0.105068825,-0.01038471,0.062308256,-0.03690272942185402,0.016690406948328018,-1.5039550065994263,1023.24976,
2021.02.09 08:20:08,15.0,24.0,25.56,-0.12,-41.34,0.1388637,0.51235914,9.662998,0.050701816,-0.037873644,0.1020145,-0.05296773090958595,-0.01436967495828867,-1.492598533630371,1023.24976,
2021.02.09 08:20:08,15.0,24.0,25.56,-0.35999998,-41.16,-0.4141969,0.34237084,9.454702,0.031154128,-0.042760566,0.03726278,-0.03616122528910637,0.04378056526184082,-1.5216524600982666,1023.24976,
2021.02.09 08:20:08,15.0,24.0,25.8,-0.17999999,-41.219997,-0.19871874,0.40462008,9.77792,-0.0067195175,-0.07391469,0.092240654,-0.04134887829422951,0.020320413634181023,-1.50895357131958,1023.24976,
2021.02.09 08:20:08,15.0,24.0,26.22,-0.35999998,-41.399998,0.15801731,0.59376204,9.799467,0.017715093,-0.06352998,0.13255776,-0.06050942465662956,-0.0161236934363842,-1.4921637773513794,1023.2471,
2021.02.09 08:20:08,15.0,24.0,25.859999,-0.48,-41.16,-0.0047884034,0.45729253,9.593566,0.03604105,-0.050701816,0.06658431,-0.04763052612543106,4.991265013813972E-4,-1.5135477781295776,1023.2471,
2021.02.09 08:20:09,15.0,24.0,25.74,-0.53999996,-41.399998,-0.1388637,0.46686932,9.682152,0.021991149,-0.043982297,0.04642576,-0.048177316784858704,0.014341252855956554,-1.5123207569122314,1023.2471,
2021.02.09 08:20:09,15.0,24.0,25.8,-0.71999997,-40.98,0.07182605,0.35913026,9.742006,0.009773844,-0.0720821,0.06047566,-0.03684641048312187,-0.007372685708105564,-1.5408045053482056,1023.2471,
2021.02.09 08:20:09,15.0,24.0,25.32,-1.1999999,-40.8,-0.11252748,0.50517654,9.3182335,0.04153884,-0.01160644,0.03481932,-0.05415680259466171,0.012075466103851795,-1.529464602470398,1023.25635,
2021.02.09 08:20:09,15.0,24.0,25.14,-1.1999999,-41.1,-0.12210429,0.50038815,9.651027,-0.021991149,-0.007330383,0.015882496,-0.05179765447974205,0.012651272118091583,-1.5323946475982666,1023.25635,
2021.02.09 08:20:09,15.0,24.0,25.199999,-0.96,-40.68,-0.090979666,0.4189853,9.940725,-0.06536258,-0.002443461,0.004886922,-0.04212166741490364,0.009151960723102093,-1.5400530099868774,1023.25635,
2021.02.09 08:20:09,15.0,24.0,24.66,-1.0799999,-41.04,-0.20590134,0.56982,9.770737,-0.018936822,0.009773844,-6.1086525E-4,-0.05824016034603119,0.021070148795843124,-1.5145138502120972,1023.25635,
2021.02.09 08:20:09,15.0,24.0,25.32,-0.78,-41.219997,-0.2753332,0.4141969,9.634268,0.02443461,0.049480084,0.025045475,-0.04294808208942413,0.0285707525908947,-1.5285199880599976,1023.24805,
2021.02.09 08:20:09,15.0,24.0,25.38,-0.78,-41.04,-0.11252748,0.46926352,9.694122,-0.03176499,0.0036651916,0.01038471,-0.0483660027384758,0.011607284657657146,-1.5218758583068848,1023.24805,
2021.02.09 08:20:09,15.0,24.0,25.5,-0.96,-41.34,-0.050278235,0.47405192,9.753978,-0.009162978,0.023823744,0.02443461,-0.04856202378869057,0.0051545933820307255,-1.5291283130645752,1023.24805,
2021.02.09 08:20:09,15.0,24.0,26.16,-1.3199999,-40.98,-0.076614454,0.45250413,9.576807,0.02076942,0.016493361,0.007330383,-0.047213371843099594,0.007999829016625881,-1.5465912818908691,1023.24805,
2021.02.09 08:20:09,15.0,24.0,25.92,-1.62,-40.379997,-0.01436521,0.49559975,9.579201,0.0018325958,0.02076942,0.025045475,-0.05169092118740082,0.0014996241079643369,-1.552603006362915,1023.2495,
2021.02.09 08:20:09,15.0,24.0,26.099998,-1.56,-40.32,-0.17477672,0.48362875,9.85214,-0.028710667,0.007330383,-0.014049901,-0.04904162138700485,0.017738115042448044,-1.5534296035766602,1023.2495,
2021.02.09 08:20:09,15.0,24.0,26.099998,-1.62,-40.2,-0.016759412,0.5434838,9.619903,6.1086525E-4,0.032375857,-0.009162978,-0.05643569305539131,0.0017421585507690907,-1.5457284450531006,1023.2495,
2021.02.09 08:20:09,15.0,24.0,25.92,-1.68,-40.44,0.009576807,0.4309563,9.797073,-0.002443461,-0.0018325958,-0.01282817,-0.043959908187389374,-9.775167563930154E-4,-1.5670337677001953,1023.2495,
2021.02.09 08:20:09,15.0,24.0,25.98,-1.8,-40.5,-0.11252748,0.47165772,9.77792,-0.0012217305,0.015271631,-0.026267206,-0.04819647595286369,0.01150781661272049,-1.5642282962799072,1023.2488,
2021.02.09 08:20:09,15.0,24.0,25.859999,-1.5,-40.62,-0.045489833,0.46926352,9.787497,0.015271631,-0.0061086523,-0.021380283,-0.0479080006480217,0.004647715948522091,-1.5531620979309082,1023.2488,
2021.02.09 08:20:09,15.0,24.0,25.56,-1.1999999,-40.5,-0.074220255,0.49559975,9.694122,0.019547688,0.002443461,-0.018325957,-0.051077768206596375,0.00765606202185154,-1.5359876155853271,1023.2488,
2021.02.09 08:20:09,15.0,24.0,25.38,-1.14,-40.44,-0.107739076,0.45968673,9.689334,-0.007330383,0.005497787,-0.028710667,-0.047404080629348755,0.011118889786303043,-1.5390831232070923,1023.2488,
2021.02.09 08:20:09,15.0,24.0,24.9,-0.78,-40.32,-0.10055647,0.4165911,9.840169,-0.01160644,-0.007941248,-0.028710667,-0.04230829328298569,0.010218622162938118,-1.5325602293014526,1023.2378,
2021.02.09 08:20:09,15.0,24.0,24.779999,-1.26,-40.14,0.0,0.45968673,9.67018,0.019547688,0.0012217305,-0.021991149,-0.04750075936317444,1.0E-6,-1.5446770191192627,1023.2378,
2021.02.09 08:20:09,15.0,24.0,24.779999,-1.68,-40.32,-0.074220255,0.47165772,9.555259,0.009162978,-0.0036651916,-0.027488936,-0.0493195466697216,0.0077673206105828285,-1.5577492713928223,1023.2378,
2021.02.09 08:20:09,15.0,24.0,24.539999,-1.0799999,-40.62,-0.19871874,0.3854665,9.935937,-0.043982297,0.0018325958,-0.037873644,-0.038767993450164795,0.019997334107756615,-1.549138069152832,1023.2378,
2021.02.09 08:20:09,15.0,24.0,25.08,-1.1999999,-40.559998,-0.074220255,0.40701428,9.7803135,-0.002443461,-0.009773844,-0.02076942,-0.04159047082066536,0.0075885942205786705,-1.5508031845092773,1023.2422,
2021.02.09 08:20:09,15.0,24.0,25.38,-1.38,-40.8,-0.079008654,0.4261679,9.454702,0.020158553,0.004886922,-0.012217305,-0.04504264518618584,0.008356350474059582,-1.5521068572998047,1023.2422,
2021.02.09 08:20:09,15.0,24.0,25.439999,-1.5,-40.8,-0.1316811,0.35913026,9.828198,-0.048258353,-0.0018325958,-0.022602014,-0.03652127832174301,0.013397494331002235,-1.5706738233566284,1023.2422,
2021.02.09 08:20:10,15.0,24.0,25.98,-2.28,-40.079998,-0.14844051,0.39504328,9.811439,-0.02687807,-0.002443461,-0.012217305,-0.04023720696568489,0.015128177590668201,-1.5964210033416748,1023.2422,
2021.02.09 08:20:10,15.0,24.0,25.859999,-1.56,-40.62,-0.12210429,0.40462008,9.792285,0.0012217305,0.0018325958,-0.008552114,-0.041293591260910034,0.012468790635466576,-1.565614104270935,1023.2446,
2021.02.09 08:20:10,15.0,24.0,26.4,-1.1999999,-40.32,-0.14844051,0.34476504,9.581595,0.0012217305,0.007941248,-0.004276057,-0.03596217930316925,0.01549101434648037,-1.5605148077011108,1023.2446,
2021.02.09 08:20:10,15.0,24.0,26.88,-0.71999997,-40.26,-0.08379706,0.36870706,9.720459,-0.0061086523,-0.0030543262,0.02076942,-0.03791145235300064,0.00862047541886568,-1.5400810241699219,1023.2446,
2021.02.09 08:20:10,15.0,24.0,26.58,-0.17999999,-40.8,-0.007182605,0.4405331,9.770737,-0.026267206,-0.004276057,0.026267206,-0.04505646228790283,7.35113862901926E-4,-1.5084011554718018,1023.2446,
2021.02.09 08:20:10,15.0,24.0,26.279999,-0.78,-40.32,-0.093373865,0.4141969,9.775525,-0.031154128,0.01282817,-0.0030543262,-0.04234354943037033,0.009551510214805603,-1.5345860719680786,1023.24146,
2021.02.09 08:20:10,15.0,24.0,25.32,-0.53999996,-40.62,-0.11252748,0.35673606,9.813833,-0.01282817,0.004886922,-0.0030543262,-0.036331940442323685,0.0114657087251544,-1.5327389240264893,1023.24146,
2021.02.09 08:20:10,15.0,24.0,24.9,-0.78,-40.62,-0.0047884034,0.38307226,9.811439,-0.01160644,-0.0030543262,0.005497787,-0.039023611694574356,4.8804288962855935E-4,-1.5384202003479004,1023.24146,
2021.02.09 08:20:10,15.0,24.0,25.08,-0.9,-40.8,-0.031124622,0.4261679,9.739613,0.01038471,0.0,0.007941248,-0.04372802749276161,0.0031956625171005726,-1.5352238416671753,1023.24146,
2021.02.09 08:20:10,15.0,24.0,24.9,-0.65999997,-41.28,-0.074220255,0.44532153,9.7324295,-0.009162978,0.009162978,-0.0036651916,-0.045723237097263336,0.0076259286142885685,-1.520558476448059,1023.2429,
2021.02.09 08:20:10,15.0,24.0,25.32,-1.02,-41.04,-0.12210429,0.40222588,9.842564,-0.008552114,0.010995574,-0.012217305,-0.04084010049700737,0.01240510493516922,-1.5438305139541626,1023.2429,
2021.02.09 08:20:10,15.0,24.0,25.08,-0.84,-41.16,-0.059855044,0.40940848,9.78989,0.019547688,-0.0012217305,0.002443461,-0.04179438576102257,0.00611388823017478,-1.5350910425186157,1023.2429,
2021.02.09 08:20:10,15.0,24.0,25.14,-1.0799999,-40.739998,0.0,0.44532153,9.627085,0.021991149,-0.002443461,0.004886922,-0.0462242029607296,1.0E-6,-1.5388399362564087,1023.2429,
2021.02.09 08:20:10,15.0,24.0,25.74,-1.26,-40.5,-0.055066638,0.4309563,9.7563715,-0.0067195175,-6.1086525E-4,-0.005497787,-0.04414238780736923,0.0056441123597323895,-1.5498360395431519,1023.2478,
2021.02.09 08:20:10,15.0,24.0,25.619999,-0.96,-40.62,-0.12689269,0.4405331,9.765948,-0.0018325958,0.004886922,-0.009162978,-0.045074738562107086,0.012992650270462036,-1.5354928970336914,1023.2478,
2021.02.09 08:20:10,15.0,24.0,26.039999,-0.78,-40.26,-0.074220255,0.47165772,9.7563715,0.004276057,-0.0018325958,-0.004276057,-0.04830455780029297,0.00760721554979682,-1.5251898765563965,1023.2478,
2021.02.09 08:20:10,15.0,24.0,26.16,-0.71999997,-40.44,-0.047884032,0.48362875,9.737218,0.0,0.004276057,-0.005497787,-0.049626678228378296,0.0049175904132425785,-1.5210192203521729,1023.2478,
2021.02.09 08:20:10,15.0,24.0,25.619999,-0.71999997,-40.379997,-0.06943185,0.4309563,9.773131,-0.002443461,-0.0012217305,-0.007941248,-0.04406637325882912,0.007104241289198399,-1.5286818742752075,1023.2429,
2021.02.09 08:20:10,15.0,24.0,25.74,-1.14,-40.379997,-0.038307227,0.47644615,9.828198,-0.008552114,6.1086525E-4,-0.0018325958,-0.04843917116522789,0.0038976657669991255,-1.538699746131897,1023.2429,
2021.02.09 08:20:10,15.0,24.0,25.68,-1.3199999,-40.44,0.021547815,0.49559975,9.703699,0.010995574,-0.004276057,0.0,-0.051028817892074585,-0.002220573602244258,-1.542029619216919,1023.2429,
2021.02.09 08:20:10,15.0,24.0,25.38,-1.0799999,-40.32,-0.107739076,0.4213795,9.782708,0.0018325958,-0.004276057,-0.018936822,-0.043044693768024445,0.011012770235538483,-1.544014573097229,1023.2429,
2021.02.09 08:20:10,15.0,24.0,25.68,-0.9,-39.84,-0.095768064,0.47644615,9.622296,0.013439035,-0.0036651916,-0.015882496,-0.04947195202112198,0.009952396154403687,-1.5279544591903687,1023.24194,
2021.02.09 08:20:10,15.0,24.0,25.32,-0.42,-40.02,-0.090979666,0.47644615,9.873688,-0.0061086523,0.0036651916,-0.016493361,-0.04821468144655228,0.009214094839990139,-1.509932041168213,1023.24194,
2021.02.09 08:20:10,15.0,24.0,25.5,-0.53999996,-40.14,-0.10295067,0.4237737,9.7084875,0.007330383,-0.005497787,-0.018325957,-0.04361967742443085,0.010603794828057289,-1.5220754146575928,1023.24194,
2021.02.09 08:20:10,15.0,24.0,25.26,-0.59999996,-40.32,-0.1364695,0.46447513,9.809045,0.016493361,-0.005497787,-0.005497787,-0.047311801463365555,0.013911720365285873,-1.5172368288040161,1023.24194,
2021.02.09 08:20:11,15.0,24.0,25.32,-0.65999997,-40.92,-0.04309563,0.51714754,9.667787,0.031154128,-0.01160644,0.0061086523,-0.053440362215042114,0.004457622766494751,-1.5098991394042969,1023.23706,
2021.02.09 08:20:11,15.0,24.0,25.619999,-1.1999999,-40.68,-0.10295067,0.50278234,9.775525,0.014660766,-0.009162978,0.005497787,-0.05138464272022247,0.01053108274936676,-1.534895658493042,1023.23706,
2021.02.09 08:20:11,15.0,24.0,25.199999,-1.26,-40.62,-0.18435353,0.45010993,9.64145,0.02321288,0.002443461,6.1086525E-4,-0.0466424934566021,0.01911860518157482,-1.5438802242279053,1023.23706,
2021.02.09 08:20:11,15.0,24.0,25.38,-1.3199999,-40.44,0.0047884034,0.50996494,9.770737,0.02321288,-0.008552114,0.020158553,-0.05214577168226242,-4.90075908601284E-4,-1.53974449634552,1023.23706,
2021.02.09 08:20:11,15.0,24.0,25.439999,-0.9,-40.32,-0.038307227,0.50996494,9.653421,0.044593163,-0.01160644,0.018936822,-0.05277790129184723,0.003968232776969671,-1.5220379829406738,1023.23975,
2021.02.09 08:20:11,15.0,24.0,25.439999,-0.9,-40.379997,-0.06703765,0.51475334,9.617508,0.030543262,6.1086525E-4,0.018325957,-0.05347021296620369,0.006970263551920652,-1.5204052925109863,1023.23975,
2021.02.09 08:20:11,15.0,24.0,25.68,-0.96,-40.5,-0.10055647,0.50517654,9.775525,-0.009773844,-0.005497787,0.0067195175,-0.05162903293967247,0.010286192409694195,-1.5255085229873657,1023.23975,
2021.02.09 08:20:11,15.0,24.0,25.5,-0.9,-40.26,-0.059855044,0.51235914,9.710882,-0.015271631,-0.0012217305,0.01282817,-0.05271146818995476,0.006163630168884993,-1.5220980644226074,1023.23975,
2021.02.09 08:20:11,15.0,24.0,25.199999,-1.5,-40.32,-0.107739076,0.49081135,9.7084875,0.005497787,0.0012217305,0.018936822,-0.050508759915828705,0.0110969552770257,-1.5485159158706665,1023.2427,
2021.02.09 08:20:11,15.0,24.0,24.779999,-0.96,-40.26,-0.0047884034,0.521936,9.617508,0.0018325958,-0.007941248,0.021380283,-0.0542161725461483,4.978839424438775E-4,-1.5214117765426636,1023.2427,
2021.02.09 08:20:11,15.0,24.0,24.779999,-1.02,-40.26,-0.088585466,0.48602295,9.856929,-0.02321288,-0.0012217305,0.014660766,-0.04926586151123047,0.0089868837967515,-1.5308961868286133,1023.2427,
2021.02.09 08:20:11,15.0,24.0,25.199999,-0.96,-40.92,-0.07182605,0.533907,9.653421,0.018936822,0.0067195175,0.0030543262,-0.05524972081184387,0.007440338842570782,-1.518166422843933,1023.2427,
2021.02.09 08:20:11,15.0,24.0,25.08,-0.48,-41.04,0.023942016,0.5506664,9.718064,-0.0012217305,-0.008552114,0.0036651916,-0.056603506207466125,-0.002463656011968851,-1.497893214225769,1023.2434,
2021.02.09 08:20:11,15.0,24.0,25.14,-0.65999997,-41.34,-0.05267244,0.50996494,9.962274,0.0018325958,0.0,-0.012217305,-0.05114426091313362,0.005287141539156437,-1.5122379064559937,1023.2434,
2021.02.09 08:20:11,15.0,24.0,25.08,-0.35999998,-41.16,-0.10295067,0.5315128,9.531317,0.03359759,0.012217305,-0.017104227,-0.05570394545793533,0.01080088596791029,-1.4919192790985107,1023.2434,
2021.02.09 08:20:11,15.0,24.0,24.96,-0.35999998,-41.28,-0.05746084,0.51954174,9.6845455,-0.01160644,-0.0018325958,-0.007941248,-0.053594157099723816,0.005933181382715702,-1.4956902265548706,1023.2434,
2021.02.09 08:20:11,15.0,24.0,24.96,-0.48,-41.1,-0.06703765,0.5267244,9.911995,-0.017715093,-0.004276057,-0.009162978,-0.0530889518558979,0.0067631821148097515,-1.501603364944458,1023.2473,
2021.02.09 08:20:11,15.0,24.0,25.439999,-0.35999998,-40.86,-0.02633622,0.51475334,9.593566,0.029932396,-0.0061086523,-0.01038471,-0.053604498505592346,0.002745189005509019,-1.4985320568084717,1023.2473,
2021.02.09 08:20:11,15.0,24.0,25.26,-0.48,-41.04,-0.06464344,0.51714754,9.696517,0.014660766,-0.009162978,-0.013439035,-0.05328166484832764,0.006666567176580429,-1.5022552013397217,1023.2473,
2021.02.09 08:20:11,15.0,24.0,25.32,-0.06,-40.92,-0.16998832,0.46208093,9.785102,-0.0030543262,-6.1086525E-4,-0.017104227,-0.04718073830008507,0.01737041026353836,-1.4941169023513794,1023.2473,
2021.02.09 08:20:11,15.0,24.0,25.26,-0.06,-40.98,-0.107739076,0.5602432,9.562442,0.028710667,0.015271631,0.028099801,-0.058517277240753174,0.011266423389315605,-1.476177453994751,1023.2554,
2021.02.09 08:20:11,15.0,24.0,24.539999,-0.29999998,-40.559998,-0.019153614,0.5386954,9.564836,0.023823744,-0.016493361,-6.1086525E-4,-0.0562608540058136,0.0020025004632771015,-1.4898585081100464,1023.2554,
2021.02.09 08:20:11,15.0,24.0,24.42,-0.24,-40.379997,-0.050278235,0.5267244,9.605537,6.1086525E-4,-0.0012217305,0.0012217305,-0.05477987974882126,0.0052342489361763,-1.4892603158950806,1023.2554,
2021.02.09 08:20:11,15.0,24.0,24.3,-0.71999997,-40.02,-0.059855044,0.545878,9.751583,-0.031154128,-0.0018325958,-0.009773844,-0.05591898411512375,0.006137905176728964,-1.5074349641799927,1023.2554,
2021.02.09 08:20:11,15.0,24.0,24.0,-1.02,-39.78,-0.14604631,0.50996494,9.737218,0.025045475,-0.0012217305,0.0,-0.05231907591223717,0.014997647143900394,-1.5246644020080566,1023.24854,
2021.02.09 08:20:12,15.0,24.0,24.6,-1.14,-40.44,-0.0047884034,0.58657944,9.478644,-0.004276057,0.0012217305,0.009162978,-0.06180549040436745,5.051780608482659E-4,-1.5154911279678345,1023.24854,
2021.02.09 08:20:12,15.0,24.0,24.779999,-1.4399999,-40.86,-0.12928689,0.47165772,9.751583,-0.025045475,0.0018325958,-0.004276057,-0.048325397074222565,0.013257264159619808,-1.548058032989502,1023.24854,
2021.02.09 08:20:12,15.0,24.0,24.84,-1.5,-40.98,-0.045489833,0.5267244,9.603143,0.0,0.0018325958,0.014660766,-0.054793648421764374,0.004736938048154116,-1.5402531623840332,1023.24854,
2021.02.09 08:20:12,15.0,24.0,25.439999,-1.5,-40.98,-0.038307227,0.5722142,9.7084875,-0.029321533,-0.0061086523,0.0030543262,-0.05887101590633392,0.003945725504308939,-1.534432053565979,1023.2324,
2021.02.09 08:20:12,15.0,24.0,25.26,-1.3199999,-40.739998,-0.038307227,0.5243302,9.689334,-0.017104227,0.005497787,0.005497787,-0.05406101047992706,0.003953525330871344,-1.5354037284851074,1023.2324,
2021.02.09 08:20:12,15.0,24.0,25.56,-1.26,-40.079998,-0.04070143,0.521936,9.555259,-0.01282817,0.0061086523,0.008552114,-0.054568178951740265,0.0042595588602125645,-1.534033179283142,1023.2324,
2021.02.09 08:20:12,15.0,24.0,25.38,-1.26,-40.079998,-0.01436521,0.5243302,9.667787,-0.039095376,0.002443461,0.004886922,-0.05418163165450096,0.0014858830254524946,-1.5346977710723877,1023.2324,
2021.02.09 08:20:12,15.0,24.0,25.26,-1.3199999,-40.26,-0.038307227,0.5291186,9.744401,-0.031154128,0.008552114,-0.005497787,-0.05424606800079346,0.003931183367967606,-1.5361436605453491,1023.24243,
2021.02.09 08:20:12,15.0,24.0,25.14,-1.74,-40.26,-0.10295067,0.45968673,9.727641,-0.01038471,-0.002443461,0.0018325958,-0.0472179539501667,0.010582918301224709,-1.5637279748916626,1023.24243,
2021.02.09 08:20:12,15.0,24.0,25.26,-1.92,-40.5,0.031124622,0.5386954,9.682152,-0.013439035,0.0036651916,0.005497787,-0.055580392479896545,-0.0032146277371793985,-1.557867169380188,1023.24243,
2021.02.09 08:20:12,15.0,24.0,25.199999,-1.62,-40.559998,-0.059855044,0.46208093,9.854534,0.0,-0.0067195175,-0.01038471,-0.046855002641677856,0.006073783617466688,-1.5592290163040161,1023.24243,
2021.02.09 08:20:12,15.0,24.0,25.26,-1.68,-40.5,0.050278235,0.5386954,9.651027,0.014049901,0.0030543262,-0.0018325958,-0.05575880780816078,-0.005209578201174736,-1.5483307838439941,1023.2478,
2021.02.09 08:20:12,15.0,24.0,25.439999,-1.14,-40.739998,-0.05267244,0.44771573,9.701305,6.1086525E-4,0.009162978,-0.017715093,-0.04611664637923241,0.005429364275187254,-1.541236162185669,1023.2478,
2021.02.09 08:20:12,15.0,24.0,25.019999,-0.84,-41.16,-0.074220255,0.48362875,9.8042555,0.014049901,-0.004886922,-0.013439035,-0.0492870919406414,0.007570063695311546,-1.5223422050476074,1023.2478,
2021.02.09 08:20:12,15.0,24.0,25.08,-0.96,-41.28,-0.01436521,0.48602295,9.706094,0.030543262,-0.002443461,-0.01160644,-0.05003215745091438,0.0014800186036154628,-1.5265578031539917,1023.2478,
2021.02.09 08:20:12,15.0,24.0,25.08,-0.42,-41.64,-0.05746084,0.47405192,9.540894,0.017715093,0.018936822,-0.018936822,-0.0496445931494236,0.0060225119814276695,-1.5042651891708374,1023.25635,
2021.02.09 08:20:12,15.0,24.0,25.019999,-0.17999999,-41.579998,-0.12210429,0.4213795,9.710882,-0.020158553,-0.010995574,-0.012217305,-0.04336187615990639,0.0125733008608222,-1.504103422164917,1023.25635,
2021.02.09 08:20:12,15.0,24.0,25.08,0.0,-41.28,-0.05746084,0.48602295,9.818622,0.021380283,-0.0012217305,-0.0030543262,-0.04945890232920647,0.00585216423496604,-1.4885259866714478,1023.25635,
2021.02.09 08:20:12,15.0,24.0,25.14,-0.24,-41.28,0.0047884034,0.5267244,9.629479,0.020158553,-0.0018325958,-0.017104227,-0.05464469641447067,-4.972650203853846E-4,-1.4909093379974365,1023.25635,
2021.02.09 08:20:12,15.0,24.0,24.9,-0.35999998,-41.76,-0.11731588,0.46686932,9.598354,0.013439035,0.0061086523,-0.01282817,-0.04859863221645355,0.01222189050167799,-1.5018655061721802,1023.2554,
2021.02.09 08:20:12,15.0,24.0,24.96,-0.59999996,-41.76,-0.093373865,0.49081135,9.691729,-0.004276057,0.0,-0.0030543262,-0.05059672147035599,0.009634088724851608,-1.5087804794311523,1023.2554,
2021.02.09 08:20:12,15.0,24.0,25.199999,-0.78,-41.64,-0.02633622,0.5363012,9.706094,-0.008552114,0.0067195175,-0.0030543262,-0.055197738111019135,0.0027133626863360405,-1.51019287109375,1023.2554,
2021.02.09 08:20:12,15.0,24.0,24.779999,-0.48,-41.46,-0.088585466,0.521936,9.730036,0.002443461,6.1086525E-4,-0.0012217305,-0.053588155657052994,0.009104079566895962,-1.4990642070770264,1023.2554,
2021.02.09 08:20:12,15.0,24.0,25.14,-1.02,-40.92,-0.05267244,0.51235914,9.605537,0.008552114,0.0030543262,0.0018325958,-0.053288672119379044,0.005483494605869055,-1.5239397287368774,1023.24365,
2021.02.09 08:20:12,15.0,24.0,24.96,-1.14,-40.68,-0.04070143,0.51714754,9.67018,-0.007330383,0.002443461,-0.0061086523,-0.05342721566557884,0.004208938218653202,-1.5288820266723633,1023.24365,
2021.02.09 08:20:13,15.0,24.0,24.539999,-1.26,-40.8,-0.050278235,0.545878,9.624691,-0.01160644,0.014660766,-0.009162978,-0.056654948741197586,0.0052238330245018005,-1.5272691249847412,1023.24365,
2021.02.09 08:20:13,15.0,24.0,24.9,-1.3199999,-41.16,-0.090979666,0.521936,9.763555,-0.022602014,0.0030543262,-0.013439035,-0.05340442806482315,0.009318023920059204,-1.5344574451446533,1023.24365,
2021.02.09 08:20:13,15.0,24.0,24.6,-0.84,-41.34,-0.11492168,0.51954174,9.591172,-0.0030543262,0.010995574,0.0,-0.05411197990179062,0.011981453746557236,-1.512243628501892,1023.2495,
2021.02.09 08:20:13,15.0,24.0,24.6,-0.71999997,-41.52,-0.023942016,0.5267244,9.734824,-0.02443461,-0.0012217305,0.004276057,-0.05405435711145401,0.0024594145361334085,-1.5085220336914062,1023.2495,
2021.02.09 08:20:13,15.0,24.0,24.66,-0.29999998,-41.64,-0.06464344,0.5386954,9.674969,0.0030543262,-0.0018325958,-0.007330383,-0.05562061443924904,0.006681414786726236,-1.4879544973373413,1023.2495,
2021.02.09 08:20:13,15.0,24.0,24.6,-0.42,-41.52,-0.088585466,0.49320555,9.648633,-0.013439035,0.0061086523,-0.0061086523,-0.05107002332806587,0.009180882945656776,-1.5002427101135254,1023.2495,
2021.02.09 08:20:13,15.0,24.0,24.9,-0.35999998,-41.34,-0.15083471,0.49559975,9.691729,-0.009773844,0.0012217305,-0.008552114,-0.05108568072319031,0.015561983920633793,-1.497907280921936,1023.239,
2021.02.09 08:20:13,15.0,24.0,24.72,-0.24,-41.399998,-0.074220255,0.533907,9.725247,-0.007330383,6.1086525E-4,0.0036651916,-0.054842423647642136,0.007631560787558556,-1.4873961210250854,1023.239,
2021.02.09 08:20:13,15.0,24.0,24.84,0.0,-41.34,-0.07182605,0.51714754,9.624691,0.01282817,0.0018325958,0.0036651916,-0.0536782331764698,0.00746254762634635,-1.4802253246307373,1023.239,
2021.02.09 08:20:13,15.0,24.0,24.9,-0.12,-41.1,-0.076614454,0.51475334,9.605537,-0.004276057,0.0,0.005497787,-0.053536321967840195,0.007975902408361435,-1.4859415292739868,1023.239,
2021.02.09 08:20:13,15.0,24.0,24.72,-0.24,-40.92,-0.11971009,0.5243302,9.744401,-0.0067195175,0.002443461,6.1086525E-4,-0.05375246703624725,0.012284394353628159,-1.489417552947998,1023.2366,
2021.02.09 08:20:13,15.0,24.0,24.779999,-0.35999998,-41.16,-0.021547815,0.5291186,9.607931,0.014660766,0.0018325958,0.007330383,-0.05501531437039375,0.0022427074145525694,-1.4937089681625366,1023.2366,
2021.02.09 08:20:13,15.0,24.0,24.84,-0.65999997,-41.1,-0.04309563,0.50517654,9.619903,0.0,0.0061086523,0.0012217305,-0.05246496945619583,0.00447981059551239,-1.5099506378173828,1023.2366,
2021.02.09 08:20:13,15.0,24.0,24.84,-0.42,-41.34,-0.090979666,0.48841715,9.64145,-0.01282817,0.0067195175,0.0012217305,-0.050612546503543854,0.009436026215553284,-1.5020372867584229,1023.2366,
2021.02.09 08:20:13,15.0,24.0,24.66,-0.35999998,-41.46,-0.08140286,0.5291186,9.653421,0.0030543262,0.014049901,0.0030543262,-0.054754775017499924,0.008432339876890182,-1.4919443130493164,1023.2334,
2021.02.09 08:20:13,15.0,24.0,24.42,-0.48,-41.219997,-0.06464344,0.50757074,9.552865,-0.022602014,0.008552114,-0.009773844,-0.0530816987156868,0.006766813341528177,-1.4998157024383545,1023.2334,
2021.02.09 08:20:13,15.0,24.0,24.18,-0.53999996,-40.92,-0.10295067,0.45250413,9.775525,0.0030543262,0.01282817,0.0012217305,-0.04625391587615013,0.01053108274936676,-1.5134104490280151,1023.2334,
2021.02.09 08:20:13,15.0,24.0,24.3,-0.65999997,-40.86,-0.009576807,0.50038815,9.706094,-0.005497787,0.0,-0.013439035,-0.05150838941335678,9.866795735433698E-4,-1.511269450187683,1023.2334,
2021.02.09 08:20:13,15.0,24.0,24.359999,-0.65999997,-40.559998,-0.15322891,0.49320555,9.6845455,0.007330383,0.007330383,-0.0061086523,-0.05087675526738167,0.015820682048797607,-1.510870337486267,1023.2356,
2021.02.09 08:20:13,15.0,24.0,24.96,-0.84,-39.899998,-0.023942016,0.47884035,9.622296,0.018325957,0.007330383,0.0018325958,-0.04972245916724205,0.002488176105543971,-1.5246827602386475,1023.2356,
2021.02.09 08:20:13,15.0,24.0,25.019999,-0.78,-40.2,-0.17477672,0.50278234,9.507375,-0.020158553,0.004886922,-0.01282817,-0.05282527580857277,0.018381208181381226,-1.5145224332809448,1023.2356,
2021.02.09 08:20:13,15.0,24.0,24.84,-0.48,-40.26,-0.05746084,0.50996494,9.639056,-0.02076942,0.007330383,-0.01282817,-0.05285589396953583,0.005961181130260229,-1.5036020278930664,1023.2356,
2021.02.09 08:20:13,15.0,24.0,24.9,-0.65999997,-40.68,-0.18435353,0.48602295,9.751583,-0.02565634,-0.012217305,-0.0036651916,-0.04979032650589943,0.01890273205935955,-1.5133086442947388,1023.2378,
2021.02.09 08:20:13,15.0,24.0,24.48,-0.48,-41.28,-0.088585466,0.47884035,9.648633,-0.0012217305,-0.013439035,0.014660766,-0.04958502575755119,0.009180883876979351,-1.5054259300231934,1023.2378,
2021.02.09 08:20:13,15.0,24.0,24.84,-0.65999997,-41.34,0.02633622,0.5410896,9.509769,-0.013439035,0.012217305,-0.01160644,-0.05683678761124611,-0.0027693784795701504,-1.5033549070358276,1023.2378,
2021.02.09 08:20:14,15.0,24.0,25.199999,-1.3199999,-41.1,-0.24420857,0.3878607,9.77792,-0.035430185,6.1086525E-4,-0.0061086523,-0.0396338626742363,0.024970322847366333,-1.5569767951965332,1023.2378,
2021.02.09 08:20:14,15.0,24.0,25.32,-0.96,-41.34,-0.11492168,0.49081135,9.749189,0.009773844,-0.0061086523,0.01282817,-0.050297852605581284,0.011787272989749908,-1.5251387357711792,1023.2378,
2021.02.09 08:20:14,15.0,24.0,25.74,-1.3199999,-41.82,-0.05267244,0.46926352,9.574412,0.017715093,-0.01038471,0.014660766,-0.048972323536872864,0.005501319654285908,-1.5419646501541138,1023.2378,
2021.02.09 08:20:14,15.0,24.0,25.859999,-1.56,-41.46,-0.10534488,0.44771573,9.531317,-0.02565634,-0.0030543262,0.009773844,-0.046935755759477615,0.011052049696445465,-1.555039882659912,1023.2378,
2021.02.09 08:20:14,15.0,24.0,25.5,-1.14,-41.579998,-0.093373865,0.48602295,9.892841,-0.037873644,-0.0067195175,0.012217305,-0.049087099730968475,0.009438248351216316,-1.5344346761703491,1023.2378,
2021.02.09 08:20:14,15.0,24.0,25.56,-1.68,-40.559998,-0.095768064,0.46447513,9.722853,0.014049901,-0.0018325958,0.015271631,-0.0477328822016716,0.009849471971392632,-1.5600992441177368,1023.23364,
2021.02.09 08:20:14,15.0,24.0,25.68,-1.56,-39.719997,0.045489833,0.49559975,9.64145,0.018936822,0.004276057,0.017104227,-0.05135726183652878,-0.004718117881566286,-1.552441954612732,1023.23364,
2021.02.09 08:20:14,15.0,24.0,25.439999,-1.26,-39.899998,-0.1436521,0.37110126,9.677363,0.002443461,0.0030543262,-0.01160644,-0.038324352353811264,0.01484304666519165,-1.559366226196289,1023.23364,
2021.02.09 08:20:14,15.0,24.0,25.98,-1.38,-39.899998,-0.095768064,0.48362875,9.607931,0.009162978,0.014049901,0.015271631,-0.05029146745800972,0.009967275895178318,-1.5457655191421509,1023.23364,
2021.02.09 08:20:14,15.0,24.0,25.859999,-0.96,-40.62,-0.038307227,0.45250413,9.662998,-0.004276057,0.002443461,0.007330383,-0.046793993562459946,0.003964300267398357,-1.5340054035186768,1023.2346,
2021.02.09 08:20:14,15.0,24.0,25.8,-0.84,-41.04,-0.047884032,0.51954174,9.672575,-0.0061086523,0.012217305,-0.005497787,-0.053660646080970764,0.004950454458594322,-1.5173553228378296,1023.2346,
2021.02.09 08:20:14,15.0,24.0,25.92,-0.42,-41.219997,-0.18435353,0.41180268,9.792285,-0.008552114,0.004886922,-0.010995574,-0.042021580040454865,0.018824180588126183,-1.5178543329238892,1023.2346,
2021.02.09 08:20:14,15.0,24.0,25.619999,-0.29999998,-41.219997,-0.076614454,0.49081135,9.682152,0.018936822,0.005497787,0.007941248,-0.050647441297769547,0.007912792265415192,-1.499853491783142,1023.2346,
2021.02.09 08:20:14,15.0,24.0,25.8,-0.71999997,-40.98,-0.093373865,0.46208093,9.610326,0.0061086523,-0.004276057,0.009773844,-0.04804244637489319,0.009715688414871693,-1.5212005376815796,1023.2317,
2021.02.09 08:20:14,15.0,24.0,25.68,-0.24,-40.86,-0.04070143,0.47884035,9.622296,-0.029321533,-0.0018325958,0.008552114,-0.04972216486930847,0.0042298827320337296,-1.500481128692627,1023.2317,
2021.02.09 08:20:14,15.0,24.0,25.56,-0.84,-40.5,-0.01436521,0.49559975,9.794679,-0.009773844,0.014660766,0.002443461,-0.05055570974946022,0.00146663305349648,-1.52339768409729,1023.2317,
2021.02.09 08:20:14,15.0,24.0,25.019999,-0.84,-40.32,-0.16519992,0.38067806,9.730036,-0.14538592,-0.087964594,0.042760566,-0.03909844160079956,0.01697671413421631,-1.5398565530776978,1023.2317,
2021.02.09 08:20:14,15.0,24.0,24.72,-0.29999998,-40.379997,0.15801731,0.5386954,10.170568,-0.03848451,0.027488936,0.008552114,-0.05291028320789337,-0.015535472892224789,-1.4992899894714355,1023.2273,
2021.02.09 08:20:14,15.0,24.0,24.84,-0.65999997,-40.44,-0.31364042,0.34476504,10.718841,0.12461651,0.1020145,0.008552114,-0.03213956207036972,0.029252318665385246,-1.5427813529968262,1023.2273,
