Time,X-cord,Y-cord,Mag_x,Mag_y,Mag_z,Acc_x,Acc_y,Acc_z,Gyro_x,Gyro_y,Gyro_z,Orn_x,Orn_y,Orn_z,Pressure,
2021.02.09 08:26:22,45.0,17.0,4.92,-24.96,-39.719997,-0.35913026,0.25378537,10.488997,-0.070249505,0.13439035,-0.1282817,-0.02417650632560253,0.03422538936138153,-2.994349956512451,1023.3213,
2021.02.09 08:26:22,45.0,17.0,5.64,-24.6,-39.6,-0.32561144,0.19153613,9.069236,0.16737708,0.13133603,-0.06780604,-0.02110259421169758,0.03588743880391121,-2.965963840484619,1023.31177,
2021.02.09 08:26:22,45.0,17.0,6.06,-24.9,-39.84,-0.39743748,0.30885202,8.611943,0.26206118,0.015271631,-0.007941248,-0.035809773951768875,0.046116847544908524,-2.963662624359131,1023.31177,
2021.02.09 08:26:22,45.0,17.0,6.24,-25.26,-39.78,-0.4333505,0.23942018,9.239224,0.040927973,-0.08857546,0.021380283,-0.025879215449094772,0.04686899483203888,-2.9630777835845947,1023.31177,
2021.02.09 08:26:22,45.0,17.0,6.48,-25.38,-39.36,0.047884032,0.24660277,9.962274,-0.16249016,-0.18509217,0.0983493,-0.02474832534790039,-0.00480649946257472,-2.874774932861328,1023.31177,
2021.02.09 08:26:22,45.0,17.0,6.48,-26.16,-39.42,0.12210429,0.38067806,10.33098,-0.15088372,-0.18142697,0.096516706,-0.03682896867394447,-0.011818685568869114,-2.86741304397583,1023.2986,
2021.02.09 08:26:22,45.0,17.0,5.8199997,-25.859999,-39.3,-0.25139117,0.24420857,9.478644,-0.055588737,-0.10140363,0.009773844,-0.025749333202838898,0.02651563100516796,-2.9516096115112305,1023.2986,
2021.02.09 08:26:22,45.0,17.0,5.8799996,-25.68,-39.12,-0.10534488,0.2801216,9.603143,0.08002335,-0.118507855,-0.012217305,-0.029159758239984512,0.010969393886625767,-2.922917604446411,1023.2986,
2021.02.09 08:26:22,45.0,17.0,5.4,-25.26,-39.18,0.29688102,0.533907,9.471462,0.049480084,-0.115453534,0.032375857,-0.0562828965485096,-0.0313345342874527,-2.861454725265503,1023.2986,
2021.02.09 08:26:22,45.0,17.0,5.1,-25.439999,-38.94,-0.18674773,0.30166942,9.9550905,-0.09407325,0.0030543262,-0.02565634,-0.030288435518741608,0.018756819888949394,-2.9633238315582275,1023.3015,
2021.02.09 08:26:22,45.0,17.0,5.2799997,-25.74,-38.399998,-0.20350714,0.16519992,9.854534,-0.092240654,-0.03359759,-0.09407325,-0.01675870642066002,0.020648181438446045,-2.964672565460205,1023.3015,
2021.02.09 08:26:22,45.0,17.0,5.1,-25.74,-38.1,-0.22026655,0.2681506,9.65821,0.032375857,0.018936822,-0.06414085,-0.027749665081501007,0.022802196443080902,-2.9717812538146973,1023.3015,
2021.02.09 08:26:22,45.0,17.0,5.7599998,-25.92,-38.1,-0.16519992,0.24420857,9.502586,0.029932396,0.005497787,-0.019547688,-0.025689633563160896,0.01738298125565052,-2.939927339553833,1023.3015,
2021.02.09 08:26:22,45.0,17.0,5.58,-25.56,-38.52,0.033518825,0.2705448,9.667787,0.020158553,0.013439035,-0.017104227,-0.027976682409644127,-0.0034670489840209484,-2.912238836288452,1023.3047,
2021.02.09 08:26:22,45.0,17.0,5.7,-25.68,-38.52,0.10534488,0.35673606,9.619903,-0.014660766,0.010995574,-0.004886922,-0.037063922733068466,-0.010950284078717232,-2.8942036628723145,1023.3047,
2021.02.09 08:26:22,45.0,17.0,5.46,-25.859999,-38.579998,-0.25857377,0.21787235,10.18254,-0.06291912,0.051923547,-0.044593163,-0.02138650417327881,0.025388382375240326,-2.9645016193389893,1023.3047,
2021.02.09 08:26:22,45.0,17.0,5.04,-25.38,-39.0,-0.16280572,0.23702596,9.871294,-0.06169739,0.007941248,-0.04886922,-0.024003762751817703,0.016491349786520004,-2.9635820388793945,1023.3047,
2021.02.09 08:26:22,45.0,17.0,5.58,-25.619999,-39.0,-0.19632454,0.29927522,9.82341,0.050701816,0.016493361,-0.014049901,-0.030450014397501945,0.01998271606862545,-2.9475033283233643,1023.2981,
2021.02.09 08:26:22,45.0,17.0,5.04,-25.08,-39.18,-0.11731588,0.30406362,9.706094,0.058643065,-0.021380283,-0.0036651916,-0.031314555555582047,0.012086238712072372,-2.9523468017578125,1023.2981,
2021.02.09 08:26:22,45.0,17.0,5.22,-24.9,-39.12,-0.12689269,0.38307226,9.739613,0.069027774,0.02443461,-0.018936822,-0.039307765662670135,0.013027776964008808,-2.9424779415130615,1023.2981,
2021.02.09 08:26:23,45.0,17.0,5.2799997,-25.74,-39.0,-0.16280572,0.34237084,9.837775,0.014660766,6.1086525E-4,-0.028099801,-0.03478285297751427,0.01654752716422081,-2.953650712966919,1023.2981,
2021.02.09 08:26:23,45.0,17.0,5.1,-25.439999,-38.879997,-0.32561144,0.33997664,9.452309,0.04153884,-0.0067195175,-0.022602014,-0.03593078628182411,0.034434206783771515,-2.986388921737671,1023.3091,
2021.02.09 08:26:23,45.0,17.0,5.7,-25.859999,-38.64,-0.32561144,0.30645782,9.758766,0.03726278,0.01038471,-0.0067195175,-0.031375572085380554,0.03335367143154144,-2.9644863605499268,1023.3091,
2021.02.09 08:26:23,45.0,17.0,5.46,-26.099998,-38.82,-0.16998832,0.45489833,9.80665,-0.013439035,-0.015882496,0.02687807,-0.04634653776884079,0.017332250252366066,-2.9468724727630615,1023.3091,
2021.02.09 08:26:23,45.0,17.0,5.7599998,-26.039999,-38.7,-0.14844051,0.39264908,9.957485,-0.01160644,0.007941248,0.059864793,-0.03940775990486145,0.014906326308846474,-2.933067560195923,1023.3091,
2021.02.09 08:26:23,45.0,17.0,5.64,-25.859999,-39.059998,-0.11731588,0.37110126,9.701305,0.008552114,-0.002443461,0.06291912,-0.03823127970099449,0.012092203833162785,-2.9324498176574707,1023.3137,
2021.02.09 08:26:23,45.0,17.0,5.7599998,-25.74,-39.42,-0.25139117,0.4141969,9.411607,0.05681047,0.01160644,0.06047566,-0.04396512359380722,0.02670441009104252,-2.947805166244507,1023.3137,
2021.02.09 08:26:23,45.0,17.0,5.8199997,-25.68,-39.6,-0.20829555,0.40222588,9.703699,0.03359759,0.012217305,0.047647487,-0.04141753166913986,0.02146228589117527,-2.9375545978546143,1023.3137,
2021.02.09 08:26:23,45.0,17.0,5.7,-25.56,-39.42,-0.021547815,0.4141969,9.828198,-0.05375614,0.010995574,0.080634214,-0.042118705809116364,0.0021924444008618593,-2.9106826782226562,1023.3137,
2021.02.09 08:26:23,45.0,17.0,5.7599998,-26.22,-38.399998,-0.08379706,0.4165911,10.024523,-0.0580322,0.025045475,0.06169739,-0.04153185337781906,0.008359013125300407,-2.9240121841430664,1023.3086,
2021.02.09 08:26:23,45.0,17.0,5.22,-26.22,-38.219997,-0.07182605,0.40222588,9.85214,-0.02443461,0.0030543262,0.025045475,-0.040802497416734695,0.0072902715764939785,-2.943662405014038,1023.3086,
2021.02.09 08:26:23,45.0,17.0,5.2799997,-26.16,-38.1,-0.11731588,0.3878607,9.634268,0.025045475,6.1086525E-4,0.005497787,-0.04023374244570732,0.012176335789263248,-2.9483067989349365,1023.3086,
2021.02.09 08:26:23,45.0,17.0,5.2799997,-26.4,-37.739998,-0.19393034,0.34715924,9.6845455,0.03604105,-0.002443461,-0.0061086523,-0.035824209451675415,0.02002204768359661,-2.962789535522461,1023.3086,
2021.02.09 08:26:23,45.0,17.0,5.4,-26.16,-38.04,-0.15322891,0.36631286,9.763555,-0.009773844,-0.0018325958,-0.0018325958,-0.037496186792850494,0.015692679211497307,-2.9496543407440186,1023.3137,
2021.02.09 08:26:23,45.0,17.0,5.52,-26.4,-37.98,-0.17717093,0.3854665,9.76116,-0.0018325958,-0.0030543262,-0.0018325958,-0.039462823420763016,0.01814861036837101,-2.94983172416687,1023.3137,
2021.02.09 08:26:23,45.0,17.0,5.8199997,-26.34,-38.34,-0.22505496,0.34955344,9.7563715,0.002443461,-0.009162978,0.0030543262,-0.03580338507890701,0.02306339517235756,-2.946316957473755,1023.3137,
2021.02.09 08:26:23,45.0,17.0,5.52,-25.8,-38.82,-0.1604115,0.39264908,9.52174,0.016493361,-0.009162978,0.0036651916,-0.041207920759916306,0.016845276579260826,-2.942993640899658,1023.3137,
2021.02.09 08:26:23,45.0,17.0,5.7599998,-25.439999,-38.76,-0.16519992,0.37828386,9.828198,-0.007941248,-0.0012217305,0.0030543262,-0.0384652279317379,0.016807187348604202,-2.9312775135040283,1023.3181,
2021.02.09 08:26:23,45.0,17.0,5.7599998,-25.199999,-39.3,-0.15083471,0.4141969,9.624691,-0.030543262,-0.016493361,-0.004276057,-0.04300301894545555,0.015670359134674072,-2.9259729385375977,1023.3181,
2021.02.09 08:26:23,45.0,17.0,5.52,-25.199999,-38.94,-0.17238252,0.34476504,9.938332,-0.022602014,0.004276057,0.0018325958,-0.03467131778597832,0.01734347827732563,-2.941073417663574,1023.3181,
2021.02.09 08:26:23,45.0,17.0,5.94,-25.38,-39.12,-0.10534488,0.37588966,9.713276,-0.021380283,-0.028099801,0.008552114,-0.038676973432302475,0.01084502786397934,-2.9142966270446777,1023.3181,
2021.02.09 08:26:23,45.0,17.0,5.58,-25.439999,-39.239998,-0.05746084,0.41180268,9.648633,0.015882496,-0.009773844,0.018936822,-0.04265325516462326,0.005955264437943697,-2.920109510421753,1023.3159,
2021.02.09 08:26:23,45.0,17.0,5.64,-25.74,-38.64,-0.25857377,0.30645782,9.718064,-0.012217305,6.1086525E-4,-0.0018325958,-0.0315132699906826,0.026601262390613556,-2.955634593963623,1023.3159,
2021.02.09 08:26:23,45.0,17.0,5.8799996,-25.92,-38.52,-0.22984336,0.34237084,9.866506,-0.028710667,-0.0018325958,-0.012217305,-0.03467699512839317,0.023291103541851044,-2.941520929336548,1023.3159,
2021.02.09 08:26:23,45.0,17.0,5.7599998,-25.92,-38.46,-0.095768064,0.41180268,9.734824,-0.010995574,-0.007330383,0.018325957,-0.04227476567029953,0.009837360121309757,-2.9233853816986084,1023.3159,
2021.02.09 08:26:24,45.0,17.0,5.58,-26.099998,-38.52,-0.11731588,0.35194764,9.828198,-0.002443461,0.0030543262,0.018325957,-0.035792142152786255,0.011936095543205738,-2.9372270107269287,1023.30835,
2021.02.09 08:26:24,45.0,17.0,5.52,-25.56,-38.64,-0.05267244,0.3854665,9.648633,0.013439035,-0.013439035,0.023823744,-0.03992854431271553,0.005459002684801817,-2.923855781555176,1023.30835,
2021.02.09 08:26:24,45.0,17.0,5.22,-25.56,-38.34,-0.08379706,0.36870706,9.67018,0.018325957,-0.002443461,0.016493361,-0.03810836374759674,0.008665294386446476,-2.9413328170776367,1023.30835,
2021.02.09 08:26:24,45.0,17.0,5.46,-25.56,-38.04,-0.011971008,0.4357447,9.876082,0.0030543262,-6.1086525E-4,0.0030543262,-0.044092584401369095,0.001212120521813631,-2.9184515476226807,1023.30835,
2021.02.09 08:26:24,45.0,17.0,4.7999997,-25.38,-38.219997,-0.08379706,0.36870706,9.706094,-0.015882496,-0.009773844,-0.0067195175,-0.037967499345541,0.008633233606815338,-2.9567761421203613,1023.31274,
2021.02.09 08:26:24,45.0,17.0,4.74,-25.8,-37.92,-0.055066638,0.33997664,9.722853,0.007941248,-0.004276057,-0.021380283,-0.03495195880532265,0.005663569085299969,-2.9586453437805176,1023.31274,
2021.02.09 08:26:24,45.0,17.0,4.62,-25.68,-38.399998,-0.019153614,0.4237737,9.691729,6.1086525E-4,-0.02321288,-0.020158553,-0.043697379529476166,0.0019762821029871702,-2.9542996883392334,1023.31274,
2021.02.09 08:26:24,45.0,17.0,4.02,-25.859999,-38.34,-0.20111294,0.32800564,9.703699,-0.007941248,-0.02443461,-0.029932396,-0.03378201276063919,0.020722422748804092,-3.0109763145446777,1023.31274,
2021.02.09 08:26:24,45.0,17.0,4.8599997,-25.74,-37.86,-0.107739076,0.34237084,9.885659,-0.009773844,-0.021991149,-0.02687807,-0.034617193043231964,0.010898090898990631,-2.961402654647827,1023.31714,
2021.02.09 08:26:24,45.0,17.0,5.04,-25.5,-38.399998,-0.1436521,0.36152446,9.794679,-0.014049901,-0.015882496,-0.01038471,-0.03688958287239075,0.014665289781987667,-2.9576756954193115,1023.31714,
2021.02.09 08:26:24,45.0,17.0,5.22,-25.619999,-38.16,-0.05267244,0.40940848,9.572019,0.06047566,-0.0030543262,0.01282817,-0.04274468496441841,0.005502695683389902,-2.9355061054229736,1023.31714,
2021.02.09 08:26:24,45.0,17.0,5.52,-25.68,-38.34,-0.19153613,0.35434186,9.674969,0.015882496,-0.01038471,0.002443461,-0.036601077765226364,0.019794493913650513,-2.9478139877319336,1023.31714,
2021.02.09 08:26:24,45.0,17.0,5.22,-25.68,-38.82,-0.059855044,0.46447513,9.691729,0.021380283,-0.009773844,0.0018325958,-0.04788734391331673,0.006175810471177101,-2.9352409839630127,1023.2986,
2021.02.09 08:26:24,45.0,17.0,4.98,-25.68,-38.52,-0.1604115,0.41180268,9.7803135,0.01038471,0.002443461,-0.0030543262,-0.04207475483417511,0.016399996355175972,-2.9626314640045166,1023.2986,
2021.02.09 08:26:24,45.0,17.0,4.74,-25.14,-38.82,-0.079008654,0.4333505,9.727641,0.017104227,6.1086525E-4,-0.0018325958,-0.04451746493577957,0.008121898397803307,-2.9546048641204834,1023.2986,
2021.02.09 08:26:24,45.0,17.0,4.62,-24.9,-38.64,-0.06943185,0.4381389,9.8042555,0.009773844,-0.010995574,-0.0012217305,-0.044657811522483826,0.007081689313054085,-2.956000328063965,1023.2986,
2021.02.09 08:26:24,45.0,17.0,4.74,-24.96,-38.7,-0.06464344,0.46447513,9.624691,0.040317107,-0.008552114,-0.01282817,-0.04822021350264549,0.006716316100209951,-2.9497416019439697,1023.30566,
2021.02.09 08:26:24,45.0,17.0,4.98,-24.66,-38.879997,-0.12210429,0.45250413,9.631873,0.03176499,-0.01038471,-0.017715093,-0.04694158211350441,0.012676428072154522,-2.9473345279693604,1023.30566,
2021.02.09 08:26:24,45.0,17.0,4.7999997,-25.199999,-39.0,-0.062249243,0.45968673,9.80665,0.008552114,-6.1086525E-4,-0.010995574,-0.046839769929647446,0.006347571033984423,-2.949005365371704,1023.30566,
2021.02.09 08:26:24,45.0,17.0,4.92,-25.019999,-39.3,-0.11492168,0.45250413,9.67018,0.01282817,-0.009162978,-0.009773844,-0.046756356954574585,0.011883570812642574,-2.9516000747680664,1023.30566,
2021.02.09 08:26:24,45.0,17.0,5.1,-25.32,-39.18,0.023942016,0.50278234,9.576807,0.028099801,-6.1086525E-4,-0.002443461,-0.05245167762041092,-0.0024999945890158415,-2.9214751720428467,1023.3074,
2021.02.09 08:26:24,45.0,17.0,4.92,-25.8,-39.18,-0.021547815,0.46447513,9.763555,0.019547688,0.0018325958,0.002443461,-0.04753638431429863,0.0022069604601711035,-2.9421145915985107,1023.3074,
2021.02.09 08:26:24,45.0,17.0,4.8599997,-25.5,-39.059998,-0.076614454,0.46447513,9.64145,-0.01282817,-0.002443461,-0.010995574,-0.048136088997125626,0.00794619508087635,-2.9510693550109863,1023.3074,
2021.02.09 08:26:24,45.0,17.0,4.5,-25.74,-39.3,-0.062249243,0.45729253,9.555259,0.025045475,0.0018325958,-0.013439035,-0.04782018065452576,0.006514566019177437,-2.9653546810150146,1023.3074,
2021.02.09 08:26:24,45.0,17.0,4.08,-25.56,-39.18,-0.07182605,0.44532153,9.758766,-0.010995574,0.0030543262,-0.010995574,-0.045600105077028275,0.007360023446381092,-2.983259916305542,1023.3098,
2021.02.09 08:26:25,45.0,17.0,4.14,-25.56,-39.0,-0.090979666,0.45489833,9.715671,-0.01038471,0.008552114,-0.014660766,-0.04678487405180931,0.009363945573568344,-2.983693838119507,1023.3098,
2021.02.09 08:26:25,45.0,17.0,4.44,-26.099998,-38.94,-0.06703765,0.46447513,9.672575,-0.009162978,0.004276057,-0.015271631,-0.04798179492354393,0.006930582225322723,-2.970959424972534,1023.3098,
2021.02.09 08:26:25,45.0,17.0,4.68,-26.099998,-38.28,-0.05746084,0.51475334,9.56723,0.01038471,0.002443461,-0.009773844,-0.053751006722450256,0.006005933508276939,-2.95828914642334,1023.3098,
2021.02.09 08:26:25,45.0,17.0,4.8599997,-25.98,-38.46,-0.12210429,0.39743748,9.923966,-0.016493361,0.012217305,-0.014049901,-0.04002382978796959,0.012303359806537628,-2.963848352432251,1023.3086,
2021.02.09 08:26:25,45.0,17.0,4.98,-25.68,-38.46,-0.04309563,0.48123455,9.572019,-0.01038471,-0.010995574,-0.02565634,-0.050232335925102234,0.004502220544964075,-2.941614866256714,1023.3086,
2021.02.09 08:26:25,45.0,17.0,4.7999997,-25.439999,-38.52,-0.10295067,0.47644615,9.464279,0.03604105,0.0018325958,-0.007330383,-0.050296079367399216,0.01087738573551178,-2.9570541381835938,1023.3086,
2021.02.09 08:26:25,45.0,17.0,4.92,-25.38,-38.64,-0.17238252,0.39264908,9.876082,-0.005497787,0.01160644,-0.020158553,-0.039730604737997055,0.017452772706747055,-2.9652507305145264,1023.3086,
2021.02.09 08:26:25,45.0,17.0,4.92,-25.56,-38.16,-0.12928689,0.45010993,9.7563715,-0.034208454,-0.002443461,-0.013439035,-0.046098239719867706,0.01325075700879097,-2.9580018520355225,1023.2988,
2021.02.09 08:26:25,45.0,17.0,4.5,-25.619999,-38.52,-0.05267244,0.4381389,9.713276,0.009773844,0.004886922,0.0036651916,-0.04507600516080856,0.005422673188149929,-2.9636311531066895,1023.2988,
2021.02.09 08:26:25,45.0,17.0,4.62,-25.5,-38.52,-0.059855044,0.50517654,9.555259,0.048258353,0.0,0.015882496,-0.05281874164938927,0.006264012772589922,-2.9568374156951904,1023.2988,
2021.02.09 08:26:25,45.0,17.0,4.74,-25.68,-38.52,0.0047884034,0.48123455,9.718064,0.0030543262,-0.0067195175,0.004276057,-0.0494791641831398,-4.927321569994092E-4,-2.9437811374664307,1023.2988,
2021.02.09 08:26:25,45.0,17.0,4.62,-25.859999,-38.94,-0.10534488,0.44532153,9.720459,0.0061086523,0.008552114,0.0,-0.04577811434864998,0.010837013833224773,-2.9687821865081787,1023.3052,
2021.02.09 08:26:25,45.0,17.0,4.5,-25.98,-38.76,-0.090979666,0.47644615,9.519346,0.02687807,0.0061086523,-0.0036651916,-0.05000629276037216,0.009557053446769714,-2.971259832382202,1023.3052,
2021.02.09 08:26:25,45.0,17.0,4.2599998,-26.34,-38.76,-0.09816227,0.50996494,9.689334,0.018936822,0.01038471,0.002443461,-0.052580367773771286,0.010130614973604679,-2.9835472106933594,1023.3052,
2021.02.09 08:26:25,45.0,17.0,3.4199998,-25.98,-38.76,-0.1364695,0.50278234,9.883265,-0.013439035,0.002443461,-0.004886922,-0.05082343891263008,0.013807262293994427,-3.021855354309082,1023.3052,
2021.02.09 08:26:25,45.0,17.0,3.6599998,-25.98,-38.76,-0.016759412,0.5506664,9.605537,0.037873644,0.002443461,0.009162978,-0.05726524442434311,0.0017447639256715775,-2.9912776947021484,1023.3013,
2021.02.09 08:26:25,45.0,17.0,4.08,-25.859999,-38.76,-0.033518825,0.5315128,9.619903,0.03726278,0.0012217305,0.01038471,-0.0551949180662632,0.0034843063913285732,-2.9765264987945557,1023.3013,
2021.02.09 08:26:25,45.0,17.0,3.9599998,-25.38,-38.579998,-0.107739076,0.51954174,9.698911,0.020158553,0.01038471,-0.005497787,-0.0535125806927681,0.01110791228711605,-2.991042137145996,1023.3013,
2021.02.09 08:26:25,45.0,17.0,4.38,-25.5,-38.94,-0.10295067,0.5410896,9.758766,0.029321533,0.0067195175,-0.002443461,-0.05538672208786011,0.010549167171120644,-2.9728896617889404,1023.3013,
2021.02.09 08:26:25,45.0,17.0,4.08,-25.5,-38.879997,-0.12449849,0.5530606,9.481039,0.036651913,-0.005497787,0.01160644,-0.05826229602098465,0.013130557723343372,-2.9888811111450195,1023.3152,
2021.02.09 08:26:25,45.0,17.0,3.6,-25.56,-39.059998,-0.095768064,0.557849,9.672575,0.03970624,0.013439035,0.007330383,-0.05760663002729416,0.009900666773319244,-3.004362106323242,1023.3152,
2021.02.09 08:26:25,45.0,17.0,3.72,-25.859999,-39.36,-0.062249243,0.61052144,9.672575,0.0,-0.014660766,0.0012217305,-0.06303388625383377,0.006435554474592209,-2.994067668914795,1023.3152,
2021.02.09 08:26:25,45.0,17.0,3.78,-26.039999,-38.879997,-0.15322891,0.5602432,9.543288,0.016493361,0.0067195175,-0.0012217305,-0.058630622923374176,0.01605481654405594,-3.009310483932495,1023.3152,
2021.02.09 08:26:25,45.0,17.0,4.38,-25.92,-38.82,-0.093373865,0.5626374,9.627085,0.007941248,0.002443461,-0.004276057,-0.058374032378196716,0.009698775596916676,-2.9736218452453613,1023.3093,
2021.02.09 08:26:25,45.0,17.0,4.68,-25.98,-38.82,-0.12689269,0.59376204,9.677363,-0.010995574,0.0,0.007941248,-0.06127369403839111,0.013111568987369537,-2.9663174152374268,1023.3093,
2021.02.09 08:26:26,45.0,17.0,5.2799997,-25.92,-39.36,-0.15562311,0.581791,9.655815,-0.004276057,0.004886922,-0.0036651916,-0.06017236039042473,0.016115639358758926,-2.946458101272583,1023.3093,
2021.02.09 08:26:26,45.0,17.0,5.3399997,-26.22,-39.3,-0.06464344,0.581791,9.536105,0.0018325958,0.0030543262,-6.1086525E-4,-0.06093236431479454,0.006778706330806017,-2.9313595294952393,1023.3093,
2021.02.09 08:26:26,45.0,17.0,5.22,-26.699999,-39.36,-0.10295067,0.5746084,9.65821,-0.0030543262,0.004886922,0.005497787,-0.0594208799302578,0.01065899059176445,-2.9466614723205566,1023.3091,
2021.02.09 08:26:26,45.0,17.0,5.52,-26.58,-38.94,-0.1604115,0.56982,9.701305,-0.032986723,0.0061086523,-0.008552114,-0.05866101756691933,0.016533536836504936,-2.9431583881378174,1023.3091,
2021.02.09 08:26:26,45.0,17.0,5.04,-27.06,-38.04,-0.08140286,0.60573304,9.605537,-0.021380283,0.009773844,-0.0036651916,-0.06297516822814941,0.008474373258650303,-2.952199697494507,1023.3091,
2021.02.09 08:26:26,45.0,17.0,5.4,-26.939999,-38.04,-0.107739076,0.5434838,9.595961,-0.022602014,0.01038471,-0.0018325958,-0.05657272785902023,0.011227073147892952,-2.943262815475464,1023.3091,
2021.02.09 08:26:26,45.0,17.0,5.16,-26.88,-37.98,-0.1316811,0.56982,9.797073,-0.018325957,0.007330383,-0.0067195175,-0.058091580867767334,0.01344005111604929,-2.954998731613159,1023.31055,
2021.02.09 08:26:26,45.0,17.0,4.8599997,-26.82,-38.399998,-0.079008654,0.58657944,9.639056,-0.027488936,-0.0012217305,-0.005497787,-0.0607774555683136,0.00819653645157814,-2.9576921463012695,1023.31055,
2021.02.09 08:26:26,45.0,17.0,5.1,-26.76,-38.46,-0.107739076,0.5410896,9.591172,0.007941248,0.004276057,-0.0012217305,-0.05635209381580353,0.011232676915824413,-2.95369291305542,1023.31055,
2021.02.09 08:26:26,45.0,17.0,4.92,-26.4,-38.64,-0.18195933,0.5267244,9.77792,-0.0067195175,0.014049901,-0.009162978,-0.053807444870471954,0.018607059493660927,-2.9702911376953125,1023.31055,
2021.02.09 08:26:26,45.0,17.0,5.16,-26.279999,-38.52,-0.15801731,0.557849,9.751583,-0.007330383,0.009162978,-0.004276057,-0.05713622644543648,0.016202853992581367,-2.955077648162842,1023.3052,
2021.02.09 08:26:26,45.0,17.0,5.4,-26.58,-38.1,-0.1436521,0.533907,9.579201,0.02076942,0.0012217305,0.0036651916,-0.05567221716046333,0.014995126985013485,-2.9463565349578857,1023.3052,
2021.02.09 08:26:26,45.0,17.0,5.4,-26.4,-38.1,-0.10295067,0.5626374,9.646238,0.02565634,0.005497787,0.01160644,-0.0582578144967556,0.010672218166291714,-2.937577486038208,1023.3052,
2021.02.09 08:26:26,45.0,17.0,5.3399997,-26.58,-38.28,-0.18435353,0.5386954,9.801862,-0.0067195175,-0.0018325958,0.0030543262,-0.054893553256988525,0.018805794417858124,-2.9547533988952637,1023.3052,
2021.02.09 08:26:26,45.0,17.0,5.04,-26.4,-38.34,-0.110133275,0.5722142,9.615114,0.018936822,0.0018325958,0.0061086523,-0.05943794921040535,0.011453681625425816,-2.952758312225342,1023.30835,
2021.02.09 08:26:26,45.0,17.0,5.2799997,-26.34,-38.219997,-0.16280572,0.5363012,9.564836,0.027488936,0.004886922,0.01282817,-0.05600334331393242,0.01701963320374489,-2.9522571563720703,1023.30835,
2021.02.09 08:26:26,45.0,17.0,5.2799997,-26.22,-38.1,-0.18914193,0.5554548,9.706094,0.002443461,0.0036651916,0.0018325958,-0.057154249399900436,0.01948445849120617,-2.954732894897461,1023.30835,
2021.02.09 08:26:26,45.0,17.0,5.2799997,-26.279999,-37.86,-0.12689269,0.59136784,9.698911,-0.009773844,0.0018325958,0.009162978,-0.0608920194208622,0.013082442805171013,-2.944213390350342,1023.30835,
2021.02.09 08:26:26,45.0,17.0,5.3399997,-26.519999,-37.86,-0.09816227,0.557849,9.691729,0.010995574,0.0018325958,0.01282817,-0.05749290809035301,0.010128112509846687,-2.9403717517852783,1023.30835,
2021.02.09 08:26:26,45.0,17.0,5.2799997,-26.58,-37.8,-0.08619126,0.58418524,9.622296,0.0018325958,-0.005497787,0.015882496,-0.06063476949930191,0.008957212790846825,-2.9404845237731934,1023.30835,
2021.02.09 08:26:26,45.0,17.0,5.4,-26.46,-38.04,-0.20350714,0.50996494,9.691729,0.0,0.0036651916,0.004276057,-0.0525585301220417,0.020994938910007477,-2.9553921222686768,1023.30835,
2021.02.09 08:26:26,45.0,17.0,5.22,-26.16,-37.8,-0.074220255,0.60094464,9.56723,-0.007941248,-0.0030543262,0.0030543262,-0.06272851675748825,0.007757602259516716,-2.9369442462921143,1023.30835,
2021.02.09 08:26:26,45.0,17.0,5.04,-25.8,-37.68,-0.11731588,0.5722142,9.816227,-0.015882496,0.004276057,0.009773844,-0.05822264403104782,0.011950651183724403,-2.9492104053497314,1023.30493,
2021.02.09 08:26:26,45.0,17.0,5.04,-25.619999,-38.1,-0.09816227,0.5386954,9.629479,-0.021991149,-0.008552114,0.0,-0.05588117614388466,0.010193580761551857,-2.9457757472991943,1023.30493,
2021.02.09 08:26:26,45.0,17.0,4.74,-25.32,-38.34,-0.09816227,0.557849,9.706094,-0.013439035,-0.002443461,0.0,-0.05740800499916077,0.010113123804330826,-2.9551854133605957,1023.30493,
2021.02.09 08:26:27,45.0,17.0,4.98,-25.199999,-38.76,-0.062249243,0.545878,9.67018,-0.02565634,-0.023823744,-0.0030543262,-0.05638860538601875,0.006437147967517376,-2.938526153564453,1023.30493,
2021.02.09 08:26:27,45.0,17.0,5.16,-25.32,-39.12,-0.17238252,0.50517654,9.765948,-0.039095376,-0.010995574,-0.004276057,-0.051674261689186096,0.01764955371618271,-2.951792001724243,1023.31714,
2021.02.09 08:26:27,45.0,17.0,5.16,-25.859999,-38.94,-0.15801731,0.51475334,9.713276,-0.03726278,-0.0036651916,-0.01282817,-0.052938301116228104,0.01626674458384514,-2.9533562660217285,1023.31714,
2021.02.09 08:26:27,45.0,17.0,5.3399997,-26.039999,-38.64,-0.11252748,0.51475334,9.856929,-0.021991149,-0.009773844,0.01038471,-0.05217169225215912,0.011415583081543446,-2.940141201019287,1023.31714,
2021.02.09 08:26:27,45.0,17.0,5.3399997,-26.519999,-38.579998,-0.088585466,0.51475334,9.528923,-0.004276057,-0.026267206,0.017104227,-0.053965307772159576,0.009296214208006859,-2.940197706222534,1023.31714,
2021.02.09 08:26:27,45.0,17.0,5.7,-26.58,-38.34,-0.1412579,0.47165772,9.643845,0.022602014,6.1086525E-4,0.017104227,-0.048863474279642105,0.014646419323980808,-2.9362778663635254,1023.31494,
2021.02.09 08:26:27,45.0,17.0,5.4,-26.46,-38.04,-0.01436521,0.51954174,9.7324295,-0.018936822,-0.019547688,0.01282817,-0.05333185940980911,0.0014760138001292944,-2.9259369373321533,1023.31494,
2021.02.09 08:26:27,45.0,17.0,5.22,-26.82,-38.04,-0.079008654,0.50996494,9.722853,-0.029321533,-0.01160644,0.019547688,-0.052400391548871994,0.00812589842826128,-2.94602108001709,1023.31494,
2021.02.09 08:26:27,45.0,17.0,4.74,-26.88,-38.16,-0.11731588,0.46447513,9.725247,-0.015882496,-0.009162978,0.0061086523,-0.04771999269723892,0.0120624378323555,-2.9722373485565186,1023.31494,
2021.02.09 08:26:27,45.0,17.0,4.38,-27.18,-38.46,-0.1412579,0.46208093,9.65821,-0.013439035,-0.0036651916,0.0012217305,-0.047801773995161057,0.014624638482928276,-2.9918975830078125,1023.3113,
2021.02.09 08:26:27,45.0,17.0,4.62,-27.18,-38.579998,-0.17238252,0.46926352,9.639056,-0.002443461,-0.002443461,0.01160644,-0.04863738268613815,0.0178818479180336,-2.987321376800537,1023.3113,
2021.02.09 08:26:27,45.0,17.0,5.1,-26.64,-39.059998,0.009576807,0.48362875,9.7084875,-0.025045475,-0.016493361,0.014660766,-0.04977387934923172,-9.864362655207515E-4,-2.9361889362335205,1023.3113,
2021.02.09 08:26:27,45.0,17.0,5.3399997,-26.46,-38.76,-0.059855044,0.45968673,9.593566,-0.019547688,0.0030543262,0.010995574,-0.04787860065698624,0.006239000707864761,-2.937028646469116,1023.3113,
2021.02.09 08:26:27,45.0,17.0,5.52,-26.22,-38.94,-0.095768064,0.4405331,9.799467,-0.03481932,-0.007941248,0.008552114,-0.04492241144180298,0.009772472083568573,-2.934354543685913,1023.31226,
2021.02.09 08:26:27,45.0,17.0,5.58,-25.8,-39.059998,-0.055066638,0.45010993,9.698911,-0.026267206,0.0018325958,0.007941248,-0.04637427255511284,0.005677549634128809,-2.9215846061706543,1023.31226,
2021.02.09 08:26:27,45.0,17.0,5.4,-26.22,-38.399998,-0.02873042,0.48123455,9.648633,-0.020158553,0.009162978,0.002443461,-0.04983441159129143,0.0029776585288345814,-2.9271888732910156,1023.31226,
2021.02.09 08:26:27,45.0,17.0,5.46,-26.16,-38.1,-0.08140286,0.45250413,9.636662,-0.030543262,0.013439035,0.0036651916,-0.04692038893699646,0.008447005413472652,-2.933572292327881,1023.31226,
2021.02.09 08:26:27,45.0,17.0,5.58,-26.279999,-38.16,-0.038307227,0.41180268,9.765948,-0.04337143,0.0036651916,-0.002443461,-0.042141906917095184,0.003922509960830212,-2.9247446060180664,1023.30054,
2021.02.09 08:26:27,45.0,17.0,5.58,-26.519999,-38.46,-0.079008654,0.37110126,9.933543,-0.07452556,0.007330383,-0.0061086523,-0.03733985126018524,0.007953555323183537,-2.9342007637023926,1023.30054,
2021.02.09 08:26:27,45.0,17.0,6.06,-26.279999,-38.82,-0.074220255,0.4189853,9.689334,-0.010995574,-0.009773844,-0.002443461,-0.04321371763944626,0.007659845985472202,-2.9112820625305176,1023.30054,
2021.02.09 08:26:27,45.0,17.0,5.8799996,-26.039999,-39.66,-0.088585466,0.38067806,9.706094,0.02076942,-6.1086525E-4,0.004276057,-0.03919879347085953,0.009126534685492516,-2.9197545051574707,1023.30054,
2021.02.09 08:26:27,45.0,17.0,5.58,-25.74,-39.54,-0.04309563,0.39743748,9.7084875,-0.0036651916,-0.004886922,-0.0018325958,-0.04091386869549751,0.004438934847712517,-2.9209935665130615,1023.30273,
2021.02.09 08:26:27,45.0,17.0,5.04,-25.859999,-39.239998,-0.15801731,0.36631286,9.713276,0.0036651916,0.0030543262,-0.0067195175,-0.03768974915146828,0.01626674272119999,-2.9628546237945557,1023.30273,
2021.02.09 08:26:27,45.0,17.0,4.38,-26.099998,-39.239998,-0.050278235,0.4189853,9.552865,0.008552114,-0.007941248,-0.0012217305,-0.04383094981312752,0.005263109225779772,-2.9718801975250244,1023.30273,
2021.02.09 08:26:27,45.0,17.0,4.5,-26.099998,-38.579998,-0.10295067,0.35913026,9.986216,-0.01282817,0.008552114,-0.002443461,-0.03594519942998886,0.010308912955224514,-2.976987600326538,1023.30273,
2021.02.09 08:26:28,45.0,17.0,4.56,-26.039999,-38.879997,-0.055066638,0.4165911,9.545682,-0.0030543262,-0.018936822,-0.0061086523,-0.043613433837890625,0.005768684204667807,-2.9651641845703125,1023.2976,
2021.02.09 08:26:28,45.0,17.0,4.74,-25.26,-38.94,-0.04070143,0.3878607,9.464279,0.032375857,0.010995574,0.0067195175,-0.040958236902952194,0.004300504922866821,-2.9505579471588135,1023.2976,
2021.02.09 08:26:28,45.0,17.0,4.7999997,-25.019999,-38.94,0.038307227,0.34237084,9.536105,-0.017104227,0.0018325958,0.0018325958,-0.03588688373565674,-0.004017050843685865,-2.9346485137939453,1023.2976,
2021.02.09 08:26:28,45.0,17.0,4.92,-25.019999,-39.059998,0.0,0.34955344,9.8042555,-0.06169739,0.0030543262,-0.012217305,-0.03563813865184784,1.0E-6,-2.936166524887085,1023.2976,
2021.02.09 08:26:28,45.0,17.0,4.3199997,-25.199999,-38.64,0.090979666,0.4333505,11.068395,-0.1704314,-0.058643065,-0.015271631,-0.03913075476884842,-0.008219585753977299,-2.9481263160705566,1023.30615,
