Time,X-cord,Y-cord,Mag_x,Mag_y,Mag_z,Acc_x,Acc_y,Acc_z,Gyro_x,Gyro_y,Gyro_z,Orn_x,Orn_y,Orn_z,Pressure,
2021.02.09 08:21:41,24.0,24.0,33.3,-2.52,-48.539997,-0.10534488,0.4237737,9.32781,0.116675265,0.13561209,0.020158553,-0.04539709910750389,0.011293154209852219,-1.5798850059509277,1023.2822,
2021.02.09 08:21:41,24.0,24.0,33.42,-2.7,-48.36,0.08140286,0.60094464,8.918402,0.051923547,-0.030543262,0.092240654,-0.06727804988622665,-0.00912726391106844,-1.5549507141113281,1023.29297,
2021.02.09 08:21:41,24.0,24.0,33.66,-3.24,-48.18,-0.021547815,0.36152446,9.734824,-0.10629055,-0.034208454,0.0030543262,-0.03712008520960808,0.0022134738974273205,-1.6138942241668701,1023.29297,
2021.02.09 08:21:41,24.0,24.0,33.84,-3.48,-47.76,-0.18195933,0.39504328,10.007763,-0.17837265,-0.0067195175,6.1086525E-4,-0.03944668918848038,0.018179815262556076,-1.6183806657791138,1023.29297,
2021.02.09 08:21:41,24.0,24.0,33.899998,-3.84,-47.52,-0.12210429,0.40701428,9.935937,-0.1020145,0.0036651916,0.017104227,-0.0409378744661808,0.012288537807762623,-1.62702214717865,1023.29297,
2021.02.09 08:21:41,24.0,24.0,34.079998,-3.4199998,-47.34,0.16759412,0.47165772,9.715671,-0.030543262,-0.020158553,0.028710667,-0.04850079119205475,-0.017248166725039482,-1.6037348508834839,1023.28784,
2021.02.09 08:21:41,24.0,24.0,33.899998,-2.6399999,-47.039997,0.02633622,0.37349546,9.7324295,-0.0061086523,-0.020158553,-0.020158553,-0.03835742175579071,-0.0027060206048190594,-1.595409631729126,1023.28784,
2021.02.09 08:21:41,24.0,24.0,33.78,-2.52,-46.98,-0.25617957,0.36152446,9.607931,-0.010995574,-0.01160644,-0.08552113,-0.03759662061929703,0.02665702812373638,-1.5929090976715088,1023.28784,
2021.02.09 08:21:41,24.0,24.0,33.54,-2.22,-46.98,-0.20829555,0.31364042,9.873688,-0.04886922,-0.0061086523,-0.057421334,-0.031747542321681976,0.021092895418405533,-1.5924731492996216,1023.28784,
2021.02.09 08:21:41,24.0,24.0,33.12,-2.1599998,-46.98,-0.19153613,0.22984336,9.7803135,0.021991149,-0.009773844,-0.04153884,-0.023491784930229187,0.01958134025335312,-1.6031155586242676,1023.2881,
2021.02.09 08:21:41,24.0,24.0,33.0,-2.22,-47.28,-0.25378537,0.16759412,9.564836,0.05009095,-0.009162978,-0.02565634,-0.017513949424028397,0.02652694284915924,-1.6141481399536133,1023.2881,
2021.02.09 08:21:41,24.0,24.0,33.239998,-2.1599998,-47.64,-0.1388637,0.25617957,9.557653,0.037873644,-0.02565634,0.0,-0.02679436281323433,0.014528035186231136,-1.5975254774093628,1023.2881,
2021.02.09 08:21:41,24.0,24.0,33.42,-2.1,-47.76,-0.19871874,0.39264908,9.40203,0.047647487,-0.01282817,-0.013439035,-0.04172859713435173,0.021132580935955048,-1.573165774345398,1023.2881,
2021.02.09 08:21:41,24.0,24.0,33.42,-1.8,-47.64,-0.2657564,0.45968673,9.876082,-0.032986723,-0.0012217305,-0.05009095,-0.04649507626891136,0.02690259926021099,-1.5565674304962158,1023.2893,
2021.02.09 08:21:41,24.0,24.0,33.48,-1.56,-47.94,-0.22026655,0.40462008,9.837775,-0.002443461,0.007330383,-0.051923547,-0.04109576717019081,0.022386133670806885,-1.557179570198059,1023.2893,
2021.02.09 08:21:41,24.0,24.0,33.48,-1.3199999,-47.82,-0.34955344,0.33039984,9.770737,0.05375614,0.0036651916,-0.021380283,-0.033780768513679504,0.035760294646024704,-1.5602376461029053,1023.2893,
2021.02.09 08:21:41,24.0,24.0,33.3,-1.1999999,-48.0,-0.36870706,0.36870706,9.320627,0.07513642,0.004886922,-6.1086525E-4,-0.039506696164608,0.039537567645311356,-1.5469846725463867,1023.2893,
2021.02.09 08:21:41,24.0,24.0,33.0,-1.4399999,-48.239998,-0.1316811,0.45968673,9.746795,-0.02687807,-0.026267206,0.009162978,-0.04712364450097084,0.013509374111890793,-1.5443753004074097,1023.2903,
2021.02.09 08:21:41,24.0,24.0,32.7,-1.74,-48.059998,-0.29448682,0.4357447,9.82341,-0.019547688,-0.005497787,-0.02443461,-0.044308848679065704,0.02996908873319626,-1.556941032409668,1023.2903,
2021.02.09 08:21:41,24.0,24.0,32.1,-1.8,-48.42,-0.25617957,0.48362875,9.6845455,0.007941248,-0.015271631,-0.017715093,-0.04987933114171028,0.02644624188542366,-1.5494459867477417,1023.2903,
2021.02.09 08:21:41,24.0,24.0,32.46,-1.86,-48.539997,-0.19632454,0.46686932,9.627085,0.0030543262,-0.0018325958,-0.019547688,-0.0484473779797554,0.020390111953020096,-1.5541291236877441,1023.2903,
2021.02.09 08:21:41,24.0,24.0,32.94,-2.04,-48.899998,-0.23702596,0.5554548,9.715671,-0.012217305,-0.013439035,-0.019547688,-0.05709190294146538,0.0243914145976305,-1.5456386804580688,1023.2915,
2021.02.09 08:21:41,24.0,24.0,32.94,-1.8,-49.14,-0.2825158,0.4381389,9.734824,-0.01160644,-0.021991149,-0.020158553,-0.044958122074604034,0.029013007879257202,-1.5564378499984741,1023.2915,
2021.02.09 08:21:41,24.0,24.0,33.239998,-1.68,-48.719997,-0.2825158,0.4429273,9.718064,-0.01160644,0.007330383,-0.014660766,-0.04552699998021126,0.029063014313578606,-1.5525000095367432,1023.2915,
2021.02.09 08:21:41,24.0,24.0,32.7,-1.8,-48.539997,-0.15083471,0.45489833,9.861717,-0.031154128,-0.028710667,0.0018325958,-0.046089641749858856,0.015293781645596027,-1.5563675165176392,1023.2915,
2021.02.09 08:21:42,24.0,24.0,32.28,-1.1999999,-48.239998,-0.15562311,0.50517654,9.552865,0.05131268,-0.018936822,-6.1086525E-4,-0.052825991064310074,0.01628928631544113,-1.5271199941635132,1023.2905,
2021.02.09 08:21:42,24.0,24.0,32.52,-1.0799999,-48.0,-0.17238252,0.48362875,9.572019,0.021991149,-0.0067195175,-0.0030543262,-0.05047416314482689,0.018007056787610054,-1.5274667739868164,1023.2905,
2021.02.09 08:21:42,24.0,24.0,32.16,-1.38,-48.0,-0.23463176,0.4429273,10.065224,-0.022602014,-0.017715093,-0.015882496,-0.043965406715869904,0.023306911811232567,-1.5462026596069336,1023.2905,
2021.02.09 08:21:42,24.0,24.0,32.28,-1.14,-48.18,-0.19871874,0.50517654,9.454702,0.025045475,0.0061086523,-6.1086525E-4,-0.05336872488260269,0.02101488783955574,-1.5238920450210571,1023.2905,
2021.02.09 08:21:42,24.0,24.0,32.46,-1.5,-48.12,-0.110133275,0.45489833,9.576807,0.03176499,-0.021991149,0.0,-0.047461189329624176,0.011499492451548576,-1.5456571578979492,1023.3042,
2021.02.09 08:21:42,24.0,24.0,31.859999,-1.68,-47.94,-0.1388637,0.48362875,9.753978,0.004886922,6.1086525E-4,0.010995574,-0.04953713342547417,0.014235660433769226,-1.5477648973464966,1023.3042,
2021.02.09 08:21:42,24.0,24.0,32.16,-1.4399999,-48.42,-0.17477672,0.4285621,9.885659,-0.027488936,-0.019547688,-0.022602014,-0.043318010866642,0.01767798326909542,-1.548995852470398,1023.3042,
2021.02.09 08:21:42,24.0,24.0,32.1,-1.92,-48.239998,-0.12928689,0.51714754,9.545682,0.040317107,-0.0012217305,-0.007941248,-0.05411820486187935,0.013543189503252506,-1.5480461120605469,1023.3042,
2021.02.09 08:21:42,24.0,24.0,31.8,-1.5,-48.66,-0.11731588,0.47165772,9.624691,0.007941248,0.010995574,-0.015882496,-0.048962172120809555,0.012188451364636421,-1.5418939590454102,1023.3032,
2021.02.09 08:21:42,24.0,24.0,32.28,-1.9799999,-48.84,-0.11731588,0.49081135,9.928755,0.0030543262,-0.004886922,-0.014660766,-0.04938966780900955,0.01181522011756897,-1.5565298795700073,1023.3032,
2021.02.09 08:21:42,24.0,24.0,32.34,-2.52,-48.42,-0.062249243,0.5243302,9.437943,0.051923547,0.009162978,-0.0067195175,-0.05549730360507965,0.0065955412574112415,-1.5651295185089111,1023.3032,
2021.02.09 08:21:42,24.0,24.0,32.579998,-2.6399999,-48.42,-0.10055647,0.48123455,9.648633,0.018936822,-0.015882496,-0.014049901,-0.04983193427324295,0.010421458631753922,-1.5772837400436401,1023.3032,
2021.02.09 08:21:42,24.0,24.0,33.0,-3.12,-48.36,-0.12210429,0.58418524,9.627085,0.007941248,0.010995574,-0.02076942,-0.060602251440286636,0.012682732194662094,-1.5757440328598022,1023.29565,
2021.02.09 08:21:42,24.0,24.0,32.94,-2.76,-48.36,-0.23702596,0.5530606,9.648633,0.0061086523,0.008552114,-0.029932396,-0.057240214198827744,0.02456081472337246,-1.5690134763717651,1023.29565,
2021.02.09 08:21:42,24.0,24.0,32.82,-2.1599998,-48.539997,-0.14844051,0.5554548,9.713276,0.0036651916,0.0067195175,-0.014049901,-0.057116247713565826,0.015281040221452713,-1.5507599115371704,1023.29565,
2021.02.09 08:21:42,24.0,24.0,32.7,-1.56,-48.719997,-0.16759412,0.60094464,9.770737,0.020158553,-0.004276057,-0.007941248,-0.06141814589500427,0.01715097762644291,-1.5247726440429688,1023.29565,
2021.02.09 08:21:42,24.0,24.0,32.82,-1.68,-48.239998,-0.1412579,0.5722142,9.643845,0.042760566,-0.014049901,-0.0061086523,-0.059258826076984406,0.014646420255303383,-1.5331907272338867,1023.2988,
2021.02.09 08:21:42,24.0,24.0,32.88,-1.74,-48.36,-0.062249243,0.61770403,9.471462,0.037873644,-0.018936822,0.0030543262,-0.06512375175952911,0.006572200451046228,-1.527065634727478,1023.2988,
2021.02.09 08:21:42,24.0,24.0,33.059998,-1.74,-48.66,-0.1436521,0.58657944,9.753978,-0.02443461,-0.007330383,-0.0067195175,-0.06005861982703209,0.01472647488117218,-1.5333141088485718,1023.2988,
2021.02.09 08:21:42,24.0,24.0,32.52,-1.56,-48.899998,-0.12689269,0.59136784,9.694122,-0.02076942,0.007330383,-0.008552114,-0.06092201545834541,0.013088904321193695,-1.5254721641540527,1023.2988,
2021.02.09 08:21:42,24.0,24.0,32.16,-1.56,-49.079998,-0.107739076,0.58418524,9.701305,-0.01038471,-0.004276057,-0.0030543262,-0.06014085188508034,0.011105170473456383,-1.5260964632034302,1023.291,
2021.02.09 08:21:42,24.0,24.0,31.859999,-1.62,-49.02,-0.1316811,0.59376204,9.607931,-0.0067195175,0.0012217305,-0.0067195175,-0.061714883893728256,0.013704600743949413,-1.5248750448226929,1023.291,
2021.02.09 08:21:42,24.0,24.0,31.98,-1.8,-48.6,-0.18674773,0.5770026,9.674969,-0.02687807,0.01160644,-0.009162978,-0.05955708026885986,0.019299756735563278,-1.5343340635299683,1023.291,
2021.02.09 08:21:42,24.0,24.0,32.399998,-2.1599998,-48.36,-0.17717093,0.5291186,9.8042555,-0.022602014,-6.1086525E-4,-0.002443461,-0.05390717089176178,0.01806885376572609,-1.5555713176727295,1023.291,
2021.02.09 08:21:42,24.0,24.0,32.579998,-1.92,-48.6,-0.06464344,0.61530983,9.481039,0.0030543262,-0.0012217305,0.018936822,-0.06480659544467926,0.00681807566434145,-1.532185435295105,1023.29175,
2021.02.09 08:21:43,24.0,24.0,32.46,-1.68,-48.84,-0.11971009,0.5386954,9.667787,-0.030543262,0.007330383,0.007941248,-0.05565883591771126,0.012381735257804394,-1.5374764204025269,1023.29175,
2021.02.09 08:21:43,24.0,24.0,32.1,-1.62,-48.96,-0.18435353,0.50517654,9.873688,-0.044593163,0.0061086523,-0.0061086523,-0.05111045017838478,0.018669024109840393,-1.541505217552185,1023.29175,
2021.02.09 08:21:43,24.0,24.0,31.98,-1.74,-49.02,-0.15562311,0.60573304,9.648633,-0.0030543262,0.013439035,0.009773844,-0.06268874555826187,0.016127632930874825,-1.5270113945007324,1023.29175,
2021.02.09 08:21:43,24.0,24.0,31.98,-1.5,-48.84,-0.090979666,0.5482722,9.682152,0.004886922,0.0012217305,0.0067195175,-0.056564200669527054,0.009396360255777836,-1.5301967859268188,1023.28564,
2021.02.09 08:21:43,24.0,24.0,32.28,-1.56,-48.66,-0.06464344,0.5626374,9.7324295,0.009773844,0.0061086523,0.01160644,-0.057745032012462616,0.006641968619078398,-1.5312869548797607,1023.28564,
2021.02.09 08:21:43,24.0,24.0,32.28,-1.5,-48.719997,-0.17477672,0.50757074,9.634268,0.002443461,0.0036651916,0.0,-0.0526265911757946,0.01813916116952896,-1.535920262336731,1023.28564,
2021.02.09 08:21:43,24.0,24.0,32.1,-1.3199999,-48.239998,-0.12210429,0.557849,9.744401,0.005497787,0.01282817,-0.0012217305,-0.057181257754564285,0.01253005675971508,-1.5244115591049194,1023.28564,
2021.02.09 08:21:43,24.0,24.0,31.98,-1.3199999,-48.42,-0.11971009,0.5722142,9.646238,0.007330383,6.1086525E-4,-0.0018325958,-0.05924594774842262,0.0124093908816576,-1.5207180976867676,1023.27686,
2021.02.09 08:21:43,24.0,24.0,32.04,-1.26,-48.6,-0.1604115,0.521936,9.830592,0.01160644,-0.007330383,-0.002443461,-0.05303618311882019,0.016316134482622147,-1.5277572870254517,1023.27686,
2021.02.09 08:21:43,24.0,24.0,32.219997,-1.4399999,-48.42,0.0,0.59855044,9.572019,0.043982297,0.005497787,0.005497787,-0.062449950724840164,1.0E-6,-1.521653175354004,1023.27686,
2021.02.09 08:21:43,24.0,24.0,32.46,-1.68,-48.3,-0.19153613,0.5291186,9.696517,0.007330383,0.007330383,-0.018936822,-0.05450322479009628,0.01975051686167717,-1.5394378900527954,1023.27686,
2021.02.09 08:21:43,24.0,24.0,32.82,-2.04,-48.6,-0.19871874,0.5530606,9.519346,0.016493361,0.016493361,-0.01038471,-0.05802074074745178,0.020872218534350395,-1.5449906587600708,1023.2749,
2021.02.09 08:21:43,24.0,24.0,33.36,-1.86,-48.239998,-0.16998832,0.521936,9.768343,6.1086525E-4,0.0012217305,-0.008552114,-0.053372547030448914,0.01740020327270031,-1.547836184501648,1023.2749,
2021.02.09 08:21:43,24.0,24.0,33.48,-1.74,-48.48,-0.11731588,0.59855044,9.5385,0.017104227,0.004886922,-0.0067195175,-0.06266409903764725,0.012298576533794403,-1.530523419380188,1023.2749,
2021.02.09 08:21:43,24.0,24.0,33.42,-1.5,-49.079998,-0.25857377,0.47644615,9.679757,-0.010995574,0.0036651916,-0.012217305,-0.04916367679834366,0.026706483215093613,-1.5409961938858032,1023.2749,
2021.02.09 08:21:43,24.0,24.0,33.12,-1.68,-48.48,-0.18674773,0.5267244,9.624691,-0.0061086523,-0.010995574,0.009162978,-0.05466156825423241,0.019400551915168762,-1.539544939994812,1023.27856,
2021.02.09 08:21:43,24.0,24.0,32.76,-1.74,-48.6,-0.08379706,0.5746084,9.629479,-0.0067195175,-0.0061086523,0.009773844,-0.059598878026008606,0.00870191864669323,-1.5344825983047485,1023.27856,
2021.02.09 08:21:43,24.0,24.0,32.46,-1.86,-48.42,-0.20111294,0.51954174,9.68694,-0.02076942,0.0061086523,-0.002443461,-0.05357035622000694,0.020758261904120445,-1.5462901592254639,1023.27856,
2021.02.09 08:21:43,24.0,24.0,32.7,-1.74,-48.239998,-0.16759412,0.521936,9.662998,-0.018325957,0.0030543262,0.0061086523,-0.05395334213972092,0.017342165112495422,-1.5427368879318237,1023.27856,
2021.02.09 08:21:43,24.0,24.0,32.82,-1.4399999,-48.42,-0.15322891,0.5386954,9.715671,-0.018325957,0.0018325958,0.0,-0.05538244545459747,0.01577000878751278,-1.53117036819458,1023.27954,
2021.02.09 08:21:43,24.0,24.0,32.52,-1.62,-48.6,-0.14604631,0.5315128,9.622296,6.1086525E-4,0.0036651916,-0.0030543262,-0.05517520755529404,0.015176741406321526,-1.5365248918533325,1023.27954,
2021.02.09 08:21:43,24.0,24.0,32.76,-1.62,-48.66,-0.12449849,0.5386954,9.727641,-0.007941248,0.0012217305,-6.1086525E-4,-0.055316776037216187,0.012797726318240166,-1.5367099046707153,1023.27954,
2021.02.09 08:21:43,24.0,24.0,32.76,-1.8,-48.84,-0.25139117,0.48123455,9.694122,-0.01160644,0.007330383,-0.014660766,-0.0495845302939415,0.025926517322659492,-1.5497020483016968,1023.27954,
2021.02.09 08:21:43,24.0,24.0,32.64,-1.8,-48.96,-0.20590134,0.533907,9.560047,-0.0036651916,0.01282817,6.1086525E-4,-0.05577687546610832,0.021534360945224762,-1.5400643348693848,1023.28345,
2021.02.09 08:21:43,24.0,24.0,33.0,-1.68,-48.96,-0.1436521,0.50517654,9.67018,-0.01160644,-0.007330383,6.1086525E-4,-0.05218746140599251,0.014854068867862225,-1.5428662300109863,1023.28345,
2021.02.09 08:21:44,24.0,24.0,32.76,-1.56,-48.899998,-0.19871874,0.5363012,9.737218,-0.017104227,0.007941248,-0.002443461,-0.05501043424010277,0.020405331626534462,-1.5340567827224731,1023.28345,
2021.02.09 08:21:44,24.0,24.0,32.88,-1.38,-48.48,-0.22026655,0.49559975,9.672575,-0.009773844,-0.005497787,-6.1086525E-4,-0.051179610192775726,0.02276834100484848,-1.5349400043487549,1023.28345,
2021.02.09 08:21:44,24.0,24.0,33.12,-1.26,-48.059998,-0.11492168,0.49320555,9.610326,0.007330383,6.1086525E-4,0.015271631,-0.05127173289656639,0.01195757556706667,-1.5331772565841675,1023.28345,
2021.02.09 08:21:44,24.0,24.0,32.76,-1.4399999,-47.82,-0.16759412,0.533907,9.794679,-0.019547688,6.1086525E-4,0.0018325958,-0.05444806069135666,0.017109062522649765,-1.5334066152572632,1023.28345,
2021.02.09 08:21:44,24.0,24.0,33.12,-1.62,-48.18,-0.2657564,0.48602295,9.787497,-0.013439035,0.007941248,-0.009162978,-0.04959852620959282,0.027145972475409508,-1.5451931953430176,1023.28345,
2021.02.09 08:21:44,24.0,24.0,33.18,-1.68,-48.36,-0.11252748,0.50517654,9.483433,0.028099801,-0.012217305,0.01282817,-0.053215332329273224,0.011865134350955486,-1.542726755142212,1023.28345,
2021.02.09 08:21:44,24.0,24.0,32.94,-1.8,-48.3,-0.16998832,0.47405192,9.636662,0.019547688,0.0,0.019547688,-0.04914528876543045,0.01763792149722576,-1.5520002841949463,1023.27637,
2021.02.09 08:21:44,24.0,24.0,33.18,-1.5,-47.94,-0.24181437,0.5482722,9.809045,-0.034208454,-0.005497787,0.0036651916,-0.05581952631473541,0.024647191166877747,-1.5326216220855713,1023.27637,
2021.02.09 08:21:44,24.0,24.0,32.76,-1.5,-47.94,-0.18195933,0.51714754,9.744401,0.017104227,-0.01160644,0.020158553,-0.05301228165626526,0.018671048805117607,-1.537089228630066,1023.27637,
2021.02.09 08:21:44,24.0,24.0,32.28,-1.1999999,-47.52,-0.074220255,0.5243302,9.464279,0.034208454,-0.008552114,0.02687807,-0.05534268915653229,0.007841984741389751,-1.5255603790283203,1023.27637,
2021.02.09 08:21:44,24.0,24.0,32.04,-1.4399999,-47.34,-0.17477672,0.49320555,9.660604,-0.021380283,0.004276057,0.0061086523,-0.05100066587328911,0.018089724704623222,-1.5385946035385132,1023.26807,
2021.02.09 08:21:44,24.0,24.0,31.619999,-1.62,-47.64,-0.24420857,0.51475334,9.842564,-0.013439035,-0.007330383,0.010995574,-0.05223505571484566,0.024806391447782516,-1.5409077405929565,1023.26807,
2021.02.09 08:21:44,24.0,24.0,31.619999,-1.74,-47.82,-0.074220255,0.5770026,9.591172,0.030543262,-0.01038471,0.026267206,-0.06008554622530937,0.007738237734884024,-1.5340338945388794,1023.26807,
2021.02.09 08:21:44,24.0,24.0,31.679998,-2.28,-47.94,-0.17238252,0.51235914,9.679757,0.018936822,-0.015882496,0.014660766,-0.05287327244877815,0.017806675285100937,-1.5615121126174927,1023.26807,
2021.02.09 08:21:44,24.0,24.0,32.1,-2.1,-48.48,-0.16998832,0.521936,9.495404,0.02565634,-0.007330383,0.017104227,-0.05490318313241005,0.0179002545773983,-1.5517562627792358,1023.27563,
2021.02.09 08:21:44,24.0,24.0,32.1,-2.22,-48.6,-0.15801731,0.5410896,9.701305,-0.010995574,-0.01038471,0.020158553,-0.05570982024073601,0.016286812722682953,-1.5542412996292114,1023.27563,
2021.02.09 08:21:44,24.0,24.0,32.1,-2.1599998,-48.3,-0.107739076,0.58897364,9.696517,-0.0018325958,-0.007330383,0.023823744,-0.06066247075796127,0.011110654100775719,-1.5456565618515015,1023.27563,
2021.02.09 08:21:44,24.0,24.0,32.34,-2.28,-48.66,-0.079008654,0.59855044,9.629479,0.01160644,-0.009162978,0.019547688,-0.062076181173324585,0.008204689249396324,-1.5470235347747803,1023.27563,
2021.02.09 08:21:44,24.0,24.0,32.28,-2.1,-48.66,-0.17477672,0.59376204,9.770737,-0.004886922,-0.0030543262,0.01160644,-0.06068510189652443,0.01788586564362049,-1.5424789190292358,1023.28345,
2021.02.09 08:21:44,24.0,24.0,32.46,-2.1,-48.719997,-0.15083471,0.59615624,9.610326,0.01282817,-0.0036651916,0.014049901,-0.06194589287042618,0.015693778172135353,-1.5407888889312744,1023.28345,
2021.02.09 08:21:44,24.0,24.0,32.46,-1.9799999,-49.26,-0.074220255,0.62728083,9.536105,0.013439035,-0.016493361,0.02321288,-0.06568295508623123,0.007782921195030212,-1.531099557876587,1023.28345,
2021.02.09 08:21:44,24.0,24.0,32.7,-1.5,-48.96,-0.20350714,0.5530606,9.82341,-0.018325957,0.0030543262,0.013439035,-0.05622885003685951,0.020713582634925842,-1.5300549268722534,1023.28345,
2021.02.09 08:21:44,24.0,24.0,32.76,-1.86,-48.66,-0.090979666,0.60573304,9.674969,0.004276057,-0.01038471,0.015882496,-0.06252390146255493,0.00940333679318428,-1.533564567565918,1023.29736,
2021.02.09 08:21:44,24.0,24.0,33.18,-1.9799999,-48.48,0.0023942017,0.62488663,9.49301,0.043982297,-0.009773844,0.027488936,-0.06573115289211273,-2.5220680981874466E-4,-1.5344159603118896,1023.29736,
2021.02.09 08:21:44,24.0,24.0,33.0,-2.28,-48.12,-0.14604631,0.5793968,9.646238,0.0,-0.004276057,0.008552114,-0.05998559296131134,0.015139077790081501,-1.5510114431381226,1023.29736,
2021.02.09 08:21:45,24.0,24.0,33.0,-2.52,-48.239998,-0.079008654,0.62488663,9.801862,-0.020158553,-0.002443461,0.01038471,-0.06366360187530518,0.008060401305556297,-1.5532885789871216,1023.29736,
2021.02.09 08:21:45,24.0,24.0,33.12,-2.3999999,-48.66,-0.009576807,0.6440403,9.564836,0.01160644,-0.014660766,0.015271631,-0.0672326534986496,0.0010012511629611254,-1.5442923307418823,1023.29004,
2021.02.09 08:21:45,24.0,24.0,32.7,-2.34,-48.899998,-0.06943185,0.61291564,9.581595,0.018325957,-0.002443461,0.009773844,-0.06387930363416672,0.007246249355375767,-1.5460249185562134,1023.29004,
2021.02.09 08:21:45,24.0,24.0,32.88,-1.9799999,-48.78,-0.10534488,0.5793968,9.694122,-0.010995574,-0.007941248,-0.005497787,-0.05969331040978432,0.010866453871130943,-1.54128897190094,1023.29004,
2021.02.09 08:21:45,24.0,24.0,32.76,-1.92,-48.96,-0.10534488,0.62249243,9.648633,0.0036651916,-0.0036651916,0.0,-0.06442300975322723,0.010917680338025093,-1.5317518711090088,1023.29004,
2021.02.09 08:21:45,24.0,24.0,32.64,-2.04,-48.96,-0.011971008,0.62009823,9.653421,0.004276057,-0.004886922,0.0,-0.06414792686700821,0.001240078709088266,-1.5368822813034058,1023.2849,
2021.02.09 08:21:45,24.0,24.0,32.64,-1.62,-49.14,-0.10055647,0.5650316,9.655815,0.0012217305,-0.0067195175,-0.008552114,-0.05844741687178612,0.010413708165287971,-1.5311944484710693,1023.2849,
2021.02.09 08:21:45,24.0,24.0,32.579998,-2.04,-49.14,-0.06703765,0.60812724,9.545682,0.01160644,0.0018325958,-0.002443461,-0.06361950188875198,0.007022709585726261,-1.536599040031433,1023.2849,
2021.02.09 08:21:45,24.0,24.0,32.52,-2.1,-49.079998,-0.10055647,0.59855044,9.68694,-0.01160644,0.004886922,-0.01160644,-0.061707645654678345,0.010380249470472336,-1.541083812713623,1023.2849,
2021.02.09 08:21:45,24.0,24.0,32.28,-1.92,-48.899998,-0.11731588,0.61291564,9.591172,-0.0061086523,0.0,-0.007941248,-0.06381261348724365,0.012231041677296162,-1.5320786237716675,1023.2837,
2021.02.09 08:21:45,24.0,24.0,32.219997,-2.1599998,-48.539997,-0.045489833,0.61530983,9.591172,-0.012217305,0.0030543262,-0.005497787,-0.06406525522470474,0.004742850083857775,-1.5407397747039795,1023.2837,
2021.02.09 08:21:45,24.0,24.0,32.34,-1.92,-48.899998,-0.17477672,0.58418524,9.82341,-0.032986723,0.004276057,-0.016493361,-0.059389352798461914,0.01778998225927353,-1.538406491279602,1023.2837,
2021.02.09 08:21:45,24.0,24.0,32.219997,-2.34,-48.539997,-0.035913024,0.60573304,9.607931,0.019547688,-0.007330383,-0.005497787,-0.06296133995056152,0.0037378345150500536,-1.548129916191101,1023.2837,
2021.02.09 08:21:45,24.0,24.0,32.28,-2.52,-48.6,-0.059855044,0.58418524,9.55047,-6.1086525E-4,0.004276057,-0.009773844,-0.06109090521931648,0.006267153192311525,-1.5562807321548462,1023.2964,
2021.02.09 08:21:45,24.0,24.0,32.579998,-2.76,-48.36,-0.18195933,0.50757074,9.7803135,-0.036651913,0.009162978,-0.020158553,-0.05184170976281166,0.018602505326271057,-1.577722191810608,1023.2964,
2021.02.09 08:21:45,24.0,24.0,32.46,-2.76,-48.0,-0.08140286,0.59615624,9.734824,-0.005497787,-6.1086525E-4,-0.004276057,-0.06116103380918503,0.008361832238733768,-1.5646965503692627,1023.2964,
2021.02.09 08:21:45,24.0,24.0,32.219997,-2.52,-48.239998,-0.06943185,0.61770403,9.545682,0.02565634,0.004276057,-0.007941248,-0.06461850553750992,0.007273511029779911,-1.5514899492263794,1023.2964,
2021.02.09 08:21:45,24.0,24.0,32.16,-2.76,-48.12,-0.11731588,0.5722142,9.651027,-0.014049901,0.018325957,-0.017715093,-0.059216804802417755,0.012155193835496902,-1.5671346187591553,1023.2883,
2021.02.09 08:21:45,24.0,24.0,32.16,-2.76,-48.6,-0.15801731,0.49559975,9.895236,-0.017715093,0.0018325958,-0.02076942,-0.05003649741411209,0.01596767082810402,-1.580369472503662,1023.2883,
2021.02.09 08:21:45,24.0,24.0,32.34,-2.82,-48.899998,-0.08140286,0.59376204,9.55047,0.037873644,0.004886922,-0.0018325958,-0.06208880990743637,0.008523233234882355,-1.5633840560913086,1023.2883,
2021.02.09 08:21:45,24.0,24.0,32.94,-2.6399999,-49.079998,-0.12928689,0.5554548,9.605537,0.007941248,0.007941248,-0.010995574,-0.05775696784257889,0.01345880702137947,-1.5638912916183472,1023.2883,
2021.02.09 08:21:45,24.0,24.0,33.36,-2.3999999,-49.379997,-0.1412579,0.51475334,9.734824,-0.0067195175,0.005497787,-0.009773844,-0.052822764962911606,0.01450955681502819,-1.5635720491409302,1023.2932,
2021.02.09 08:21:45,24.0,24.0,33.059998,-1.9799999,-49.14,-0.10534488,0.5674258,9.639056,6.1086525E-4,0.0067195175,-0.0067195175,-0.058795999735593796,0.010928526520729065,-1.5421441793441772,1023.2932,
2021.02.09 08:21:45,24.0,24.0,32.82,-1.9799999,-48.539997,-0.110133275,0.5386954,9.639056,0.0030543262,0.002443461,-0.01160644,-0.05582502484321594,0.011425234377384186,-1.5474871397018433,1023.2932,
2021.02.09 08:21:45,24.0,24.0,32.34,-1.9799999,-48.42,-0.11731588,0.545878,9.576807,0.005497787,0.0030543262,-0.01160644,-0.05693412944674492,0.012249386869370937,-1.5455751419067383,1023.2932,
2021.02.09 08:21:46,24.0,24.0,32.16,-1.9799999,-48.12,-0.10055647,0.60094464,9.773131,-0.01282817,0.0018325958,-0.008552114,-0.06140890344977379,0.01028871163725853,-1.5393184423446655,1023.29443,
2021.02.09 08:21:46,24.0,24.0,32.579998,-2.3999999,-47.94,-0.17238252,0.5626374,9.782708,-0.014660766,0.0067195175,-0.010995574,-0.05744127556681633,0.01761932298541069,-1.5585466623306274,1023.29443,
2021.02.09 08:21:46,24.0,24.0,32.399998,-2.34,-48.18,-0.12689269,0.5386954,9.500193,0.025045475,-0.0061086523,-0.0061086523,-0.05663793161511421,0.013356058858335018,-1.5577163696289062,1023.29443,
2021.02.09 08:21:46,24.0,24.0,32.76,-2.34,-48.539997,-0.11252748,0.5506664,9.627085,0.01160644,0.01038471,-6.1086525E-4,-0.057133547961711884,0.011688102968037128,-1.5565928220748901,1023.29443,
2021.02.09 08:21:46,24.0,24.0,32.7,-2.34,-48.48,-0.1316811,0.5770026,9.768343,-0.040927973,-0.0036651916,-0.015882496,-0.05899471789598465,0.013479575514793396,-1.5536898374557495,1023.302,
2021.02.09 08:21:46,24.0,24.0,32.579998,-2.1,-48.6,-0.15562311,0.5793968,9.782708,-0.002443461,0.01282817,-0.01038471,-0.059150051325559616,0.01590663753449917,-1.545427918434143,1023.302,
2021.02.09 08:21:46,24.0,24.0,33.0,-1.86,-48.48,-0.10534488,0.5554548,9.504981,0.016493361,-0.0061086523,-0.0067195175,-0.058368317782878876,0.011082669720053673,-1.5402328968048096,1023.302,
2021.02.09 08:21:46,24.0,24.0,32.88,-1.74,-48.059998,-0.095768064,0.59376204,9.646238,0.020158553,0.005497787,0.0,-0.06147315725684166,0.00992769654840231,-1.532676339149475,1023.302,
2021.02.09 08:21:46,24.0,24.0,33.0,-1.8,-48.539997,-0.24420857,0.58418524,9.787497,-0.029321533,0.009773844,-0.022602014,-0.05959765985608101,0.024945899844169617,-1.5348609685897827,1023.2932,
2021.02.09 08:21:46,24.0,24.0,32.7,-1.8,-48.78,-0.15322891,0.5674258,9.68694,0.021380283,0.007941248,0.008552114,-0.058502208441495895,0.01581677421927452,-1.536820650100708,1023.2932,
2021.02.09 08:21:46,24.0,24.0,32.34,-1.92,-49.2,-0.02873042,0.61052144,9.533711,0.023823744,-0.002443461,0.016493361,-0.0639505535364151,0.0030135519336909056,-1.5324708223342896,1023.2932,
2021.02.09 08:21:46,24.0,24.0,31.98,-2.52,-48.899998,-0.20350714,0.5770026,9.689334,-0.023823744,0.016493361,-0.01038471,-0.059466954320669174,0.021000124514102936,-1.5569038391113281,1023.2932,
2021.02.09 08:21:46,24.0,24.0,31.8,-2.22,-48.36,-0.22026655,0.5506664,9.85214,-0.0061086523,-0.002443461,0.002443461,-0.05582105740904808,0.022353501990437508,-1.5538482666015625,1023.2925,
2021.02.09 08:21:46,24.0,24.0,31.859999,-2.46,-48.0,-0.007182605,0.62967503,9.44752,0.03481932,0.0067195175,0.020158553,-0.0665513202548027,7.602633559145033E-4,-1.5475735664367676,1023.2925,
2021.02.09 08:21:46,24.0,24.0,32.64,-2.6399999,-48.0,-0.1412579,0.5722142,9.7084875,-0.021991149,0.0061086523,-0.0061086523,-0.0588652603328228,0.014548911713063717,-1.5640299320220947,1023.2925,
2021.02.09 08:21:46,24.0,24.0,33.12,-2.28,-48.059998,-0.15322891,0.5554548,9.706094,-0.017104227,0.009773844,-0.0018325958,-0.0571579746901989,0.015785565599799156,-1.555383324623108,1023.2925,
2021.02.09 08:21:46,24.0,24.0,33.3,-2.22,-48.3,-0.1364695,0.5626374,9.722853,0.002443461,-0.0030543262,0.0067195175,-0.0577973797917366,0.014035031199455261,-1.552389144897461,1023.2883,
2021.02.09 08:21:46,24.0,24.0,33.48,-1.92,-48.539997,-0.15801731,0.60333884,9.607931,0.010995574,0.002443461,0.0061086523,-0.06270511448383331,0.016445064917206764,-1.535325527191162,1023.2883,
2021.02.09 08:21:46,24.0,24.0,33.12,-1.92,-48.36,-0.18435353,0.56982,9.617508,0.0,0.0030543262,-0.0036651916,-0.059168171137571335,0.019166186451911926,-1.5403565168380737,1023.2883,
2021.02.09 08:21:46,24.0,24.0,32.88,-1.86,-48.42,-0.088585466,0.5554548,9.660604,-0.009162978,0.007941248,0.0030543262,-0.057431258261203766,0.009169508703052998,-1.5418369770050049,1023.2883,
2021.02.09 08:21:46,24.0,24.0,32.64,-2.04,-48.36,-0.15322891,0.5626374,9.617508,-0.023823744,0.005497787,0.0030543262,-0.058427367359399796,0.015930941328406334,-1.545149564743042,1023.29297,
2021.02.09 08:21:46,24.0,24.0,32.34,-2.34,-48.42,-0.16759412,0.5746084,9.950302,-0.049480084,-0.008552114,0.0061086523,-0.05767560750246048,0.016841527074575424,-1.5553789138793945,1023.29297,
2021.02.09 08:21:46,24.0,24.0,32.399998,-2.22,-48.059998,-0.12449849,0.5793968,9.533711,0.0,0.018325957,0.0061086523,-0.060693658888339996,0.013058021664619446,-1.5479909181594849,1023.29297,
2021.02.09 08:21:46,24.0,24.0,32.64,-2.3999999,-48.12,-0.17477672,0.5386954,9.770737,-0.027488936,-0.002443461,-0.0012217305,-0.05506899580359459,0.01788586564362049,-1.5618607997894287,1023.29297,
2021.02.09 08:21:46,24.0,24.0,32.88,-2.6399999,-48.059998,-0.10055647,0.58657944,9.574412,0.0036651916,0.0061086523,0.008552114,-0.061185479164123535,0.010502239689230919,-1.560768961906433,1023.2825,
2021.02.09 08:21:47,24.0,24.0,33.18,-2.58,-47.82,-0.11492168,0.5386954,9.615114,-0.030543262,-0.008552114,0.0,-0.05596340075135231,0.011951621621847153,-1.567091464996338,1023.2825,
2021.02.09 08:21:47,24.0,24.0,32.88,-2.76,-48.36,-0.11731588,0.533907,9.629479,-0.032375857,-0.014049901,6.1086525E-4,-0.055384233593940735,0.012182390317320824,-1.5725549459457397,1023.2825,
2021.02.09 08:21:47,24.0,24.0,33.12,-2.7,-48.12,-0.15801731,0.48123455,9.763555,-0.045814894,-0.009773844,-0.008552114,-0.04924257472157478,0.01618299074470997,-1.5801371335983276,1023.2825,
2021.02.09 08:21:47,24.0,24.0,33.54,-2.46,-48.48,-0.1364695,0.51475334,9.8042555,-0.045814894,-0.002443461,0.0012217305,-0.05244981497526169,0.013918515294790268,-1.56747305393219,1023.29395,
2021.02.09 08:21:47,24.0,24.0,33.84,-2.46,-48.3,-0.04070143,0.5506664,9.76116,-0.007330383,-0.0012217305,0.0018325958,-0.05635381117463112,0.004169709049165249,-1.5627021789550781,1023.29395,
2021.02.09 08:21:47,24.0,24.0,34.02,-2.46,-48.12,-0.16998832,0.46447513,9.469068,0.026267206,0.015882496,0.0036651916,-0.04900466278195381,0.01795003190636635,-1.5729185342788696,1023.29395,
2021.02.09 08:21:47,24.0,24.0,33.899998,-2.52,-48.239998,-0.0023942017,0.5315128,9.801862,-0.01282817,0.018936822,-0.005497787,-0.05417264252901077,2.442598924972117E-4,-1.567958950996399,1023.29395,
2021.02.09 08:21:47,24.0,24.0,33.48,-2.6399999,-48.059998,-0.088585466,0.51475334,9.830592,-0.009162978,0.026267206,-0.0018325958,-0.052312493324279785,0.009010959416627884,-1.5740561485290527,1023.2937,
2021.02.09 08:21:47,24.0,24.0,33.0,-2.34,-48.12,-0.093373865,0.46686932,8.190564,0.01038471,0.01282817,-0.0030543262,-0.056935571134090424,0.011399681679904461,-1.5577527284622192,1023.2937,
2021.02.09 08:21:47,24.0,24.0,33.239998,-2.34,-48.3,0.22984336,0.44771573,10.240001,-0.025045475,-0.015882496,0.014660766,-0.04368342086672783,-0.022441871464252472,-1.5784205198287964,1023.2937,
2021.02.09 08:21:47,24.0,24.0,32.76,-2.34,-48.6,0.22744916,0.61770403,10.505757,-0.018936822,0.0018325958,0.015271631,-0.05871537700295448,-0.021646572276949883,-1.556784749031067,1023.2937,
2021.02.09 08:21:47,24.0,24.0,32.399998,-1.74,-48.6,-0.1436521,0.6727707,9.466674,0.19181168,0.14110987,-0.0036651916,-0.07093984633684158,0.01517334021627903,-1.5157769918441772,1023.3052,
