Time,X-cord,Y-cord,Mag_x,Mag_y,Mag_z,Acc_x,Acc_y,Acc_z,Gyro_x,Gyro_y,Gyro_z,Orn_x,Orn_y,Orn_z,Pressure,
2021.02.09 08:31:32,69.0,24.0,37.38,-4.92,-42.42,-0.25378537,0.46926352,9.543288,0.09590584,0.04153884,-0.21319197,-0.04911518841981888,0.026586806401610374,-1.6474519968032837,1023.3777,
2021.02.09 08:31:32,69.0,24.0,37.26,-4.74,-42.78,-0.35913026,0.4165911,9.555259,0.0036651916,-0.034208454,-0.16982053,-0.043539803475141525,0.037566885352134705,-1.6496140956878662,1023.3777,
2021.02.09 08:31:32,69.0,24.0,36.96,-4.2599998,-42.84,-0.320823,0.4189853,10.156203,-0.036651913,-0.096516706,-0.10140363,-0.04121021553874016,0.031578369438648224,-1.6393682956695557,1023.3696,
2021.02.09 08:31:32,69.0,24.0,36.239998,-3.8999999,-42.96,-0.45729253,0.3854665,10.304645,0.009162978,-0.07269296,-0.052534413,-0.037352900952100754,0.04434822499752045,-1.6358519792556763,1023.3696,
2021.02.09 08:31:32,69.0,24.0,36.239998,-3.9599998,-42.6,-0.2777274,0.4141969,9.560047,0.17959438,-0.12705997,-0.04153884,-0.043280504643917084,0.029042670503258705,-1.6298445463180542,1023.3696,
2021.02.09 08:31:32,69.0,24.0,36.78,-3.72,-42.42,0.46208093,0.7374141,8.623915,0.33108896,-0.15699236,0.080634214,-0.08517896384000778,-0.05353015288710594,-1.5777244567871094,1023.3696,
2021.02.09 08:31:32,69.0,24.0,36.899998,-3.9599998,-42.42,0.20829555,0.92416185,8.834604,0.21013765,-0.11728613,0.10751228,-0.10419923067092896,-0.02357286773622036,-1.5607167482376099,1023.3799,
2021.02.09 08:31:32,69.0,24.0,37.02,-4.56,-42.42,0.10055647,0.89303726,9.569624,-0.07269296,-0.07574729,0.05009095,-0.09304539859294891,-0.010507495142519474,-1.5877535343170166,1023.3799,
2021.02.09 08:31:32,69.0,24.0,37.079998,-4.62,-42.78,0.15322891,0.8331822,10.199299,-0.21319197,-0.043982297,0.028710667,-0.08150000125169754,-0.015022344887256622,-1.601744532585144,1023.3799,
2021.02.09 08:31:32,69.0,24.0,36.54,-4.7999997,-42.84,0.05746084,0.8882488,9.452309,-0.16065755,-0.030543262,0.014660766,-0.09369474649429321,-0.006078952457755804,-1.5923091173171997,1023.3799,
2021.02.09 08:31:32,69.0,24.0,36.42,-4.62,-42.719997,-0.19153613,0.6512229,9.572019,-0.13561209,0.05131268,-0.018936822,-0.06791578233242035,0.020007334649562836,-1.6174845695495605,1023.3723,
2021.02.09 08:31:32,69.0,24.0,36.54,-4.56,-43.14,-0.095768064,0.5410896,10.141838,-0.19486602,0.029932396,-0.009773844,-0.05329931527376175,0.009442590177059174,-1.6326309442520142,1023.3723,
2021.02.09 08:31:32,69.0,24.0,36.78,-4.38,-42.719997,0.093373865,0.5554548,10.0508585,-0.15577064,0.015882496,0.0421497,-0.05520587041974068,-0.009289870969951153,-1.6254847049713135,1023.3723,
2021.02.09 08:31:32,69.0,24.0,36.36,-4.14,-43.079998,-0.3854665,0.34955344,10.251971,-0.058643065,0.027488936,0.06169739,-0.03405896574258804,0.03758155182003975,-1.6462708711624146,1023.3723,
2021.02.09 08:31:32,69.0,24.0,36.54,-4.08,-43.8,0.12928689,0.6967127,9.89763,0.049480084,-0.077579886,0.124005646,-0.07026997953653336,-0.013061665929853916,-1.598502516746521,1023.3694,
2021.02.09 08:31:32,69.0,24.0,36.899998,-3.6,-43.559998,0.22744916,0.9552865,9.062054,0.226631,-0.03726278,0.20952678,-0.10499539226293564,-0.02509380504488945,-1.5474587678909302,1023.3694,
2021.02.09 08:31:32,69.0,24.0,36.66,-4.14,-43.98,0.21547815,0.92416185,9.449914,0.19730948,0.0036651916,0.12461651,-0.09746063500642776,-0.02279817685484886,-1.5687580108642578,1023.3694,
2021.02.09 08:31:32,69.0,24.0,36.84,-4.38,-43.559998,0.12449849,0.92895025,10.014946,0.036651913,-0.017104227,0.057421334,-0.09248463064432144,-0.012430628761649132,-1.5809887647628784,1023.3694,
2021.02.09 08:31:32,69.0,24.0,36.78,-4.56,-43.2,0.038307227,0.79248077,9.65821,-0.03604105,0.0030543262,-0.0018325958,-0.08186851441860199,-0.003966265358030796,-1.5984992980957031,1023.3684,
2021.02.09 08:31:32,69.0,24.0,36.78,-4.8599997,-43.02,0.088585466,0.7445967,9.524135,0.03359759,0.062308256,-0.050701816,-0.07801792770624161,-0.009300888516008854,-1.611633062362671,1023.3684,
2021.02.09 08:31:32,69.0,24.0,36.48,-4.56,-42.78,0.02633622,0.7230489,9.694122,-0.017104227,0.061086524,-0.11056661,-0.07444819808006287,-0.002716713584959507,-1.6082909107208252,1023.3684,
2021.02.09 08:31:32,69.0,24.0,36.6,-4.44,-43.02,-0.031124622,0.7302315,9.514558,-0.0421497,0.012217305,-0.13683382,-0.07659829407930374,0.003271251218393445,-1.6016650199890137,1023.3684,
2021.02.09 08:31:32,69.0,24.0,36.48,-4.5,-42.84,-0.15083471,0.5434838,9.77792,-0.07086037,0.040317107,-0.14905111,-0.05551903694868088,0.01542482990771532,-1.6289442777633667,1023.36475,
2021.02.09 08:31:33,69.0,24.0,36.18,-4.68,-42.84,-0.1316811,0.557849,9.763555,-0.10629055,-0.005497787,-0.122783914,-0.05706861615180969,0.013486186042428017,-1.632553219795227,1023.36475,
2021.02.09 08:31:33,69.0,24.0,36.3,-4.3199997,-43.079998,-0.18435353,0.49799395,9.842564,-0.055588737,-0.0030543262,-0.08674286,-0.050544001162052155,0.018728043884038925,-1.630016803741455,1023.36475,
2021.02.09 08:31:33,69.0,24.0,36.3,-4.14,-43.26,-0.05746084,0.58657944,9.718064,-0.012217305,-0.008552114,-0.059864793,-0.06028550863265991,0.0059127178974449635,-1.6127548217773438,1023.36475,
2021.02.09 08:31:33,69.0,24.0,36.18,-3.1799998,-43.32,-0.22505496,0.60573304,9.679757,0.018325957,-0.0012217305,-0.0421497,-0.062478963285684586,0.023245876654982567,-1.5826600790023804,1023.3616,
2021.02.09 08:31:33,69.0,24.0,36.12,-2.82,-43.98,-0.15322891,0.5434838,9.593566,0.021380283,0.020158553,-0.018936822,-0.05658317729830742,0.015970692038536072,-1.579154133796692,1023.3616,
2021.02.09 08:31:33,69.0,24.0,35.82,-2.58,-43.98,-0.045489833,0.5793968,9.653421,-0.009773844,0.02076942,0.0036651916,-0.05994725599884987,0.004712266381829977,-1.5688414573669434,1023.3616,
2021.02.09 08:31:33,69.0,24.0,35.64,-2.58,-43.8,-0.15562311,0.5722142,9.854534,-0.032375857,0.017715093,0.013439035,-0.05799373611807823,0.01579071767628193,-1.5709296464920044,1023.3616,
2021.02.09 08:31:33,69.0,24.0,35.7,-2.58,-43.86,0.1436521,0.6943185,9.710882,-0.01282817,0.010995574,0.01160644,-0.07136976718902588,-0.0147918201982975,-1.5565946102142334,1023.3545,
2021.02.09 08:31:33,69.0,24.0,35.399998,-2.52,-43.559998,-0.06943185,0.5722142,9.840169,0.004276057,-6.1086525E-4,0.009773844,-0.058083996176719666,0.007055843714624643,-1.5700154304504395,1023.3545,
2021.02.09 08:31:33,69.0,24.0,35.46,-2.76,-43.739998,-0.021547815,0.59136784,9.560047,0.023823744,-0.015271631,-0.014660766,-0.06177937984466553,0.002253940561786294,-1.5721904039382935,1023.3545,
2021.02.09 08:31:33,69.0,24.0,35.28,-2.82,-43.739998,-0.21547815,0.5291186,9.720459,0.013439035,0.019547688,-0.029321533,-0.054366499185562134,0.022163858637213707,-1.5823726654052734,1023.3545,
2021.02.09 08:31:33,69.0,24.0,35.04,-2.9399998,-43.739998,0.0023942017,0.62249243,9.876082,-0.0067195175,-0.014660766,-0.034208454,-0.06294702738523483,-2.4242422659881413E-4,-1.576023817062378,1023.3618,
2021.02.09 08:31:33,69.0,24.0,35.34,-3.1799998,-43.379997,-0.1316811,0.62009823,9.56723,0.032986723,-0.021991149,-0.015882496,-0.06471816450357437,0.01376289501786232,-1.5804864168167114,1023.3618,
2021.02.09 08:31:33,69.0,24.0,35.7,-3.36,-43.68,-0.090979666,0.62728083,9.6845455,0.031154128,-0.014660766,-0.015882496,-0.0646781325340271,0.00939403846859932,-1.5851982831954956,1023.3618,
2021.02.09 08:31:33,69.0,24.0,35.7,-3.24,-44.04,-0.033518825,0.6344634,9.773131,0.021991149,-0.027488936,-0.0036651916,-0.0648278072476387,0.0034296780358999968,-1.5812678337097168,1023.3618,
2021.02.09 08:31:33,69.0,24.0,35.94,-3.1799998,-44.34,-0.021547815,0.6823475,9.351752,0.045814894,-0.009162978,-0.01282817,-0.07283540070056915,0.002304143039509654,-1.5690909624099731,1023.36523,
2021.02.09 08:31:33,69.0,24.0,36.18,-2.8799999,-44.64,-0.110133275,0.6584055,9.516952,0.032375857,0.008552114,-0.027488936,-0.06906773149967194,0.011571810580790043,-1.5641705989837646,1023.36523,
2021.02.09 08:31:33,69.0,24.0,36.3,-2.3999999,-44.399998,-0.1412579,0.60094464,9.80665,-0.04886922,0.017715093,-0.021991149,-0.06119643151760101,0.014403300359845161,-1.560935616493225,1023.36523,
2021.02.09 08:31:33,69.0,24.0,36.12,-2.22,-43.86,-0.074220255,0.58897364,9.696517,-0.07269296,0.002443461,-0.004886922,-0.06066443771123886,0.0076541719026863575,-1.5579452514648438,1023.36523,
2021.02.09 08:31:33,69.0,24.0,35.76,-2.1599998,-43.68,-0.088585466,0.60333884,9.524135,-0.02687807,-0.0036651916,0.021380283,-0.06326115131378174,0.009300888516008854,-1.5530728101730347,1023.35693,
2021.02.09 08:31:33,69.0,24.0,35.28,-1.8,-44.04,-0.05267244,0.58657944,9.483433,-0.03359759,-0.016493361,0.029321533,-0.06177342310547829,0.005554096307605505,-1.5441360473632812,1023.35693,
2021.02.09 08:31:33,69.0,24.0,34.8,-1.9799999,-44.04,0.021547815,0.5554548,9.765948,-0.08002335,-0.009162978,0.03726278,-0.056815337389707565,-0.0022064195945858955,-1.5559070110321045,1023.35693,
2021.02.09 08:31:33,69.0,24.0,35.579998,-2.04,-44.219997,-0.10295067,0.48841715,9.940725,-0.116675265,0.0012217305,0.023823744,-0.04909083619713783,0.010356084443628788,-1.5665154457092285,1023.35693,
2021.02.09 08:31:33,69.0,24.0,35.64,-2.22,-44.219997,0.021547815,0.5554548,9.950302,-0.089186326,-0.002443461,0.01282817,-0.05576489493250847,-0.0021655403543263674,-1.563974380493164,1023.3589,
2021.02.09 08:31:33,69.0,24.0,35.94,-2.22,-43.68,0.033518825,0.5602432,9.514558,0.009773844,-0.03604105,0.021991149,-0.05881446599960327,-0.003522884100675583,-1.5612682104110718,1023.3589,
2021.02.09 08:31:34,69.0,24.0,35.88,-2.1599998,-43.68,-0.093373865,0.5291186,9.765948,0.059253927,-0.015271631,0.0018325958,-0.054124560207128525,0.009560876525938511,-1.5644620656967163,1023.3589,
2021.02.09 08:31:34,69.0,24.0,35.46,-2.28,-43.68,-0.1412579,0.51475334,9.744401,0.008552114,-6.1086525E-4,-0.018325957,-0.052770961076021194,0.014495299197733402,-1.5692453384399414,1023.3589,
2021.02.09 08:31:34,69.0,24.0,35.64,-2.1599998,-43.8,-0.06943185,0.48841715,9.660604,0.031154128,0.0018325958,-0.0061086523,-0.050513315945863724,0.007186989299952984,-1.5688947439193726,1023.36255,
2021.02.09 08:31:34,69.0,24.0,35.7,-2.1599998,-43.98,-0.007182605,0.51714754,9.507375,0.04886922,-0.0030543262,0.013439035,-0.05434079468250275,7.554770563729107E-4,-1.5642529726028442,1023.36255,
2021.02.09 08:31:34,69.0,24.0,36.059998,-2.34,-43.8,-0.05267244,0.533907,9.837775,-0.0061086523,0.0018325958,0.0012217305,-0.0542171448469162,0.005354049615561962,-1.5694727897644043,1023.36255,
2021.02.09 08:31:34,69.0,24.0,35.94,-1.92,-43.8,-0.12210429,0.58897364,9.593566,0.004276057,0.0,-0.0018325958,-0.06131065636873245,0.012727039866149426,-1.548325538635254,1023.36255,
2021.02.09 08:31:34,69.0,24.0,36.12,-2.04,-43.86,0.08379706,0.61291564,9.5385,0.004276057,0.008552114,0.009773844,-0.06416633725166321,-0.008784914389252663,-1.5500850677490234,1023.36914,
2021.02.09 08:31:34,69.0,24.0,35.76,-2.22,-43.62,-0.05746084,0.46926352,9.682152,-0.027488936,0.021991149,0.0067195175,-0.048428114503622055,0.005934648681432009,-1.5734878778457642,1023.36914,
2021.02.09 08:31:34,69.0,24.0,35.76,-2.04,-43.739998,-0.06943185,0.48841715,9.813833,-0.04520403,0.029932396,-0.007330383,-0.049725960940122604,0.007074777968227863,-1.5665887594223022,1023.36914,
2021.02.09 08:31:34,69.0,24.0,35.94,-2.28,-43.2,-0.045489833,0.48841715,9.526528,-0.032986723,0.031154128,-0.017715093,-0.05122372880578041,0.004775032866746187,-1.5723732709884644,1023.36914,
2021.02.09 08:31:34,69.0,24.0,35.88,-2.34,-42.899998,-0.07182605,0.47884035,9.797073,-0.013439035,0.014660766,-0.015882496,-0.04883568733930588,0.007331246510148048,-1.577269196510315,1023.3699,
2021.02.09 08:31:34,69.0,24.0,36.36,-2.3999999,-42.899998,-0.16759412,0.51714754,9.8042555,-0.021991149,-6.1086525E-4,-0.0030543262,-0.05269072949886322,0.017092352733016014,-1.5737407207489014,1023.3699,
2021.02.09 08:31:34,69.0,24.0,36.42,-2.6399999,-42.6,-0.06464344,0.5386954,9.64145,0.0036651916,-0.025045475,-0.012217305,-0.05581357702612877,0.006704641971737146,-1.577601432800293,1023.3699,
2021.02.09 08:31:34,69.0,24.0,36.42,-3.1799998,-42.899998,-0.093373865,0.50517654,9.629479,0.03726278,-0.021380283,-0.005497787,-0.052410949021577835,0.009696364402770996,-1.5960626602172852,1023.3699,
2021.02.09 08:31:34,69.0,24.0,36.36,-3.36,-42.96,-0.02633622,0.49081135,9.660604,0.018936822,-0.02687807,0.0012217305,-0.050761617720127106,0.0027261395007371902,-1.6030913591384888,1023.3711,
2021.02.09 08:31:34,69.0,24.0,36.239998,-3.72,-42.84,0.02633622,0.5410896,9.454702,0.028710667,-0.022602014,0.009162978,-0.05716710537672043,-0.002785508055239916,-1.6057661771774292,1023.3711,
2021.02.09 08:31:34,69.0,24.0,36.719997,-3.6599998,-42.96,-0.035913024,0.51235914,9.677363,0.017104227,-0.004276057,0.0036651916,-0.052894335240125656,0.0037110166158527136,-1.6084262132644653,1023.3711,
2021.02.09 08:31:34,69.0,24.0,36.6,-3.4199998,-42.78,-0.0047884034,0.5291186,9.7084875,-0.032986723,-0.0067195175,-0.0018325958,-0.0544467493891716,4.932182491756976E-4,-1.6004732847213745,1023.3711,
2021.02.09 08:31:34,69.0,24.0,36.48,-3.12,-42.78,-0.023942016,0.51475334,9.730036,-0.023823744,0.0036651916,0.009162978,-0.052854109555482864,0.0024606247898191214,-1.5941836833953857,1023.3618,
2021.02.09 08:31:34,69.0,24.0,36.239998,-3.0,-43.2,-0.009576807,0.50517654,9.603143,-0.014660766,-0.0030543262,0.0067195175,-0.05255686491727829,9.97257186099887E-4,-1.5908105373382568,1023.3618,
2021.02.09 08:31:34,69.0,24.0,35.94,-2.8799999,-43.379997,0.009576807,0.46926352,9.691729,-0.01038471,0.002443461,0.01282817,-0.04838116466999054,-9.88141866400838E-4,-1.5924807786941528,1023.3618,
2021.02.09 08:31:34,69.0,24.0,36.0,-2.6399999,-44.1,-0.033518825,0.48841715,9.689334,-0.032986723,-0.008552114,0.014660766,-0.05036477744579315,0.003459339030086994,-1.5822402238845825,1023.3618,
2021.02.09 08:31:34,69.0,24.0,36.059998,-2.6399999,-43.8,-0.019153614,0.50038815,9.667787,-0.022602014,-0.0030543262,0.004886922,-0.051712051033973694,0.0019811762031167746,-1.5810481309890747,1023.3589,
2021.02.09 08:31:34,69.0,24.0,36.0,-2.46,-44.1,0.047884032,0.48602295,9.792285,-0.022602014,-0.002443461,0.007330383,-0.04959196224808693,-0.004889936186373234,-1.578517198562622,1023.3589,
2021.02.09 08:31:34,69.0,24.0,35.94,-2.46,-43.68,0.0,0.48362875,9.713276,-0.023823744,-0.007941248,0.007941248,-0.049749404191970825,1.0E-6,-1.5787204504013062,1023.3589,
2021.02.09 08:31:34,69.0,24.0,35.7,-2.52,-43.44,0.045489833,0.47884035,9.588778,0.005497787,-0.008552114,0.0018325958,-0.049895573407411575,-0.004744034260511398,-1.580788016319275,1023.3589,
2021.02.09 08:31:35,69.0,24.0,35.46,-2.58,-43.98,-0.06703765,0.44771573,9.768343,-0.004886922,0.0018325958,-6.1086525E-4,-0.04580020159482956,0.006862637586891651,-1.5865132808685303,1023.3596,
2021.02.09 08:31:35,69.0,24.0,35.46,-2.34,-43.26,-0.011971008,0.48123455,9.794679,-0.02443461,-0.005497787,-0.0018325958,-0.04909273236989975,0.0012221945216879249,-1.5767881870269775,1023.3596,
2021.02.09 08:31:35,69.0,24.0,35.04,-2.1,-43.68,-0.055066638,0.46686932,9.619903,-0.01160644,0.010995574,-0.0018325958,-0.04849276691675186,0.005724178161472082,-1.569948673248291,1023.3596,
2021.02.09 08:31:35,69.0,24.0,35.16,-2.1,-43.98,-0.021547815,0.4381389,9.701305,-0.0061086523,0.0012217305,-0.0012217305,-0.0451321005821228,0.0022211214527487755,-1.5739367008209229,1023.3596,
2021.02.09 08:31:35,69.0,24.0,35.46,-2.22,-43.8,0.0047884034,0.46926352,9.660604,-0.005497787,-0.002443461,0.01282817,-0.04853681102395058,-4.956629127264023E-4,-1.5734219551086426,1023.3672,
2021.02.09 08:31:35,69.0,24.0,35.94,-2.58,-43.98,-0.074220255,0.47644615,9.832987,-0.0036651916,0.0,0.005497787,-0.04841461777687073,0.007547945249825716,-1.5830254554748535,1023.3672,
2021.02.09 08:31:35,69.0,24.0,36.42,-2.8799999,-44.1,-0.07182605,0.46208093,9.607931,-6.1086525E-4,-0.0030543262,-0.0061086523,-0.04805532470345497,0.00747556472197175,-1.5914430618286133,1023.3672,
2021.02.09 08:31:35,69.0,24.0,36.54,-2.9399998,-43.62,-0.009576807,0.46447513,9.579201,0.014660766,-6.1086525E-4,-0.002443461,-0.04844990745186806,9.997497545555234E-4,-1.593321442604065,1023.3672,
2021.02.09 08:31:35,69.0,24.0,36.42,-2.82,-43.26,0.04070143,0.44771573,9.646238,0.0018325958,0.007330383,0.0,-0.046379804611206055,-0.004219384398311377,-1.5931529998779297,1023.36475,
2021.02.09 08:31:35,69.0,24.0,35.94,-2.82,-43.2,-0.059855044,0.45010993,9.557653,-0.014049901,0.009162978,-0.009162978,-0.04705849662423134,0.0062624430283904076,-1.5924968719482422,1023.36475,
2021.02.09 08:31:35,69.0,24.0,35.64,-2.9399998,-42.96,-0.0047884034,0.4237737,9.722853,-0.032986723,0.018936822,0.0012217305,-0.043557751923799515,4.92489489261061E-4,-1.6007096767425537,1023.36475,
2021.02.09 08:31:35,69.0,24.0,35.7,-2.9399998,-43.14,-0.050278235,0.4285621,9.660604,-0.03359759,0.01160644,0.0018325958,-0.044332168996334076,0.005204414017498493,-1.5994576215744019,1023.36475,
2021.02.09 08:31:35,69.0,24.0,35.76,-2.6399999,-43.5,-0.088585466,0.4285621,9.579201,-0.014660766,0.015882496,0.0036651916,-0.04470709338784218,0.009247425943613052,-1.589985966682434,1023.3672,
2021.02.09 08:31:35,69.0,24.0,36.239998,-2.6399999,-43.86,-0.079008654,0.39504328,9.945514,-0.03176499,0.012217305,-0.0018325958,-0.039698634296655655,0.007943983189761639,-1.5954726934432983,1023.3672,
2021.02.09 08:31:35,69.0,24.0,36.54,-2.3999999,-43.68,-0.06464344,0.4381389,9.524135,-0.044593163,0.002443461,-0.01038471,-0.04596955329179764,0.006787225604057312,-1.581249713897705,1023.3672,
2021.02.09 08:31:35,69.0,24.0,36.48,-2.04,-44.04,-0.107739076,0.39025488,9.600749,0.014049901,0.02443461,-0.007330383,-0.04062345623970032,0.011221473105251789,-1.5772781372070312,1023.3672,
2021.02.09 08:31:35,69.0,24.0,36.239998,-2.1,-43.86,-0.10534488,0.36391866,9.7324295,-0.03726278,0.014660766,-0.016493361,-0.03737277910113335,0.010823685675859451,-1.5832438468933105,1023.3613,
2021.02.09 08:31:35,69.0,24.0,35.76,-1.74,-43.62,-0.06703765,0.3878607,9.701305,-0.028099801,0.021380283,-0.002443461,-0.03995802626013756,0.006910058204084635,-1.5704092979431152,1023.3613,
2021.02.09 08:31:35,69.0,24.0,35.64,-1.86,-43.68,-0.11252748,0.37828386,9.667787,-0.016493361,0.010995574,-0.0036651916,-0.03910568356513977,0.011638900265097618,-1.5746328830718994,1023.3613,
2021.02.09 08:31:35,69.0,24.0,35.399998,-2.1599998,-43.5,-0.1412579,0.36152446,9.581595,-0.016493361,0.02321288,-0.0036651916,-0.03770915046334267,0.014741560444235802,-1.585153341293335,1023.3613,
2021.02.09 08:31:35,69.0,24.0,35.64,-2.34,-43.68,-0.076614454,0.39025488,9.665392,-0.015882496,0.014660766,-0.0030543262,-0.040353335440158844,0.007926512509584427,-1.5867925882339478,1023.36523,
2021.02.09 08:31:35,69.0,24.0,35.94,-2.3999999,-43.8,-0.095768064,0.37588966,9.871294,-0.027488936,0.019547688,0.005497787,-0.03805888816714287,0.00970136746764183,-1.5910252332687378,1023.36523,
2021.02.09 08:31:35,69.0,24.0,36.239998,-2.04,-43.739998,-0.15083471,0.35434186,9.68694,-0.026267206,0.012217305,-0.0067195175,-0.0365586094558239,0.015569675713777542,-1.5825942754745483,1023.36523,
2021.02.09 08:31:35,69.0,24.0,36.6,-1.8,-43.739998,-0.074220255,0.35913026,9.572019,0.009773844,0.02443461,-6.1086525E-4,-0.0375000461935997,0.007753721438348293,-1.574885606765747,1023.36523,
2021.02.09 08:31:35,69.0,24.0,36.36,-1.5,-43.739998,-0.11971009,0.33279404,9.859323,6.1086525E-4,0.022602014,0.0030543262,-0.03373895585536957,0.012141220271587372,-1.5710448026657104,1023.3684,
2021.02.09 08:31:36,69.0,24.0,36.239998,-1.4399999,-43.559998,-0.1316811,0.39025488,9.583989,-0.008552114,0.004886922,0.0036651916,-0.040693141520023346,0.013738831505179405,-1.5608807802200317,1023.3684,
2021.02.09 08:31:36,69.0,24.0,36.12,-1.26,-43.68,-0.22266077,0.3878607,9.749189,0.035430185,0.009773844,0.007941248,-0.039752569049596786,0.022834928706288338,-1.5562942028045654,1023.3684,
2021.02.09 08:31:36,69.0,24.0,35.94,-1.4399999,-43.379997,-0.12689269,0.3878607,9.689334,0.0018325958,0.0,0.002443461,-0.04000486806035042,0.0130953723564744,-1.561896800994873,1023.3684,
2021.02.09 08:31:36,69.0,24.0,36.059998,-1.3199999,-43.44,-0.11971009,0.39983168,9.581595,0.016493361,0.004276057,0.005497787,-0.04170168563723564,0.012493102811276913,-1.5564149618148804,1023.3696,
2021.02.09 08:31:36,69.0,24.0,36.239998,-1.26,-43.32,-0.047884032,0.35194764,9.598354,0.016493361,0.016493361,0.0018325958,-0.03665062040090561,0.004988733679056168,-1.5615025758743286,1023.3696,
2021.02.09 08:31:36,69.0,24.0,35.76,-1.5,-43.2,-0.16519992,0.36631286,9.646238,0.0061086523,0.0067195175,0.0018325958,-0.03795088455080986,0.01712416484951973,-1.5661367177963257,1023.3696,
2021.02.09 08:31:36,69.0,24.0,36.18,-1.3199999,-43.02,-0.06943185,0.39983168,9.627085,0.01160644,0.0018325958,0.008552114,-0.04150702431797981,0.007212011609226465,-1.5574976205825806,1023.3696,
2021.02.09 08:31:36,69.0,24.0,36.66,-1.8,-42.78,-0.17477672,0.37588966,9.696517,-0.0036651916,0.0036651916,0.002443461,-0.03873974457383156,0.01802273839712143,-1.5740418434143066,1023.35815,
2021.02.09 08:31:36,69.0,24.0,36.66,-2.04,-42.84,-0.076614454,0.4357447,9.576807,0.0,-0.004886922,0.0018325958,-0.04546718671917915,0.007999829016625881,-1.572929859161377,1023.35815,
2021.02.09 08:31:36,69.0,24.0,37.26,-2.1599998,-43.26,-0.18674773,0.36631286,9.706094,-0.0061086523,0.007330383,-0.007330383,-0.03771562501788139,0.019237881526350975,-1.5845388174057007,1023.35815,
2021.02.09 08:31:36,69.0,24.0,36.66,-1.9799999,-43.8,-0.20350714,0.41180268,9.586384,-0.015271631,-6.1086525E-4,-0.012217305,-0.04292098805308342,0.02122558280825615,-1.5726398229599,1023.35815,
2021.02.09 08:31:36,69.0,24.0,36.059998,-1.8,-44.04,-0.15562311,0.40222588,9.785102,-0.010995574,0.013439035,-0.004886922,-0.0410776287317276,0.015902744606137276,-1.5698519945144653,1023.3638,
2021.02.09 08:31:36,69.0,24.0,35.88,-1.8,-43.86,-0.14604631,0.4165911,9.718064,-0.017715093,-0.0061086523,-0.007941248,-0.042836643755435944,0.015027201734483242,-1.5678781270980835,1023.3638,
2021.02.09 08:31:36,69.0,24.0,35.7,-1.68,-43.559998,-0.06703765,0.40222588,9.64145,0.013439035,-0.0036651916,0.0018325958,-0.04169321805238724,0.006952954921871424,-1.5666322708129883,1023.3638,
2021.02.09 08:31:36,69.0,24.0,35.88,-2.04,-43.26,-0.20829555,0.37110126,9.691729,0.016493361,-0.0030543262,-0.0018325958,-0.0382629856467247,0.021488787606358528,-1.5809425115585327,1023.3638,
2021.02.09 08:31:36,69.0,24.0,36.0,-2.04,-42.96,-0.1364695,0.40222588,9.572019,0.014660766,-0.0036651916,0.0,-0.04199203476309776,0.014256162568926811,-1.576827049255371,1023.35425,
2021.02.09 08:31:36,69.0,24.0,36.18,-2.34,-43.26,-0.16519992,0.40701428,9.689334,0.0018325958,-0.0018325958,0.0018325958,-0.04197564721107483,0.01704801619052887,-1.5848197937011719,1023.35425,
2021.02.09 08:31:36,69.0,24.0,35.88,-2.34,-43.44,-0.18195933,0.3878607,9.801862,-0.009162978,0.009162978,6.1086525E-4,-0.03954266384243965,0.018561620265245438,-1.5877578258514404,1023.35425,
2021.02.09 08:31:36,69.0,24.0,35.7,-2.28,-43.44,-0.15083471,0.39264908,9.490616,0.01282817,-0.0030543262,0.0,-0.041343554854393005,0.015891699120402336,-1.5839186906814575,1023.35425,
2021.02.09 08:31:36,69.0,24.0,36.12,-2.28,-43.559998,-0.10534488,0.3878607,9.617508,0.028099801,0.01038471,0.0030543262,-0.04030434787273407,0.010953010059893131,-1.585024356842041,1023.35767,
2021.02.09 08:31:36,69.0,24.0,35.94,-1.9799999,-43.559998,-0.20111294,0.40222588,9.837775,-0.009773844,0.01038471,-0.0012217305,-0.040854573249816895,0.020440081134438515,-1.5756357908248901,1023.35767,
2021.02.09 08:31:36,69.0,24.0,35.94,-2.1,-43.2,-0.14844051,0.4333505,9.552865,-0.0036651916,0.0018325958,-0.0036651916,-0.04532686620950699,0.015537596307694912,-1.5740666389465332,1023.35767,
2021.02.09 08:31:36,69.0,24.0,36.48,-2.3999999,-43.02,-0.19393034,0.37349546,9.689334,0.02076942,0.016493361,-0.004276057,-0.03852028772234917,0.020012155175209045,-1.5908348560333252,1023.35767,
2021.02.09 08:31:36,69.0,24.0,36.0,-3.1799998,-43.14,-0.16280572,0.38307226,9.5385,-0.0030543262,0.007330383,-0.0067195175,-0.04013323038816452,0.01706661470234394,-1.6111096143722534,1023.3618,
2021.02.09 08:31:36,69.0,24.0,36.3,-3.24,-42.54,-0.1364695,0.40222588,9.653421,0.008552114,0.01160644,0.004276057,-0.04163841903209686,0.014135962352156639,-1.611262321472168,1023.3618,
2021.02.09 08:31:37,69.0,24.0,36.78,-3.6,-42.6,-0.1364695,0.3878607,9.682152,-0.02076942,0.008552114,-0.0018325958,-0.040033966302871704,0.01409402210265398,-1.622484803199768,1023.3618,
2021.02.09 08:31:37,69.0,24.0,37.02,-3.4199998,-42.48,-0.16759412,0.3854665,9.61272,-0.01160644,0.014049901,-0.008552114,-0.04007207602262497,0.01743285544216633,-1.6173486709594727,1023.3618,
2021.02.09 08:31:37,69.0,24.0,37.32,-2.9399998,-42.18,-0.19632454,0.39743748,9.61272,0.0018325958,0.013439035,-0.01160644,-0.0413128137588501,0.02042057365179062,-1.6027270555496216,1023.36426,
2021.02.09 08:31:37,69.0,24.0,37.02,-3.12,-42.36,-0.22984336,0.40222588,9.715671,-0.014660766,0.009773844,-0.004886922,-0.04136451333761215,0.023652562871575356,-1.6077135801315308,1023.36426,
2021.02.09 08:31:37,69.0,24.0,37.079998,-2.8799999,-41.94,-0.28491,0.40222588,9.775525,-0.016493361,0.004886922,-0.004886922,-0.04110558703541756,0.029136989265680313,-1.6017671823501587,1023.36426,
2021.02.09 08:31:37,69.0,24.0,36.36,-2.76,-42.0,-0.1316811,0.40940848,9.502586,0.017104227,-0.002443461,0.016493361,-0.043053146451711655,0.013856508769094944,-1.5967379808425903,1023.36426,
2021.02.09 08:31:37,69.0,24.0,36.3,-2.3999999,-42.059998,-0.16519992,0.3854665,9.818622,-0.004886922,-0.007330383,0.015271631,-0.039233021438121796,0.016823576763272285,-1.5911580324172974,1023.36035,
2021.02.09 08:31:37,69.0,24.0,36.18,-2.3999999,-42.6,-0.12210429,0.44532153,9.627085,-0.0067195175,-0.007941248,0.010995574,-0.04622048884630203,0.012682732194662094,-1.5822474956512451,1023.36035,
2021.02.09 08:31:37,69.0,24.0,35.94,-1.92,-43.32,-0.29927522,0.37110126,9.821015,-0.004276057,0.0036651916,0.005497787,-0.0377509705722332,0.030463512986898422,-1.577821135520935,1023.36035,
2021.02.09 08:31:37,69.0,24.0,35.94,-1.92,-43.5,-0.110133275,0.4237737,9.619903,0.0,-0.01038471,0.012217305,-0.04402042552828789,0.011447980999946594,-1.570398211479187,1023.36035,
2021.02.09 08:31:37,69.0,24.0,35.88,-1.86,-43.62,-0.23702596,0.37349546,9.7563715,0.0018325958,0.0012217305,0.014660766,-0.038252249360084534,0.024289701133966446,-1.5753251314163208,1023.36304,
2021.02.09 08:31:37,69.0,24.0,36.12,-1.68,-43.26,-0.15322891,0.40462008,9.536105,-0.004276057,-0.009773844,0.009773844,-0.04239942878484726,0.016066906973719597,-1.5657280683517456,1023.36304,
2021.02.09 08:31:37,69.0,24.0,36.3,-2.22,-42.719997,-0.19632454,0.36152446,9.770737,0.0012217305,0.0036651916,0.02565634,-0.0369764119386673,0.020090412348508835,-1.5880820751190186,1023.36304,
2021.02.09 08:31:37,69.0,24.0,36.18,-2.46,-42.48,-0.16998832,0.40222588,9.727641,-0.025045475,0.0,0.01282817,-0.04131891578435898,0.017472993582487106,-1.5899101495742798,1023.36304,
2021.02.09 08:31:37,69.0,24.0,36.059998,-2.6399999,-42.78,-0.08379706,0.44532153,9.665392,0.0012217305,-0.005497787,0.027488936,-0.046039532870054245,0.008669586852192879,-1.5891202688217163,1023.365,
2021.02.09 08:31:37,69.0,24.0,36.54,-2.6399999,-42.78,-0.1604115,0.35673606,9.7324295,-0.0030543262,6.1086525E-4,0.015882496,-0.036632996052503586,0.016480673104524612,-1.600081205368042,1023.365,
2021.02.09 08:31:37,69.0,24.0,36.059998,-2.52,-42.96,-0.1388637,0.39743748,9.65821,-0.0067195175,-0.007941248,6.1086525E-4,-0.04112277179956436,0.014376797713339329,-1.59140944480896,1023.365,
2021.02.09 08:31:37,69.0,24.0,36.42,-2.1599998,-43.379997,-0.20590134,0.3878607,9.576807,0.010995574,-0.002443461,0.0,-0.04046854004263878,0.021496687084436417,-1.581278681755066,1023.365,
2021.02.09 08:31:37,69.0,24.0,36.78,-2.1,-43.26,-0.16998832,0.36391866,9.799467,-0.005497787,0.0030543262,-0.008552114,-0.037113942205905914,0.017344949766993523,-1.5838408470153809,1023.36523,
2021.02.09 08:31:37,69.0,24.0,35.94,-1.86,-43.32,-0.16519992,0.37110126,9.730036,-0.013439035,-0.0012217305,0.009773844,-0.03811579570174217,0.016976715996861458,-1.5760481357574463,1023.36523,
2021.02.09 08:31:37,69.0,24.0,36.3,-1.5,-43.14,-0.055066638,0.4237737,9.598354,-6.1086525E-4,-0.014049901,0.01160644,-0.044121284037828445,0.0057370285503566265,-1.5593303442001343,1023.36523,
2021.02.09 08:31:37,69.0,24.0,36.12,-1.68,-43.14,-0.22266077,0.34476504,9.830592,-0.0012217305,-0.007330383,0.009773844,-0.03504728153347969,0.02264590933918953,-1.5747544765472412,1023.36523,
2021.02.09 08:31:37,69.0,24.0,36.239998,-1.62,-42.719997,-0.110133275,0.40222588,9.64145,-0.02321288,-0.022602014,-0.0012217305,-0.041691508144140244,0.011422398500144482,-1.5657868385314941,1023.36523,
2021.02.09 08:31:37,69.0,24.0,36.66,-1.92,-42.899998,-0.14844051,0.35673606,9.639056,-0.0012217305,-0.015882496,0.01282817,-0.03698817640542984,0.015398683026432991,-1.5794520378112793,1023.36523,
2021.02.09 08:31:37,69.0,24.0,36.66,-2.34,-43.2,-0.10295067,0.3878607,9.734824,-0.028099801,-0.01282817,0.0018325958,-0.03981931135058403,0.010575110092759132,-1.5874536037445068,1023.36523,
2021.02.09 08:31:38,69.0,24.0,36.96,-2.3999999,-42.96,-0.15322891,0.36870706,9.809045,-0.016493361,-0.015882496,0.0061086523,-0.03756621107459068,0.0156199149787426,-1.5918313264846802,1023.36523,
2021.02.09 08:31:38,69.0,24.0,36.84,-2.9399998,-43.14,-0.17477672,0.38067806,9.634268,-0.016493361,-0.002443461,-0.007330383,-0.03948588669300079,0.01813916303217411,-1.6043089628219604,1023.35864,
2021.02.09 08:31:38,69.0,24.0,36.899998,-2.9399998,-42.6,-0.14604631,0.37828386,9.502586,0.030543262,-0.0018325958,0.0,-0.03978281468153,0.015367901884019375,-1.6044752597808838,1023.35864,
2021.02.09 08:31:38,69.0,24.0,36.899998,-3.06,-42.48,-0.12928689,0.33997664,9.737218,-0.01160644,6.1086525E-4,-0.005497787,-0.03489791974425316,0.013276820071041584,-1.61367928981781,1023.35864,
2021.02.09 08:31:38,69.0,24.0,36.96,-3.3,-42.42,-0.076614454,0.37110126,9.583989,-0.031154128,0.008552114,0.004276057,-0.038700394332408905,0.007993834093213081,-1.6156842708587646,1023.35864,
2021.02.09 08:31:38,69.0,24.0,37.079998,-3.0,-42.36,-0.1316811,0.34476504,9.713276,-0.03359759,0.015882496,-0.0036651916,-0.03547605499625206,0.013555985875427723,-1.6112639904022217,1023.3633,
2021.02.09 08:31:38,69.0,24.0,36.66,-2.9399998,-42.719997,-0.08619126,0.34955344,9.610326,-0.044593163,0.01282817,-0.0036651916,-0.03635520488023758,0.008968369103968143,-1.608639121055603,1023.3633,
2021.02.09 08:31:38,69.0,24.0,36.78,-2.76,-43.26,-0.11492168,0.30645782,9.727641,-0.0580322,0.029932396,-0.012217305,-0.031491201370954514,0.011813380755484104,-1.6089112758636475,1023.3633,
2021.02.09 08:31:38,69.0,24.0,36.66,-2.34,-43.32,-0.12449849,0.25617957,9.797073,-0.07574729,0.01282817,-0.017104227,-0.02614051289856434,0.012707037851214409,-1.6038762331008911,1023.3633,
2021.02.09 08:31:38,69.0,24.0,36.12,-1.9799999,-43.559998,0.04070143,0.39504328,10.795456,-0.103847094,-0.018325957,0.007941248,-0.03657689690589905,-0.003770219162106514,-1.5815646648406982,1023.3574,
2021.02.09 08:31:38,69.0,24.0,36.18,-2.46,-43.379997,-0.110133275,0.34237084,9.672575,0.056199603,0.04642576,-0.0067195175,-0.03537897393107414,0.011385646648705006,-1.596280574798584,1023.3574,
