Time,X-cord,Y-cord,Mag_x,Mag_y,Mag_z,Acc_x,Acc_y,Acc_z,Gyro_x,Gyro_y,Gyro_z,Orn_x,Orn_y,Orn_z,Pressure,
2021.02.09 08:20:50,19.0,24.0,27.599998,1.5,-39.719997,-0.38067806,0.33039984,9.291897,0.25778514,0.076358154,-0.06047566,-0.03551310673356056,0.04094592481851578,-1.4576719999313354,1023.2615,
2021.02.09 08:20:50,19.0,24.0,27.96,1.68,-39.6,-0.30406362,0.521936,9.224859,0.13500121,-0.030543262,-0.032986723,-0.05648842081427574,0.03294939920306206,-1.4230878353118896,1023.2615,
2021.02.09 08:20:50,19.0,24.0,28.32,1.74,-39.239998,-0.39743748,0.4213795,9.346964,0.014049901,-0.053145275,-0.03176499,-0.04501084238290787,0.042494893074035645,-1.4380203485488892,1023.2615,
2021.02.09 08:20:50,19.0,24.0,28.32,1.92,-39.059998,-0.4261679,0.4261679,9.773131,-0.09285152,-0.057421334,-0.004886922,-0.04353714734315872,0.04357846826314926,-1.4336379766464233,1023.2588,
2021.02.09 08:20:50,19.0,24.0,28.32,2.1599998,-39.18,-0.50757074,0.4309563,10.031705,-0.06658431,-0.065973446,0.031154128,-0.042878251522779465,0.05055355280637741,-1.4237260818481445,1023.2588,
2021.02.09 08:20:50,19.0,24.0,28.199999,1.92,-39.18,-0.009576807,0.50996494,9.720459,0.037873644,-0.09101892,0.065973446,-0.05241497606039047,9.852213552221656E-4,-1.4306939840316772,1023.2588,
2021.02.09 08:20:50,19.0,24.0,28.14,1.74,-39.3,-0.4357447,0.3854665,9.43076,0.06719518,-0.03359759,0.03848451,-0.040807094424963,0.04617178440093994,-1.442470908164978,1023.2588,
2021.02.09 08:20:50,19.0,24.0,28.019999,1.74,-39.42,-0.22984336,0.50038815,9.509769,-0.010995574,-0.042760566,0.0421497,-0.052554525434970856,0.024164479225873947,-1.429707646369934,1023.2715,
2021.02.09 08:20:50,19.0,24.0,27.779999,1.56,-39.48,0.007182605,0.51714754,9.82341,-0.022602014,-0.021380283,0.05009095,-0.0525958389043808,-7.311721565201879E-4,-1.4409149885177612,1023.2715,
2021.02.09 08:20:50,19.0,24.0,27.66,1.9799999,-40.079998,-0.25139117,0.48123455,9.572019,0.017104227,0.002443461,0.004886922,-0.05021555721759796,0.026257093995809555,-1.4206078052520752,1023.2715,
2021.02.09 08:20:50,19.0,24.0,28.08,1.62,-40.26,-0.16759412,0.51714754,9.519346,-0.0067195175,0.014049901,0.009162978,-0.054264213889837265,0.017603814601898193,-1.4318323135375977,1023.2715,
2021.02.09 08:20:50,19.0,24.0,28.199999,1.02,-39.96,-0.21308395,0.45729253,9.598354,-0.031154128,0.015271631,-0.0061086523,-0.04759509861469269,0.02219640463590622,-1.4632034301757812,1023.2676,
2021.02.09 08:20:50,19.0,24.0,28.439999,0.71999997,-39.6,-0.20829555,0.51475334,9.7803135,-0.04153884,0.005497787,-0.0012217305,-0.05257116258144379,0.021294211968779564,-1.4685382843017578,1023.2676,
2021.02.09 08:20:51,19.0,24.0,28.26,0.17999999,-39.3,-0.1412579,0.47884035,9.634268,-0.013439035,0.002443461,0.0,-0.049655597656965256,0.014660976827144623,-1.4932522773742676,1023.2676,
2021.02.09 08:20:51,19.0,24.0,27.9,0.42,-39.36,-0.1604115,0.4309563,9.648633,-0.009773844,0.0030543262,-0.004886922,-0.04462919011712074,0.016623778268694878,-1.4903571605682373,1023.2676,
2021.02.09 08:20:51,19.0,24.0,27.96,0.78,-39.66,-0.272939,0.4333505,9.718064,-0.02565634,0.015882496,-0.008552114,-0.04454519972205162,0.0280783548951149,-1.4749658107757568,1023.2656,
2021.02.09 08:20:51,19.0,24.0,28.019999,0.84,-40.02,-0.19632454,0.47165772,9.536105,-0.02076942,-0.0061086523,0.002443461,-0.04940948262810707,0.02058458887040615,-1.466593623161316,1023.2656,
2021.02.09 08:20:51,19.0,24.0,28.68,1.14,-39.54,-0.06943185,0.4381389,9.986216,-0.0421497,-0.014660766,0.007330383,-0.043845195323228836,0.006952656898647547,-1.4697250127792358,1023.2656,
2021.02.09 08:20:51,19.0,24.0,28.619999,1.0799999,-39.18,-0.12449849,0.45489833,9.600749,-0.015271631,-0.0012217305,0.0030543262,-0.04734215885400772,0.012966854497790337,-1.4662196636199951,1023.2656,
2021.02.09 08:20:51,19.0,24.0,28.56,0.78,-38.879997,-0.23463176,0.41180268,9.610326,-0.012217305,-6.1086525E-4,-0.014660766,-0.042811084538698196,0.024409698322415352,-1.481455683708191,1023.2661,
2021.02.09 08:20:51,19.0,24.0,28.32,1.14,-38.399998,-0.11731588,0.3854665,9.876082,-0.044593163,0.002443461,-0.01282817,-0.039007753133773804,0.01187822874635458,-1.475981593132019,1023.2661,
2021.02.09 08:20:51,19.0,24.0,27.9,1.14,-38.76,-0.21308395,0.36391866,9.82341,0.002443461,-0.005497787,-0.007941248,-0.03702042996883392,0.02168804407119751,-1.4751341342926025,1023.2661,
2021.02.09 08:20:51,19.0,24.0,27.779999,1.1999999,-39.12,-0.17477672,0.39264908,9.586384,0.029321533,0.0018325958,0.0030543262,-0.040929362177848816,0.01822974905371666,-1.466961145401001,1023.2661,
2021.02.09 08:20:51,19.0,24.0,28.019999,1.1999999,-39.12,-0.20111294,0.4141969,9.660604,-0.007330383,0.014049901,-0.010995574,-0.04283933714032173,0.020814837887883186,-1.464619755744934,1023.26416,
2021.02.09 08:20:51,19.0,24.0,28.14,0.9,-39.3,-0.29688102,0.38307226,9.818622,-0.017104227,0.005497787,-0.01160644,-0.03897729516029358,0.03022731840610504,-1.4796158075332642,1023.26416,
2021.02.09 08:20:51,19.0,24.0,28.26,0.59999996,-39.54,-0.17238252,0.39504328,9.7563715,0.009773844,-0.0018325958,0.0067195175,-0.04046238586306572,0.017666874453425407,-1.4904495477676392,1023.26416,
2021.02.09 08:20:51,19.0,24.0,28.14,0.71999997,-39.54,-0.12928689,0.4189853,9.504981,0.032986723,0.0018325958,0.004276057,-0.044048018753528595,0.013601175509393215,-1.4812853336334229,1023.26416,
2021.02.09 08:20:51,19.0,24.0,27.779999,0.71999997,-39.66,-0.18195933,0.38307226,9.840169,-0.016493361,-6.1086525E-4,-0.007330383,-0.03890314698219299,0.018489377573132515,-1.4866204261779785,1023.2732,
2021.02.09 08:20:51,19.0,24.0,28.019999,1.02,-39.719997,-0.22266077,0.4405331,9.751583,0.0061086523,0.0018325958,-0.008552114,-0.04513310641050339,0.0228293277323246,-1.4664241075515747,1023.2732,
2021.02.09 08:20:51,19.0,24.0,28.08,1.26,-39.3,-0.16759412,0.4405331,9.631873,0.017104227,0.0018325958,-0.004276057,-0.045698247849941254,0.01739819534122944,-1.4589678049087524,1023.2732,
2021.02.09 08:20:51,19.0,24.0,27.96,1.3199999,-39.059998,-0.14844051,0.45250413,9.787497,-0.0036651916,-0.005497787,-0.01038471,-0.04619467630982399,0.0151651781052351,-1.456487774848938,1023.2732,
2021.02.09 08:20:51,19.0,24.0,28.14,1.62,-38.7,-0.21308395,0.4261679,9.816227,0.0036651916,-0.019547688,-0.014049901,-0.04337718337774277,0.02170390821993351,-1.4496515989303589,1023.25977,
2021.02.09 08:20:51,19.0,24.0,28.199999,1.26,-38.52,-0.2657564,0.41180268,9.660604,0.03481932,-0.010995574,-0.007330383,-0.042585134506225586,0.027502359822392464,-1.463173747062683,1023.25977,
2021.02.09 08:20:51,19.0,24.0,27.779999,1.0799999,-38.94,-0.09816227,0.46447513,9.634268,0.014660766,-0.020158553,0.0012217305,-0.04817093536257744,0.010188514366745949,-1.4628490209579468,1023.25977,
2021.02.09 08:20:51,19.0,24.0,27.9,0.71999997,-39.3,-0.19153613,0.4381389,9.988609,-0.02076942,-0.018325957,-0.005497787,-0.043827708810567856,0.01917310431599617,-1.4802495241165161,1023.25977,
2021.02.09 08:20:51,19.0,24.0,27.96,1.02,-39.54,-0.12449849,0.4381389,9.847352,0.004276057,-0.016493361,0.0061086523,-0.044460196048021317,0.012642165645956993,-1.4694639444351196,1023.25073,
2021.02.09 08:20:51,19.0,24.0,27.539999,1.0799999,-39.84,-0.16759412,0.4357447,9.504981,0.04520403,-0.02076942,0.007330383,-0.04580463841557503,0.01763041317462921,-1.4622176885604858,1023.25073,
2021.02.09 08:20:51,19.0,24.0,27.359999,1.14,-39.54,-0.14844051,0.48602295,9.703699,0.004276057,-0.004276057,0.008552114,-0.050038691610097885,0.015296118333935738,-1.4540680646896362,1023.25073,
2021.02.09 08:20:52,19.0,24.0,27.84,0.9,-39.6,-0.17477672,0.4165911,9.967062,-0.03848451,-0.0061086523,-0.002443461,-0.041766051203012466,0.01753363385796547,-1.47628653049469,1023.25073,
2021.02.09 08:20:52,19.0,24.0,27.96,0.42,-39.54,-0.17717093,0.4381389,9.991004,0.015271631,-0.015882496,0.01160644,-0.043818384408950806,0.017731186002492905,-1.4912325143814087,1023.261,
2021.02.09 08:20:52,19.0,24.0,27.96,0.78,-39.6,-0.11252748,0.4381389,9.382876,0.061086524,-0.002443461,0.021991149,-0.046658340841531754,0.01199228037148714,-1.4749714136123657,1023.261,
2021.02.09 08:20:52,19.0,24.0,28.439999,0.9,-39.3,-0.062249243,0.45968673,9.715671,-0.037873644,-0.01038471,0.01038471,-0.04727771505713463,0.0064070094376802444,-1.473020315170288,1023.261,
2021.02.09 08:20:52,19.0,24.0,28.5,1.3199999,-38.94,-0.18914193,0.4213795,9.991004,-0.027488936,-0.002443461,0.004886922,-0.04214336723089218,0.01892896182835102,-1.4637835025787354,1023.261,
2021.02.09 08:20:52,19.0,24.0,28.439999,1.3199999,-38.76,-0.1316811,0.49320555,9.722853,0.018936822,-0.0036651916,0.015882496,-0.05067834258079529,0.01354263536632061,-1.4530775547027588,1023.2593,
2021.02.09 08:20:52,19.0,24.0,28.56,1.3199999,-38.76,-0.16519992,0.46447513,9.655815,0.0012217305,-0.0012217305,0.008552114,-0.04805907979607582,0.01710718497633934,-1.4564387798309326,1023.2593,
2021.02.09 08:20:52,19.0,24.0,28.08,1.4399999,-39.0,-0.11971009,0.46208093,9.813833,-0.013439035,-0.004886922,0.014660766,-0.04704640433192253,0.012197491712868214,-1.4522159099578857,1023.2593,
2021.02.09 08:20:52,19.0,24.0,27.66,1.1999999,-38.94,-0.107739076,0.49799395,9.742006,0.0018325958,0.004886922,0.0018325958,-0.05107064172625542,0.011058778502047062,-1.4537420272827148,1023.2593,
2021.02.09 08:20:52,19.0,24.0,27.72,1.5,-39.059998,-0.110133275,0.45250413,9.847352,0.0036651916,0.0,0.01282817,-0.045916687697172165,0.011183584108948708,-1.4502242803573608,1023.261,
2021.02.09 08:20:52,19.0,24.0,27.48,1.1999999,-38.94,-0.10055647,0.45250413,9.720459,0.0030543262,-0.009773844,0.014660766,-0.046515654772520065,0.010344457812607288,-1.4596256017684937,1023.261,
2021.02.09 08:20:52,19.0,24.0,27.779999,0.78,-38.94,-0.107739076,0.46447513,9.734824,0.010995574,6.1086525E-4,0.005497787,-0.04767366498708725,0.011066935956478119,-1.474219560623169,1023.261,
2021.02.09 08:20:52,19.0,24.0,27.9,1.0799999,-38.82,-0.12689269,0.44532153,9.737218,-0.012217305,-6.1086525E-4,0.007941248,-0.04569823667407036,0.01303098164498806,-1.4664475917816162,1023.261,
2021.02.09 08:20:52,19.0,24.0,27.779999,0.84,-39.059998,-0.10534488,0.45250413,9.677363,-0.0018325958,0.0030543262,0.007941248,-0.046722233295440674,0.010885270312428474,-1.473224401473999,1023.25684,
2021.02.09 08:20:52,19.0,24.0,28.14,0.71999997,-39.239998,-0.1340753,0.49081135,9.832987,-0.020158553,-0.008552114,0.004886922,-0.049868758767843246,0.013634411618113518,-1.4735010862350464,1023.25684,
2021.02.09 08:20:52,19.0,24.0,28.38,1.0799999,-39.48,-0.07182605,0.47884035,9.8042555,0.022602014,0.0036651916,0.007941248,-0.048799965530633926,0.007325876038521528,-1.4638839960098267,1023.25684,
2021.02.09 08:20:52,19.0,24.0,28.38,1.3199999,-39.66,-0.11252748,0.49081135,9.643845,0.005497787,0.005497787,-0.0067195175,-0.050846416503190994,0.011667792685329914,-1.451337456703186,1023.25684,
2021.02.09 08:20:52,19.0,24.0,28.56,1.38,-39.42,-0.18195933,0.45250413,9.842564,-0.008552114,0.01282817,-0.0012217305,-0.04593402519822121,0.018484879285097122,-1.4558556079864502,1023.2639,
2021.02.09 08:20:52,19.0,24.0,28.32,1.62,-39.42,-0.1604115,0.46208093,9.8042555,0.018936822,0.01038471,0.0018325958,-0.047089505940675735,0.016359955072402954,-1.4451452493667603,1023.2639,
2021.02.09 08:20:52,19.0,24.0,28.38,1.26,-39.18,-0.10295067,0.45010993,9.715671,0.03359759,0.004886922,0.007330383,-0.04629254713654518,0.010595954954624176,-1.46089768409729,1023.2639,
2021.02.09 08:20:52,19.0,24.0,27.96,1.0799999,-39.12,-0.107739076,0.48123455,9.531317,-0.004886922,0.014660766,-0.004886922,-0.05044377222657204,0.011303211562335491,-1.4597936868667603,1023.2639,
2021.02.09 08:20:52,19.0,24.0,27.359999,1.3199999,-39.18,-0.1340753,0.45729253,9.890448,-0.010995574,0.005497787,-0.010995574,-0.046198636293411255,0.013555209152400494,-1.4540948867797852,1023.26416,
2021.02.09 08:20:52,19.0,24.0,27.96,1.0799999,-39.12,-0.1340753,0.50996494,9.734824,0.0018325958,0.0061086523,-0.01282817,-0.052332840859889984,0.013771879486739635,-1.4565997123718262,1023.26416,
2021.02.09 08:20:52,19.0,24.0,27.9,1.38,-39.3,-0.12449849,0.47405192,9.718064,0.0030543262,0.01160644,-0.019547688,-0.04873785749077797,0.01281033642590046,-1.4505418539047241,1023.26416,
2021.02.09 08:20:52,19.0,24.0,28.5,1.3199999,-39.239998,-0.1604115,0.45729253,9.631873,-0.0036651916,0.004886922,-0.018325957,-0.04743482172489166,0.016652699559926987,-1.4563169479370117,1023.26416,
2021.02.09 08:20:53,19.0,24.0,29.16,1.5,-39.18,-0.088585466,0.49081135,9.837775,-0.020158553,0.002443461,-0.018325957,-0.049847133457660675,0.009004379622638226,-1.4511408805847168,1023.25244,
2021.02.09 08:20:53,19.0,24.0,28.68,1.92,-39.239998,-0.1604115,0.46447513,9.763555,0.0012217305,0.002443461,-0.025045475,-0.047530096024274826,0.016428142786026,-1.435903787612915,1023.25244,
2021.02.09 08:20:53,19.0,24.0,28.619999,2.28,-39.12,-0.11731588,0.45250413,9.619903,6.1086525E-4,0.0067195175,-0.025045475,-0.04700019583106041,0.012194517999887466,-1.4250152111053467,1023.25244,
2021.02.09 08:20:53,19.0,24.0,28.14,2.46,-39.3,-0.22984336,0.4285621,9.682152,-0.03604105,0.012217305,-0.025045475,-0.04422179237008095,0.02373441495001316,-1.416730284690857,1023.25244,
2021.02.09 08:20:53,19.0,24.0,27.66,2.28,-39.6,-0.23463176,0.48123455,10.247183,-0.032375857,-0.009162978,-0.01160644,-0.04691586270928383,0.02289319597184658,-1.416355013847351,1023.2561,
2021.02.09 08:20:53,19.0,24.0,27.359999,2.04,-39.18,-0.1436521,0.5267244,9.210494,0.087964594,0.0061086523,-0.010995574,-0.05711827054619789,0.01559530384838581,-1.4114803075790405,1023.2561,
2021.02.09 08:20:53,19.0,24.0,27.359999,1.86,-39.36,-0.15801731,0.46926352,9.85214,-0.043982297,-0.007941248,-0.0061086523,-0.0475885346531868,0.016037505120038986,-1.43135666847229,1023.2561,
2021.02.09 08:20:53,19.0,24.0,27.539999,2.1,-39.239998,-0.32321724,0.4333505,10.089166,-0.034208454,0.007941248,-0.01282817,-0.04290369525551796,0.03202511742711067,-1.4264650344848633,1023.2561,
2021.02.09 08:20:53,19.0,24.0,27.599998,1.8,-38.879997,-0.12210429,0.50757074,9.624691,0.062308256,-0.018325957,0.032375857,-0.052683275192976,0.012685886584222317,-1.4292221069335938,1023.25464,
2021.02.09 08:20:53,19.0,24.0,27.66,1.74,-39.12,0.035913024,0.50517654,9.555259,-0.0061086523,0.0061086523,-0.009162978,-0.05281940847635269,-0.003758438630029559,-1.4350721836090088,1023.25464,
2021.02.09 08:20:53,19.0,24.0,27.66,1.9799999,-39.18,-0.2705448,0.45968673,9.751583,-0.03176499,0.015882496,-0.025045475,-0.04708673804998398,0.027736563235521317,-1.4265869855880737,1023.25464,
2021.02.09 08:20:53,19.0,24.0,27.72,1.5,-39.36,-0.17238252,0.50996494,9.76116,0.0067195175,0.010995574,-0.01038471,-0.05218872055411339,0.017658209428191185,-1.4392038583755493,1023.25464,
2021.02.09 08:20:53,19.0,24.0,27.42,2.1599998,-39.719997,-0.22744916,0.47405192,9.710882,0.017715093,0.0012217305,-0.0012217305,-0.048764489591121674,0.02341780811548233,-1.4162980318069458,1023.2632,
2021.02.09 08:20:53,19.0,24.0,27.539999,2.58,-40.2,-0.1412579,0.49559975,9.524135,-0.0067195175,0.01282817,0.0030543262,-0.05198360234498978,0.014830485917627811,-1.3985713720321655,1023.2632,
2021.02.09 08:20:53,19.0,24.0,27.48,2.3999999,-40.079998,-0.16280572,0.4309563,9.792285,-0.016493361,0.002443461,0.0,-0.04397532716393471,0.016624385491013527,-1.416148066520691,1023.2632,
2021.02.09 08:20:53,19.0,24.0,27.48,2.7,-40.079998,-0.1340753,0.47884035,9.691729,0.010995574,0.010995574,-0.007941248,-0.04936225712299347,0.01383310928940773,-1.3982211351394653,1023.2632,
2021.02.09 08:20:53,19.0,24.0,27.84,2.46,-39.78,-0.16759412,0.47165772,9.572019,-0.014049901,0.015271631,-0.012217305,-0.0492272786796093,0.01750696636736393,-1.408698320388794,1023.27295,
2021.02.09 08:20:53,19.0,24.0,27.779999,2.22,-39.18,-0.25139117,0.45010993,9.787497,-0.016493361,0.007941248,-0.017104227,-0.04594074934720993,0.02567928656935692,-1.4206488132476807,1023.27295,
2021.02.09 08:20:53,19.0,24.0,27.96,2.04,-38.94,-0.15083471,0.46926352,9.67018,0.018325957,0.002443461,0.005497787,-0.04848293587565422,0.015596656128764153,-1.4275145530700684,1023.27295,
2021.02.09 08:20:53,19.0,24.0,27.779999,1.9799999,-39.12,-0.107739076,0.49081135,9.653421,-0.0018325958,0.0030543262,-0.018936822,-0.05079635605216026,0.011160250753164291,-1.4262691736221313,1023.27295,
2021.02.09 08:20:53,19.0,24.0,27.3,1.8,-39.42,-0.19393034,0.46208093,9.701305,-0.0067195175,0.009162978,-0.017715093,-0.04758533462882042,0.01998746767640114,-1.4321551322937012,1023.2622,
2021.02.09 08:20:53,19.0,24.0,27.48,1.56,-39.42,-0.22984336,0.47884035,9.696517,-0.0012217305,0.002443461,-0.016493361,-0.04932880029082298,0.023699264973402023,-1.4384299516677856,1023.2622,
2021.02.09 08:20:53,19.0,24.0,27.3,1.92,-39.719997,-0.16280572,0.47644615,9.698911,0.0,-0.002443461,-0.01160644,-0.049077313393354416,0.01678440347313881,-1.4258003234863281,1023.2622,
2021.02.09 08:20:53,19.0,24.0,27.3,1.74,-39.42,-0.12449849,0.46208093,9.682152,0.0061086523,-0.002443461,-0.02076942,-0.04768490046262741,0.012857845984399319,-1.4359898567199707,1023.2622,
2021.02.09 08:20:53,19.0,24.0,27.84,2.1599998,-39.3,-0.22026655,0.4357447,9.540894,0.004886922,0.010995574,-0.019547688,-0.045627411454916,0.023082474246621132,-1.424075961112976,1023.2478,
2021.02.09 08:20:54,19.0,24.0,27.599998,2.34,-40.02,-0.20590134,0.45968673,9.730036,-0.014660766,-0.007330383,-0.023823744,-0.04719843715429306,0.021158259361982346,-1.4131195545196533,1023.2478,
2021.02.09 08:20:54,19.0,24.0,27.48,1.68,-39.96,-0.36391866,0.45729253,9.715671,-0.01282817,-0.0012217305,-0.005497787,-0.046999894082546234,0.03743937239050865,-1.4329290390014648,1023.2478,
2021.02.09 08:20:54,19.0,24.0,27.539999,1.86,-40.26,-0.1316811,0.50996494,9.773131,0.008552114,-0.026267206,0.017715093,-0.052128296345472336,0.013472973369061947,-1.4246214628219604,1023.2478,
2021.02.09 08:20:54,19.0,24.0,27.42,1.8,-40.2,-0.047884032,0.49799395,9.706094,0.030543262,-0.020158553,0.01038471,-0.0512617751955986,0.0049333591014146805,-1.4297778606414795,1023.24585,
2021.02.09 08:20:54,19.0,24.0,27.72,2.04,-39.66,-0.30885202,0.4381389,9.562442,0.027488936,-0.007941248,-0.015271631,-0.04576287046074867,0.032287225127220154,-1.4245578050613403,1023.24585,
2021.02.09 08:20:54,19.0,24.0,27.96,2.1599998,-39.84,-0.12449849,0.5386954,9.665392,0.0018325958,-0.0030543262,-0.004886922,-0.05567225068807602,0.012880139984190464,-1.4120622873306274,1023.24585,
2021.02.09 08:20:54,19.0,24.0,28.08,2.1599998,-39.719997,-0.28491,0.49559975,9.696517,0.010995574,0.005497787,-0.009162978,-0.051044683903455734,0.0293742623180151,-1.4150131940841675,1023.24585,
2021.02.09 08:20:54,19.0,24.0,27.96,1.74,-39.96,-0.10295067,0.5410896,9.595961,0.02321288,6.1086525E-4,0.01160644,-0.05632434040307999,0.010728130117058754,-1.4263828992843628,1023.25684,
2021.02.09 08:20:54,19.0,24.0,28.019999,1.3199999,-40.079998,-0.20350714,0.4429273,9.655815,0.004886922,-0.0018325958,0.008552114,-0.04582926258444786,0.021073002368211746,-1.454229712486267,1023.25684,
2021.02.09 08:20:54,19.0,24.0,27.72,1.56,-40.14,-0.11971009,0.5434838,9.773131,0.0036651916,-0.014049901,0.0012217305,-0.055548619478940964,0.012248285114765167,-1.4319463968276978,1023.25684,
2021.02.09 08:20:54,19.0,24.0,27.18,1.8,-39.66,-0.1436521,0.5482722,9.64145,0.045814894,0.0061086523,-0.0018325958,-0.05679868906736374,0.014898327179253101,-1.4188421964645386,1023.25684,
2021.02.09 08:20:54,19.0,24.0,27.119999,2.22,-39.3,-0.1340753,0.5386954,9.562442,-0.002443461,-0.0061086523,-0.007941248,-0.05626950412988663,0.01402011327445507,-1.4049097299575806,1023.2783,
2021.02.09 08:20:54,19.0,24.0,26.939999,1.92,-39.3,-0.21787235,0.5291186,9.588778,0.008552114,0.0067195175,-0.0018325958,-0.05511092022061348,0.022717688232660294,-1.4140682220458984,1023.2783,
2021.02.09 08:20:54,19.0,24.0,26.82,1.9799999,-39.36,-0.1412579,0.557849,9.730036,-0.012217305,-0.007941248,0.004886922,-0.05726395919919014,0.014516695402562618,-1.4102044105529785,1023.2783,
2021.02.09 08:20:54,19.0,24.0,27.24,1.56,-39.719997,-0.12928689,0.5506664,9.655815,0.007941248,0.004886922,0.0018325958,-0.05696270987391472,0.013388736173510551,-1.428009271621704,1023.2783,
2021.02.09 08:20:54,19.0,24.0,27.18,1.14,-39.96,-0.17956513,0.545878,9.64145,-0.017104227,-0.004276057,-0.007941248,-0.05654766783118248,0.018622135743498802,-1.441938877105713,1023.2727,
2021.02.09 08:20:54,19.0,24.0,27.18,1.4399999,-40.2,-0.17956513,0.5410896,9.67018,6.1086525E-4,0.0061086523,-0.0030543262,-0.05588654801249504,0.01856682077050209,-1.4312934875488281,1023.2727,
2021.02.09 08:20:54,19.0,24.0,27.96,1.56,-40.02,-0.16280572,0.51235914,9.646238,0.0,-0.0018325958,0.007941248,-0.053057510405778885,0.016876036301255226,-1.435815691947937,1023.2727,
2021.02.09 08:20:54,19.0,24.0,28.14,1.62,-40.44,-0.110133275,0.545878,9.672575,-0.01160644,-0.004276057,0.005497787,-0.05637219548225403,0.011385646648705006,-1.4303210973739624,1023.2727,
2021.02.09 08:20:54,19.0,24.0,28.38,1.9799999,-40.379997,-0.18914193,0.5291186,9.651027,-0.004886922,0.0036651916,0.004886922,-0.054759781807661057,0.01959560625255108,-1.4190839529037476,1023.2737,
2021.02.09 08:20:54,19.0,24.0,28.38,2.04,-40.02,-0.24899697,0.51475334,9.576807,-0.029932396,0.0018325958,0.005497787,-0.053680215030908585,0.02599414251744747,-1.4174853563308716,1023.2737,
2021.02.09 08:20:54,19.0,24.0,28.14,1.56,-39.84,-0.088585466,0.46686932,9.691729,-0.02687807,-0.007330383,0.018936822,-0.04813271760940552,0.00914006121456623,-1.445891261100769,1023.2737,
2021.02.09 08:20:54,19.0,24.0,28.08,1.4399999,-39.6,-0.20350714,0.533907,9.746795,-0.017715093,-0.004886922,0.004276057,-0.05471111088991165,0.020876357331871986,-1.438174843788147,1023.2737,
2021.02.09 08:20:54,19.0,24.0,28.08,1.0799999,-39.719997,-0.17477672,0.50996494,9.715671,0.013439035,-0.0061086523,0.008552114,-0.05243231728672981,0.017987215891480446,-1.4548643827438354,1023.26245,
2021.02.09 08:20:54,19.0,24.0,28.019999,1.02,-39.6,-0.11971009,0.50517654,9.543288,0.015882496,-0.007941248,0.0061086523,-0.05288175866007805,0.01254324521869421,-1.4575474262237549,1023.26245,
2021.02.09 08:20:55,19.0,24.0,27.599998,0.84,-39.6,-0.19393034,0.50757074,9.631873,-0.009162978,0.0030543262,-6.1086525E-4,-0.05263764411211014,0.020131509751081467,-1.4611101150512695,1023.26245,
2021.02.09 08:20:55,19.0,24.0,27.84,0.78,-39.3,-0.17477672,0.51714754,9.727641,-0.004276057,-0.004276057,-0.0012217305,-0.053104132413864136,0.017965085804462433,-1.4646296501159668,1023.26245,
2021.02.09 08:20:55,19.0,24.0,27.9,0.71999997,-38.76,-0.17956513,0.47405192,9.595961,0.02687807,-0.0036651916,0.01038471,-0.049352437257766724,0.018710391595959663,-1.4733266830444336,1023.2688,
2021.02.09 08:20:55,19.0,24.0,28.26,0.53999996,-38.879997,-0.17477672,0.51235914,9.495404,-0.009162978,0.0018325958,0.009162978,-0.05389725789427757,0.01840437576174736,-1.4744571447372437,1023.2688,
2021.02.09 08:20:55,19.0,24.0,28.32,0.84,-38.64,-0.18914193,0.48362875,9.794679,-0.022602014,-0.004886922,0.0036651916,-0.04932743310928345,0.01930828206241131,-1.4706265926361084,1023.2688,
2021.02.09 08:20:55,19.0,24.0,27.96,1.0799999,-38.82,-0.14844051,0.545878,9.600749,0.0012217305,-0.004886922,0.010995574,-0.056789930909872055,0.015460114926099777,-1.450533390045166,1023.2688,
2021.02.09 08:20:55,19.0,24.0,28.14,1.1999999,-38.94,-0.12928689,0.51235914,9.691729,-0.009773844,-0.0036651916,0.01038471,-0.05281175300478935,0.013339129276573658,-1.4528197050094604,1023.26465,
2021.02.09 08:20:55,19.0,24.0,28.08,1.14,-38.82,-0.1604115,0.51475334,9.744401,-0.009773844,-0.0018325958,0.009162978,-0.05276935547590256,0.01646042987704277,-1.454329013824463,1023.26465,
2021.02.09 08:20:55,19.0,24.0,28.14,1.38,-39.18,-0.110133275,0.5434838,9.734824,0.009773844,-0.008552114,0.002443461,-0.05576736852526665,0.011312847025692463,-1.442268967628479,1023.26465,
2021.02.09 08:20:55,19.0,24.0,28.14,1.1999999,-39.36,-0.11971009,0.5434838,9.619903,0.01282817,-0.008552114,6.1086525E-4,-0.05643141642212868,0.012443359941244125,-1.4470958709716797,1023.26465,
2021.02.09 08:20:55,19.0,24.0,27.48,1.1999999,-39.239998,-0.16759412,0.49559975,9.660604,0.0012217305,-0.0061086523,0.009162978,-0.05124848708510399,0.017346464097499847,-1.4507337808609009,1023.2622,
2021.02.09 08:20:55,19.0,24.0,27.66,1.14,-39.48,-0.1364695,0.5482722,9.660604,0.004276057,-0.0067195175,0.009773844,-0.056686948984861374,0.014125454239547253,-1.4460985660552979,1023.2622,
2021.02.09 08:20:55,19.0,24.0,27.72,0.9,-39.6,-0.12928689,0.51954174,9.720459,0.009162978,-0.007330383,0.0067195175,-0.05339275673031807,0.013299708254635334,-1.4597634077072144,1023.2622,
2021.02.09 08:20:55,19.0,24.0,27.779999,1.14,-39.239998,-0.110133275,0.5243302,9.660604,0.019547688,-0.0067195175,0.007941248,-0.05421838536858559,0.011399755254387856,-1.4512906074523926,1023.2622,
2021.02.09 08:20:55,19.0,24.0,28.08,1.02,-39.78,-0.09816227,0.545878,9.634268,-0.008552114,-0.0067195175,-0.0018325958,-0.05659659206867218,0.010188514366745949,-1.4526551961898804,1023.2612,
2021.02.09 08:20:55,19.0,24.0,27.599998,1.5,-39.6,-0.14604631,0.51235914,9.82341,0.010995574,-0.0012217305,-0.002443461,-0.05210398882627487,0.014866075478494167,-1.4389584064483643,1023.2612,
2021.02.09 08:20:55,19.0,24.0,27.539999,1.74,-39.6,-0.107739076,0.5386954,9.564836,0.009773844,-0.002443461,-6.1086525E-4,-0.05625741183757782,0.011263604275882244,-1.4248919486999512,1023.2612,
2021.02.09 08:20:55,19.0,24.0,27.18,1.56,-39.96,-0.11971009,0.51475334,9.679757,-6.1086525E-4,-0.004886922,0.007941248,-0.053124234080314636,0.012366424314677715,-1.4331120252609253,1023.2612,
2021.02.09 08:20:55,19.0,24.0,27.3,1.56,-39.66,-0.11731588,0.5410896,9.837775,0.0012217305,-0.01038471,-0.0018325958,-0.05494195222854614,0.011924476362764835,-1.4317827224731445,1023.26685,
2021.02.09 08:20:55,19.0,24.0,27.24,1.38,-39.48,-0.1436521,0.5434838,9.610326,0.035430185,-0.0036651916,0.004276057,-0.056485600769519806,0.014946568757295609,-1.4354257583618164,1023.26685,
2021.02.09 08:20:55,19.0,24.0,27.3,0.84,-39.239998,-0.016759412,0.59615624,9.619903,-0.007941248,0.0030543262,-0.0067195175,-0.061891887336969376,0.0017421585507690907,-1.4513447284698486,1023.26685,
2021.02.09 08:20:55,19.0,24.0,27.66,0.9,-39.36,-0.1436521,0.49799395,9.818622,-0.016493361,6.1086525E-4,-0.013439035,-0.050670500844717026,0.01462953258305788,-1.4636553525924683,1023.26685,
2021.02.09 08:20:55,19.0,24.0,27.359999,1.14,-39.42,-0.1604115,0.521936,9.545682,6.1086525E-4,0.002443461,0.004886922,-0.05461562052369118,0.016803031787276268,-1.4472438097000122,1023.2688,
2021.02.09 08:20:55,19.0,24.0,27.9,1.1999999,-39.899998,-0.07182605,0.50757074,9.495404,-0.047036625,-0.015271631,0.014049901,-0.05340200662612915,0.007564151659607887,-1.4503840208053589,1023.2688,
2021.02.09 08:20:55,19.0,24.0,27.539999,1.74,-40.02,-0.11492168,0.521936,9.739613,-0.13622294,-0.020158553,0.01160644,-0.05353405699133873,0.011798863299190998,-1.4278278350830078,1023.2688,
2021.02.09 08:20:56,19.0,24.0,27.48,1.56,-39.48,-0.033518825,0.50517654,10.079589,-0.0580322,0.0012217305,-0.008552114,-0.05007658898830414,0.0033254034351557493,-1.4421149492263794,1023.2688,
2021.02.09 08:20:56,19.0,24.0,27.72,1.74,-39.48,-0.07182605,0.50757074,9.847352,0.021380283,0.015271631,-0.0067195175,-0.05149693787097931,0.007293816190212965,-1.4338511228561401,1023.2715,
2021.02.09 08:20:56,19.0,24.0,27.599998,1.4399999,-39.239998,-0.23463176,0.44771573,9.576807,0.031154128,0.0067195175,-0.01282817,-0.04670199006795883,0.024495098739862442,-1.4474570751190186,1023.2715,
2021.02.09 08:20:56,19.0,24.0,27.84,1.4399999,-39.36,-0.02633622,0.47884035,9.615114,0.005497787,0.0036651916,0.004276057,-0.04975949972867966,0.0027390369214117527,-1.4488130807876587,1023.2715,
2021.02.09 08:20:56,19.0,24.0,28.08,1.3199999,-39.36,-0.090979666,0.49320555,9.794679,-0.012217305,0.0012217305,-0.01160644,-0.05030977725982666,0.009288416244089603,-1.4518961906433105,1023.2715,
2021.02.09 08:20:56,19.0,24.0,28.08,1.14,-39.239998,-0.088585466,0.51475334,9.737218,0.01282817,0.008552114,-0.01160644,-0.052813176065683365,0.009097365662455559,-1.4550455808639526,1023.26514,
2021.02.09 08:20:56,19.0,24.0,27.66,1.1999999,-38.94,-0.19153613,0.44532153,9.636662,0.020158553,0.002443461,-0.01282817,-0.0461692251265049,0.019873159006237984,-1.458883285522461,1023.26514,
2021.02.09 08:20:56,19.0,24.0,27.779999,1.0799999,-39.0,-0.08140286,0.5434838,9.581595,0.005497787,0.01038471,-0.007330383,-0.05665888637304306,0.00849554780870676,-1.4511394500732422,1023.26514,
2021.02.09 08:20:56,19.0,24.0,27.84,1.3199999,-38.94,-0.107739076,0.5291186,9.7803135,-0.019547688,0.007941248,-0.015271631,-0.054044414311647415,0.011015466414391994,-1.4460173845291138,1023.26514,
2021.02.09 08:20:56,19.0,24.0,27.96,1.1999999,-39.059998,-0.16519992,0.5291186,9.787497,-0.0012217305,0.0067195175,-0.007330383,-0.05400041863322258,0.01687706634402275,-1.4493443965911865,1023.2644,
2021.02.09 08:20:56,19.0,24.0,28.08,1.26,-39.0,-0.1316811,0.51235914,9.605537,0.0061086523,0.004886922,-6.1086525E-4,-0.053284481167793274,0.013708015903830528,-1.4495604038238525,1023.2644,
2021.02.09 08:20:56,19.0,24.0,28.26,1.02,-39.12,-0.1316811,0.50517654,9.672575,-0.0012217305,0.015271631,6.1086525E-4,-0.05217548459768295,0.01361302100121975,-1.4602059125900269,1023.2644,
2021.02.09 08:20:56,19.0,24.0,28.08,0.9,-39.18,-0.11731588,0.50038815,9.6845455,-0.019547688,0.01160644,-0.007941248,-0.051619041711091995,0.012113128788769245,-1.464768648147583,1023.2644,
2021.02.09 08:20:56,19.0,24.0,28.26,1.14,-39.12,-0.12689269,0.47644615,9.751583,0.0,0.019547688,-0.0018325958,-0.04881539195775986,0.01301178801804781,-1.4607747793197632,1023.2742,
2021.02.09 08:20:56,19.0,24.0,28.68,1.26,-39.36,-0.16759412,0.50278234,9.689334,-0.02321288,-6.1086525E-4,-0.0061086523,-0.051836054772138596,0.01729503832757473,-1.4526474475860596,1023.2742,
2021.02.09 08:20:56,19.0,24.0,28.619999,1.5,-38.94,-0.10534488,0.48123455,9.794679,0.0061086523,0.014660766,0.004276057,-0.049089934676885605,0.010754902847111225,-1.4499680995941162,1023.2742,
2021.02.09 08:20:56,19.0,24.0,28.8,1.62,-39.0,-0.09816227,0.50757074,9.68694,-0.0067195175,0.01160644,0.004886922,-0.05234687030315399,0.010133118368685246,-1.4421755075454712,1023.2742,
2021.02.09 08:20:56,19.0,24.0,28.56,1.0799999,-39.0,-0.19871874,0.45010993,9.701305,-0.0012217305,0.017104227,0.002443461,-0.04635388404130936,0.020480846986174583,-1.4662363529205322,1023.27,
2021.02.09 08:20:56,19.0,24.0,28.32,1.5,-39.0,-0.12928689,0.50038815,9.682152,-0.005497787,0.017104227,0.009162978,-0.05163097009062767,0.013352321460843086,-1.4444775581359863,1023.27,
2021.02.09 08:20:56,19.0,24.0,28.019999,1.38,-39.3,-0.18435353,0.50517654,9.89763,0.01160644,0.009773844,0.0012217305,-0.05098707228899002,0.018623875454068184,-1.446550726890564,1023.27,
2021.02.09 08:20:56,19.0,24.0,27.72,1.38,-39.3,-0.110133275,0.51954174,9.43076,0.0030543262,0.032375857,0.008552114,-0.05503074824810028,0.011677560396492481,-1.4410346746444702,1023.27,
2021.02.09 08:20:56,19.0,24.0,27.66,1.68,-39.42,-0.20590134,0.45250413,9.809045,-0.032375857,0.01160644,0.002443461,-0.04608849063515663,0.02098788507282734,-1.4403021335601807,1023.2661,
2021.02.09 08:20:56,19.0,24.0,27.24,1.1999999,-39.54,-0.11252748,0.49799395,9.727641,0.015882496,0.021991149,0.015271631,-0.051145631819963455,0.011567291803658009,-1.4505531787872314,1023.2661,
2021.02.09 08:20:56,19.0,24.0,27.24,1.4399999,-39.6,-0.12449849,0.5315128,9.605537,-0.008552114,0.02076942,0.004276057,-0.055272992700338364,0.01296039018779993,-1.435247778892517,1023.2661,
2021.02.09 08:20:56,19.0,24.0,26.939999,1.92,-39.719997,-0.110133275,0.47884035,9.634268,-0.007941248,0.027488936,0.009162978,-0.04965768754482269,0.011430913582444191,-1.4244276285171509,1023.2661,
2021.02.09 08:20:56,19.0,24.0,26.939999,2.22,-39.48,0.08140286,0.4405331,10.429143,-0.12644911,-0.07452556,0.03726278,-0.042214199900627136,-0.007805167231708765,-1.4295198917388916,1023.26416,
2021.02.09 08:20:57,19.0,24.0,27.119999,2.52,-39.48,-0.023942016,0.49559975,10.603919,0.1001819,0.080634214,0.01160644,-0.04670330509543419,0.002257842104882002,-1.4107577800750732,1023.26416,
