Time,X-cord,Y-cord,Mag_x,Mag_y,Mag_z,Acc_x,Acc_y,Acc_z,Gyro_x,Gyro_y,Gyro_z,Orn_x,Orn_y,Orn_z,Pressure,
2021.02.09 08:22:38,30.0,24.0,30.599998,1.5,-35.76,-0.5386954,0.4381389,9.825804,-0.0421497,0.014049901,-0.057421334,-0.044494397938251495,0.05476973205804825,-1.4606972932815552,1023.3091,
2021.02.09 08:22:38,30.0,24.0,30.9,1.26,-35.64,-0.37349546,0.35194764,9.634268,0.12950343,0.1301143,-0.059864793,-0.036487191915512085,0.038747988641262054,-1.482810378074646,1023.3091,
2021.02.09 08:22:38,30.0,24.0,31.019999,1.3199999,-35.579998,-0.2777274,0.4381389,9.011775,0.22785273,0.07513642,-0.05009095,-0.04855722188949585,0.030808527022600174,-1.4678163528442383,1023.3091,
2021.02.09 08:22:38,30.0,24.0,31.38,1.3199999,-34.98,-0.260968,0.39025488,9.344569,0.028099801,-0.06841691,-0.032375857,-0.04172224551439285,0.027919981628656387,-1.478472352027893,1023.30347,
2021.02.09 08:22:38,30.0,24.0,31.5,1.56,-35.04,-0.2705448,0.2825158,9.660604,-0.10873401,-0.06841691,-0.026267206,-0.029224328696727753,0.027997640892863274,-1.485495686531067,1023.30347,
2021.02.09 08:22:38,30.0,24.0,31.08,1.56,-34.98,-0.12689269,0.38307226,9.799467,-0.111177474,-0.124005646,0.032375857,-0.03906796872615814,0.012948214076459408,-1.4750665426254272,1023.30347,
2021.02.09 08:22:38,30.0,24.0,30.72,2.1,-35.46,-0.04070143,0.4381389,9.856929,-0.081855945,-0.10995574,0.036651913,-0.04442022368311882,0.0041291965171694756,-1.451065182685852,1023.30347,
2021.02.09 08:22:38,30.0,24.0,29.76,2.58,-35.76,-0.045489833,0.39504328,10.1226845,-0.05497787,-0.07819075,0.005497787,-0.03900535777211189,0.004493820481002331,-1.4372098445892334,1023.3103,
2021.02.09 08:22:38,30.0,24.0,29.76,2.76,-35.34,-0.11252748,0.29448682,9.792285,0.04153884,-0.043982297,6.1086525E-4,-0.030062304809689522,0.011490937322378159,-1.4410037994384766,1023.3103,
2021.02.09 08:22:38,30.0,24.0,29.88,3.1799998,-35.82,0.062249243,0.33997664,9.674969,0.040927973,-0.014049901,0.014660766,-0.03512464091181755,-0.006433962378650904,-1.424743413925171,1023.3103,
2021.02.09 08:22:38,30.0,24.0,30.179998,2.6399999,-35.399998,-0.050278235,0.2753332,9.528923,0.02076942,6.1086525E-4,-0.0061086523,-0.028886033222079277,0.00527633260935545,-1.4491733312606812,1023.3103,
2021.02.09 08:22:38,30.0,24.0,30.779999,2.82,-35.579998,-0.023942016,0.32800564,9.471462,0.0061086523,-0.0012217305,-0.007330383,-0.034616995602846146,0.002527800155803561,-1.439511775970459,1023.3137,
2021.02.09 08:22:38,30.0,24.0,30.119999,2.46,-35.94,-0.05267244,0.4405331,9.830592,-0.03604105,0.0012217305,-0.018936822,-0.04478186368942261,0.005357961170375347,-1.4355080127716064,1023.3137,
2021.02.09 08:22:38,30.0,24.0,29.88,2.52,-35.88,-0.23942018,0.38307226,9.801862,-0.034208454,0.047647487,-0.035430185,-0.03905006870627403,0.02442113496363163,-1.4355039596557617,1023.3137,
2021.02.09 08:22:38,30.0,24.0,29.34,2.82,-35.88,-0.15562311,0.33039984,9.880871,-0.01282817,0.0030543262,-0.012217305,-0.03342173621058464,0.015748636797070503,-1.431540846824646,1023.3137,
2021.02.09 08:22:38,30.0,24.0,28.859999,2.58,-36.18,0.033518825,0.44532153,9.588778,0.054367006,0.029932396,0.015882496,-0.04640831798315048,-0.0034956163726747036,-1.4251794815063477,1023.31396,
2021.02.09 08:22:38,30.0,24.0,29.46,2.7,-36.54,0.0,0.41180268,9.495404,0.029932396,0.03848451,-0.007330383,-0.04334147274494171,1.0E-6,-1.4265018701553345,1023.31396,
2021.02.09 08:22:38,30.0,24.0,29.88,2.7,-36.84,-0.19871874,0.37588966,9.94312,-0.021380283,0.032375857,-0.018325957,-0.03777846321463585,0.019982891157269478,-1.430607795715332,1023.31396,
2021.02.09 08:22:38,30.0,24.0,30.3,2.6399999,-36.78,0.08619126,0.48362875,9.653421,0.02565634,0.008552114,-0.01160644,-0.0500553622841835,-0.008928333409130573,-1.4260833263397217,1023.31396,
2021.02.09 08:22:39,30.0,24.0,30.539999,2.52,-36.54,-0.19871874,0.4237737,9.528923,0.049480084,0.021991149,-0.032986723,-0.04443342611193657,0.020851248875260353,-1.4316840171813965,1023.312,
2021.02.09 08:22:39,30.0,24.0,30.179998,2.52,-36.12,-0.1340753,0.4165911,9.564836,-0.005497787,0.018325957,-0.021380283,-0.0435226671397686,0.014016604982316494,-1.4332377910614014,1023.312,
2021.02.09 08:22:39,30.0,24.0,30.0,2.28,-35.52,-0.15322891,0.4189853,9.847352,-0.026267206,-0.014049901,-0.015271631,-0.04251722991466522,0.015559162013232708,-1.4422004222869873,1023.312,
2021.02.09 08:22:39,30.0,24.0,30.0,2.1599998,-35.46,-0.10055647,0.4261679,9.674969,0.017715093,0.0067195175,-6.1086525E-4,-0.044017672538757324,0.010393092408776283,-1.445505142211914,1023.312,
2021.02.09 08:22:39,30.0,24.0,30.3,1.9799999,-35.399998,-0.24420857,0.4405331,9.718064,0.008552114,-0.002443461,-0.009773844,-0.04528607428073883,0.02512405626475811,-1.4484726190567017,1023.3196,
2021.02.09 08:22:39,30.0,24.0,30.539999,1.92,-35.82,-0.2633622,0.46208093,9.7084875,0.02321288,0.017104227,-0.013439035,-0.047542206943035126,0.027120355516672134,-1.447633981704712,1023.3196,
2021.02.09 08:22:39,30.0,24.0,30.599998,1.56,-35.88,-0.22984336,0.51475334,9.495404,0.03726278,-0.0018325958,0.0018325958,-0.05414194241166115,0.02420102059841156,-1.4522913694381714,1023.3196,
2021.02.09 08:22:39,30.0,24.0,30.72,1.38,-36.0,-0.21308395,0.46926352,9.591172,0.02687807,6.1086525E-4,0.005497787,-0.048875581473112106,0.02221302129328251,-1.4652132987976074,1023.3196,
2021.02.09 08:22:39,30.0,24.0,30.24,1.4399999,-36.18,-0.22266077,0.5410896,9.706094,-0.016493361,0.0012217305,0.015882496,-0.05567514896392822,0.02293628454208374,-1.4526804685592651,1023.3108,
2021.02.09 08:22:39,30.0,24.0,30.42,1.62,-36.059998,-0.23223756,0.45968673,9.703699,-0.0012217305,-0.007941248,0.020158553,-0.04732339829206467,0.02392832189798355,-1.4576390981674194,1023.3108,
2021.02.09 08:22:39,30.0,24.0,30.599998,1.9799999,-36.239998,-0.17477672,0.49559975,9.816227,0.01282817,-0.025045475,0.03970624,-0.05043698847293854,0.017802996560931206,-1.44355046749115,1023.3108,
2021.02.09 08:22:39,30.0,24.0,30.599998,2.3999999,-35.94,0.02873042,0.5530606,9.634268,0.05009095,0.0036651916,0.04153884,-0.05734237655997276,-0.0029820986092090607,-1.426862120628357,1023.3108,
2021.02.09 08:22:39,30.0,24.0,30.599998,2.52,-35.76,-0.02873042,0.5626374,9.643845,-0.009773844,0.0012217305,-0.010995574,-0.058275289833545685,0.002979137236252427,-1.4209517240524292,1023.31665,
2021.02.09 08:22:39,30.0,24.0,30.48,2.28,-35.28,-0.15801731,0.48362875,9.861717,0.030543262,0.018325957,-0.01160644,-0.0489954873919487,0.016021935269236565,-1.4369076490402222,1023.31665,
2021.02.09 08:22:39,30.0,24.0,30.359999,2.22,-34.98,-0.15562311,0.5746084,9.52174,0.014049901,0.021380283,-0.018936822,-0.06026587262749672,0.0163425225764513,-1.4256929159164429,1023.31665,
2021.02.09 08:22:39,30.0,24.0,29.76,2.1,-35.1,-0.17238252,0.51714754,9.744401,-0.0067195175,0.002443461,-0.013439035,-0.05301322788000107,0.0176885724067688,-1.4348758459091187,1023.31665,
2021.02.09 08:22:39,30.0,24.0,29.82,2.1599998,-34.86,-0.15083471,0.521936,9.713276,0.023823744,0.005497787,-0.009162978,-0.05367620661854744,0.015527468174695969,-1.43326735496521,1023.3098,
2021.02.09 08:22:39,30.0,24.0,29.88,2.52,-35.04,-0.14604631,0.5267244,9.662998,0.010995574,0.0030543262,-0.007330383,-0.05444932356476784,0.015112824738025665,-1.4203895330429077,1023.3098,
2021.02.09 08:22:39,30.0,24.0,29.58,2.52,-35.28,-0.1388637,0.5291186,9.631873,-0.005497787,-0.01038471,-0.01038471,-0.054873280227184296,0.0144161032512784,-1.418069839477539,1023.3098,
2021.02.09 08:22:39,30.0,24.0,29.939999,2.46,-35.28,-0.16759412,0.51954174,9.624691,-0.008552114,0.0067195175,-0.0061086523,-0.05391959846019745,0.01741117611527443,-1.4223264455795288,1023.3098,
2021.02.09 08:22:39,30.0,24.0,30.42,2.76,-35.7,-0.23463176,0.521936,9.524135,-0.05681047,0.002443461,-0.01160644,-0.05473007634282112,0.024630511179566383,-1.4113454818725586,1023.3086,
2021.02.09 08:22:39,30.0,24.0,30.179998,2.3999999,-35.76,-0.24899697,0.49799395,9.818622,-0.048258353,-0.0012217305,-0.004886922,-0.050659649074077606,0.025354232639074326,-1.4267109632492065,1023.3086,
2021.02.09 08:22:39,30.0,24.0,30.48,2.6399999,-35.82,-0.21068975,0.50996494,9.6845455,-0.022602014,0.0,0.002443461,-0.05259658768773079,0.021751822903752327,-1.4186196327209473,1023.3086,
2021.02.09 08:22:39,30.0,24.0,30.66,3.0,-35.94,-0.110133275,0.47884035,9.7324295,-0.016493361,-0.018936822,0.010995574,-0.04915770888328552,0.011315629817545414,-1.4141042232513428,1023.3086,
2021.02.09 08:22:39,30.0,24.0,30.96,2.82,-35.64,-0.10055647,0.5315128,9.648633,-0.029932396,0.0018325958,-0.004886922,-0.05502824857831001,0.010421458631753922,-1.415340542793274,1023.3076,
2021.02.09 08:22:40,30.0,24.0,31.019999,3.54,-35.82,-0.24181437,0.47884035,9.677363,-0.04886922,-6.1086525E-4,-0.007941248,-0.049424730241298676,0.024982430040836334,-1.3952041864395142,1023.3076,
2021.02.09 08:22:40,30.0,24.0,31.019999,3.84,-35.82,-0.19153613,0.48123455,9.825804,-0.02076942,0.0030543262,-0.0067195175,-0.04892822355031967,0.019490709528326988,-1.3876065015792847,1023.3076,
2021.02.09 08:22:40,30.0,24.0,30.9,3.54,-35.82,-0.17238252,0.45729253,9.919178,0.020158553,-0.013439035,0.009773844,-0.04606229066848755,0.017376961186528206,-1.4003621339797974,1023.3076,
2021.02.09 08:22:40,30.0,24.0,30.179998,3.1799998,-35.399998,-0.18914193,0.49559975,9.502586,0.040317107,0.009773844,0.002443461,-0.052096687257289886,0.01990162953734398,-1.4010820388793945,1023.3076,
2021.02.09 08:22:40,30.0,24.0,30.0,3.0,-35.28,-0.23702596,0.4165911,9.742006,0.02687807,-0.009773844,0.01038471,-0.04272368922829628,0.024325503036379814,-1.4163764715194702,1023.3076,
2021.02.09 08:22:40,30.0,24.0,30.179998,2.9399998,-35.16,-0.07182605,0.5363012,9.639056,0.030543262,-0.0061086523,0.008552114,-0.05557950586080551,0.007451426237821579,-1.4084174633026123,1023.3076,
2021.02.09 08:22:40,30.0,24.0,30.0,3.36,-35.46,-0.15083471,0.51954174,9.773131,0.029932396,0.004886922,-0.013439035,-0.05310390517115593,0.015432385727763176,-1.3939886093139648,1023.3076,
2021.02.09 08:22:40,30.0,24.0,30.179998,3.6599998,-35.94,-0.21308395,0.51714754,9.610326,0.039095376,0.014049901,-0.019547688,-0.05374662205576897,0.02216876484453678,-1.381737470626831,1023.3076,
2021.02.09 08:22:40,30.0,24.0,30.179998,3.12,-35.82,-0.11971009,0.51954174,9.64145,0.037873644,-0.004276057,-0.01160644,-0.05383006110787392,0.012415553443133831,-1.4021397829055786,1023.3076,
2021.02.09 08:22:40,30.0,24.0,29.76,3.24,-35.88,-0.19393034,0.50517654,9.629479,0.017715093,-0.0067195175,-0.015271631,-0.0524028018116951,0.0201365128159523,-1.395365834236145,1023.3076,
2021.02.09 08:22:40,30.0,24.0,30.06,3.06,-35.82,-0.059855044,0.5650316,9.648633,0.0061086523,0.004886922,-0.004886922,-0.05849286913871765,0.00620339484885335,-1.399563193321228,1023.3076,
2021.02.09 08:22:40,30.0,24.0,29.939999,3.06,-35.76,-0.32321724,0.45010993,9.5385,-0.014660766,0.017104227,-0.014660766,-0.04712676629424095,0.0338725820183754,-1.4055548906326294,1023.31396,
2021.02.09 08:22:40,30.0,24.0,30.24,3.12,-35.7,-0.2705448,0.5243302,9.655815,-0.04153884,0.0018325958,0.017715093,-0.054227493703365326,0.028011517599225044,-1.3981951475143433,1023.31396,
2021.02.09 08:22:40,30.0,24.0,30.42,2.76,-35.76,-0.16519992,0.5267244,9.85214,0.015882496,-0.0036651916,0.01038471,-0.05340459570288658,0.016766348853707314,-1.4147167205810547,1023.31396,
2021.02.09 08:22:40,30.0,24.0,29.699999,2.7,-35.579998,-0.1316811,0.5410896,9.667787,0.017715093,-0.015882496,0.007941248,-0.05590479448437691,0.013619762845337391,-1.4110655784606934,1023.31396,
2021.02.09 08:22:40,30.0,24.0,30.0,2.52,-35.46,-0.019153614,0.50996494,9.660604,0.0067195175,-0.0012217305,-0.009773844,-0.05273904651403427,0.001982649089768529,-1.4251939058303833,1023.3142,
2021.02.09 08:22:40,30.0,24.0,29.82,2.52,-35.7,-0.19632454,0.49559975,9.627085,0.005497787,-0.005497787,-0.028099801,-0.051423653960227966,0.020390110090374947,-1.4212452173233032,1023.3142,
2021.02.09 08:22:40,30.0,24.0,29.34,2.46,-35.64,-0.19153613,0.545878,9.775525,0.01038471,-0.0030543262,-0.023823744,-0.05577267333865166,0.01959093101322651,-1.4157949686050415,1023.3142,
2021.02.09 08:22:40,30.0,24.0,29.58,2.7,-36.0,-0.23223756,0.50278234,9.739613,0.043982297,-0.008552114,-0.012217305,-0.051562003791332245,0.023840123787522316,-1.4123622179031372,1023.3142,
2021.02.09 08:22:40,30.0,24.0,28.8,2.76,-36.36,-0.11731588,0.521936,9.409213,0.030543262,0.013439035,-0.0036651916,-0.05540965124964714,0.01246754638850689,-1.4034144878387451,1023.31226,
2021.02.09 08:22:40,30.0,24.0,29.039999,2.58,-36.54,-0.24181437,0.48362875,9.610326,-0.042760566,-0.004886922,-0.0030543262,-0.050265565514564514,0.025156626477837563,-1.4138437509536743,1023.31226,
2021.02.09 08:22:40,30.0,24.0,29.22,2.7,-36.84,-0.20350714,0.5243302,9.80665,-0.008552114,0.014049901,0.0067195175,-0.05340446159243584,0.02074897289276123,-1.4072551727294922,1023.31226,
2021.02.09 08:22:40,30.0,24.0,29.34,2.52,-36.48,-0.21787235,0.49081135,9.600749,6.1086525E-4,0.0012217305,0.014660766,-0.05106460675597191,0.022689372301101685,-1.4172258377075195,1023.31226,
2021.02.09 08:22:40,30.0,24.0,29.88,2.7,-35.94,-0.20829555,0.49799395,9.591172,-0.017104227,-0.0012217305,0.021991149,-0.051863327622413635,0.02171401120722294,-1.4142237901687622,1023.31445,
2021.02.09 08:22:40,30.0,24.0,30.06,2.6399999,-35.64,-0.15562311,0.48123455,9.794679,-0.012217305,-0.004886922,0.008552114,-0.04908658191561699,0.015887200832366943,-1.422394871711731,1023.31445,
2021.02.09 08:22:41,30.0,24.0,30.24,2.58,-35.1,-0.1316811,0.49320555,9.703699,0.021991149,0.0,0.012217305,-0.050778184086084366,0.0135693633928895,-1.4247092008590698,1023.31445,
2021.02.09 08:22:41,30.0,24.0,30.539999,2.34,-35.1,-0.074220255,0.47644615,9.574412,0.017104227,-0.005497787,0.0036651916,-0.04971993342041969,0.0077517833560705185,-1.4363731145858765,1023.31445,
2021.02.09 08:22:41,30.0,24.0,30.539999,1.92,-35.1,-0.14604631,0.47405192,9.497798,-0.0067195175,-0.0030543262,0.0030543262,-0.049864500761032104,0.015375647693872452,-1.4483870267868042,1023.3142,
2021.02.09 08:22:41,30.0,24.0,29.82,2.1,-35.1,-0.17477672,0.5291186,9.619903,-0.029321533,0.0036651916,-0.005497787,-0.05493807792663574,0.01816624402999878,-1.4327503442764282,1023.3142,
2021.02.09 08:22:41,30.0,24.0,30.0,1.92,-34.92,-0.23463176,0.50517654,9.900024,-0.035430185,-0.008552114,0.0012217305,-0.05096929520368576,0.023695683106780052,-1.4435129165649414,1023.3142,
2021.02.09 08:22:41,30.0,24.0,29.76,1.74,-35.28,-0.15322891,0.49320555,9.61272,0.0421497,-6.1086525E-4,0.016493361,-0.051256150007247925,0.015938876196742058,-1.4491379261016846,1023.3142,
2021.02.09 08:22:41,30.0,24.0,30.0,1.92,-35.34,-0.088585466,0.5267244,9.533711,0.0067195175,-0.018325957,0.014660766,-0.05519012734293938,0.009291545487940311,-1.440704345703125,1023.3096,
2021.02.09 08:22:41,30.0,24.0,30.72,1.8,-35.34,-0.11492168,0.58418524,9.710882,-0.013439035,6.1086525E-4,0.002443461,-0.06008118391036987,0.011833766475319862,-1.4414736032485962,1023.3096,
2021.02.09 08:22:41,30.0,24.0,30.9,1.92,-35.399998,-0.17717093,0.5410896,9.710882,-0.0030543262,-0.0061086523,0.0030543262,-0.05565312132239342,0.018242552876472473,-1.442016363143921,1023.3096,
2021.02.09 08:22:41,30.0,24.0,30.9,1.8,-34.62,-0.15322891,0.533907,9.737218,0.004886922,-0.007330383,0.007330383,-0.054769955575466156,0.015735115855932236,-1.4488770961761475,1023.3096,
2021.02.09 08:22:41,30.0,24.0,30.72,1.68,-34.739998,-0.14604631,0.5602432,9.667787,0.02443461,-0.007941248,0.004886922,-0.057878151535987854,0.01510533969849348,-1.4484182596206665,1023.3196,
2021.02.09 08:22:41,30.0,24.0,30.359999,1.62,-34.44,-0.11492168,0.60573304,9.500193,0.009773844,0.002443461,0.005497787,-0.06366923451423645,0.012096184305846691,-1.4435300827026367,1023.3196,
2021.02.09 08:22:41,30.0,24.0,30.0,1.8,-34.68,-0.16998832,0.5243302,9.895236,-0.021380283,-0.01160644,-0.0018325958,-0.05293084308505058,0.017177114263176918,-1.4469683170318604,1023.3196,
2021.02.09 08:22:41,30.0,24.0,30.179998,1.9799999,-35.04,-0.16759412,0.5650316,9.677363,0.02687807,-0.0061086523,0.0067195175,-0.05831199511885643,0.01731642708182335,-1.4347115755081177,1023.3196,
2021.02.09 08:22:41,30.0,24.0,30.179998,1.92,-35.28,-0.11492168,0.5650316,9.514558,0.005497787,-0.0018325958,0.01160644,-0.05931202694773674,0.012077922001481056,-1.4361817836761475,1023.31885,
2021.02.09 08:22:41,30.0,24.0,30.359999,2.22,-35.82,-0.16519992,0.5410896,9.737218,-0.009773844,-0.009773844,0.0067195175,-0.05550415813922882,0.016964195296168327,-1.4294828176498413,1023.31885,
2021.02.09 08:22:41,30.0,24.0,30.42,2.28,-36.42,-0.1340753,0.581791,9.813833,0.012217305,-0.0061086523,0.01038471,-0.05920792743563652,0.013661018572747707,-1.422967553138733,1023.31885,
2021.02.09 08:22:41,30.0,24.0,30.06,2.34,-36.48,-0.088585466,0.59615624,9.591172,0.010995574,-0.005497787,0.0012217305,-0.06207426264882088,0.009235884062945843,-1.4167323112487793,1023.31885,
2021.02.09 08:22:41,30.0,24.0,30.06,2.34,-36.42,-0.17956513,0.5363012,9.818622,0.02321288,-0.004276057,0.01038471,-0.05455749109387398,0.01828618347644806,-1.4237769842147827,1023.31885,
2021.02.09 08:22:41,30.0,24.0,29.64,2.3999999,-36.12,-0.107739076,0.557849,9.442732,0.01282817,0.004276057,0.010995574,-0.059004660695791245,0.011409241706132889,-1.4164984226226807,1023.31885,
2021.02.09 08:22:41,30.0,24.0,29.58,2.28,-36.059998,-0.11492168,0.5674258,9.694122,-0.023823744,0.0036651916,-0.0030543262,-0.05846216529607773,0.011854223906993866,-1.4208725690841675,1023.31885,
2021.02.09 08:22:41,30.0,24.0,29.76,2.46,-36.239998,-0.17238252,0.5746084,9.734824,-0.0036651916,0.007941248,0.009162978,-0.058948442339897156,0.017705971375107765,-1.4133704900741577,1023.31885,
2021.02.09 08:22:41,30.0,24.0,29.699999,2.7,-36.0,-0.16280572,0.5793968,9.725247,-0.007330383,0.0,0.0018325958,-0.059497904032468796,0.016738958656787872,-1.4051036834716797,1023.3257,
2021.02.09 08:22:41,30.0,24.0,30.06,2.6399999,-36.42,-0.16998832,0.5267244,9.677363,0.021991149,0.0036651916,0.007941248,-0.05436647683382034,0.017563756555318832,-1.414229393005371,1023.3257,
2021.02.09 08:22:41,30.0,24.0,30.359999,2.6399999,-36.059998,-0.05746084,0.62728083,9.509769,-0.02443461,0.008552114,0.0012217305,-0.06586511433124542,0.0060422224923968315,-1.4057738780975342,1023.3257,
2021.02.09 08:22:42,30.0,24.0,30.66,2.52,-35.88,-0.18195933,0.5386954,9.782708,-0.037873644,0.014049901,-0.01038471,-0.05500103160738945,0.018597953021526337,-1.421204686164856,1023.3257,
2021.02.09 08:22:42,30.0,24.0,30.539999,2.46,-36.0,-0.15562311,0.5530606,9.880871,0.009162978,0.002443461,0.004276057,-0.05590759590268135,0.015748636797070503,-1.4219385385513306,1023.32544,
2021.02.09 08:22:42,30.0,24.0,30.599998,2.1599998,-35.34,-0.076614454,0.58657944,9.526528,0.02565634,0.005497787,0.004886922,-0.0614936426281929,0.008042048662900925,-1.4285081624984741,1023.32544,
2021.02.09 08:22:42,30.0,24.0,30.24,1.68,-34.86,-0.20111294,0.5602432,9.552865,-0.030543262,0.010995574,-0.009162978,-0.05856657028198242,0.02104952186346054,-1.4442076683044434,1023.32544,
2021.02.09 08:22:42,30.0,24.0,30.179998,1.74,-34.739998,-0.14844051,0.5315128,9.991004,-0.023823744,-0.0067195175,-0.005497787,-0.053143180906772614,0.014856323599815369,-1.449798583984375,1023.32544,
2021.02.09 08:22:42,30.0,24.0,30.06,1.56,-34.44,-0.055066638,0.62488663,9.598354,0.023823744,0.009773844,0.0018325958,-0.06501070410013199,0.0057370285503566265,-1.4440507888793945,1023.3218,
2021.02.09 08:22:42,30.0,24.0,30.179998,1.62,-34.86,-0.12210429,0.5530606,9.619903,-0.007941248,0.005497787,-0.012217305,-0.05742345750331879,0.01269220095127821,-1.4489936828613281,1023.3218,
2021.02.09 08:22:42,30.0,24.0,30.66,1.9799999,-35.34,-0.20590134,0.5315128,9.849746,-0.017104227,-0.0012217305,-0.015271631,-0.05389804393053055,0.020901184529066086,-1.4406617879867554,1023.3218,
2021.02.09 08:22:42,30.0,24.0,30.779999,1.92,-35.46,-0.12689269,0.61052144,9.679757,0.028099801,0.004276057,-0.0036651916,-0.06298314779996872,0.013108327053487301,-1.4339807033538818,1023.3218,
2021.02.09 08:22:42,30.0,24.0,30.96,2.28,-35.94,-0.1364695,0.5722142,9.737218,0.021380283,-0.005497787,-0.010995574,-0.058692414313554764,0.01401432789862156,-1.426999807357788,1023.3069,
2021.02.09 08:22:42,30.0,24.0,30.779999,2.28,-35.88,-0.06703765,0.56982,9.593566,0.020158553,0.0012217305,-0.0030543262,-0.05932490900158882,0.006987657863646746,-1.4271405935287476,1023.3069,
2021.02.09 08:22:42,30.0,24.0,30.48,2.34,-35.88,-0.15801731,0.59615624,9.737218,-0.009162978,0.008552114,-0.02443461,-0.06114013493061066,0.01622675359249115,-1.4194918870925903,1023.3069,
2021.02.09 08:22:42,30.0,24.0,30.119999,2.3999999,-36.42,-0.24420857,0.5626374,9.794679,-0.004276057,0.010995574,-0.02321288,-0.05736232548952103,0.024927616119384766,-1.4170204401016235,1023.3069,
2021.02.09 08:22:42,30.0,24.0,30.179998,2.28,-36.239998,-0.12449849,0.59855044,9.579201,0.014660766,0.013439035,-0.008552114,-0.062397994101047516,0.01299601886421442,-1.4184943437576294,1023.3091,
2021.02.09 08:22:42,30.0,24.0,30.179998,1.92,-36.059998,-0.16280572,0.5722142,9.653421,-0.015271631,0.013439035,-0.013439035,-0.05919811502099037,0.01686348021030426,-1.4336775541305542,1023.3091,
2021.02.09 08:22:42,30.0,24.0,30.42,1.9799999,-35.88,-0.19871874,0.59136784,9.866506,0.0067195175,0.0012217305,-0.014049901,-0.05985318124294281,0.02013801969587803,-1.4316301345825195,1023.3091,
2021.02.09 08:22:42,30.0,24.0,30.3,1.9799999,-35.46,-0.15562311,0.60094464,9.655815,0.03359759,0.010995574,0.002443461,-0.062148332595825195,0.016115639358758926,-1.4301456212997437,1023.3091,
2021.02.09 08:22:42,30.0,24.0,30.599998,1.8,-34.92,-0.14604631,0.5722142,9.512163,-0.03359759,0.012217305,-0.01160644,-0.06007658317685127,0.015352432616055012,-1.4410802125930786,1023.3142,
2021.02.09 08:22:42,30.0,24.0,30.72,2.1,-34.92,-0.260968,0.5602432,9.876082,-0.01282817,0.005497787,0.002443461,-0.05664680898189545,0.026418093591928482,-1.4333875179290771,1023.3142,
2021.02.09 08:22:42,30.0,24.0,30.84,1.8,-34.62,-0.12689269,0.62728083,9.77792,0.025045475,-0.0012217305,0.002443461,-0.06405961513519287,0.012976744212210178,-1.4386905431747437,1023.3142,
2021.02.09 08:22:42,30.0,24.0,31.199999,1.62,-34.14,-0.19153613,0.5674258,9.579201,0.017715093,0.012217305,6.1086525E-4,-0.05915426090359688,0.019992336630821228,-1.451023817062378,1023.3142,
2021.02.09 08:22:42,30.0,24.0,30.96,1.56,-34.92,-0.16998832,0.5650316,9.651027,-0.022602014,-0.007941248,0.0018325958,-0.0584704652428627,0.017611674964427948,-1.4517353773117065,1023.31055,
2021.02.09 08:22:42,30.0,24.0,31.199999,1.5,-34.8,-0.14604631,0.61530983,9.856929,0.012217305,0.0,0.01038471,-0.062336377799510956,0.014815529808402061,-1.4509875774383545,1023.31055,
2021.02.09 08:22:42,30.0,24.0,31.26,1.38,-35.1,-0.08140286,0.60573304,9.603143,0.018325957,0.004886922,0.004276057,-0.06299082934856415,0.008476486429572105,-1.4549344778060913,1023.31055,
2021.02.09 08:22:42,30.0,24.0,31.08,1.86,-35.28,-0.20111294,0.5506664,9.615114,-0.01038471,0.0012217305,-0.0012217305,-0.057195939123630524,0.02091328427195549,-1.4425965547561646,1023.31055,
2021.02.09 08:22:43,30.0,24.0,30.96,1.86,-34.8,-0.17956513,0.5770026,9.672575,-0.016493361,0.008552114,-0.0030543262,-0.05957261845469475,0.01856222376227379,-1.4407970905303955,1023.3091,
2021.02.09 08:22:43,30.0,24.0,30.599998,1.9799999,-35.219997,-0.22266077,0.58657944,9.773131,-0.016493361,-0.0030543262,-0.0012217305,-0.0599321685731411,0.022779008373618126,-1.433129072189331,1023.3091,
2021.02.09 08:22:43,30.0,24.0,30.24,2.3999999,-35.7,-0.10055647,0.60573304,9.651027,-6.1086525E-4,0.004886922,0.0061086523,-0.06267797201871872,0.010418874211609364,-1.416309118270874,1023.3091,
2021.02.09 08:22:43,30.0,24.0,30.119999,2.1599998,-35.7,-0.1604115,0.59376204,9.749189,-0.021380283,0.0012217305,-0.002443461,-0.06082038953900337,0.016452345997095108,-1.4243419170379639,1023.3091,
2021.02.09 08:22:43,30.0,24.0,30.3,2.1599998,-35.88,-0.1604115,0.56982,9.730036,-0.0061086523,-0.0012217305,0.0,-0.05848824605345726,0.01648472622036934,-1.427609920501709,1023.3059,
2021.02.09 08:22:43,30.0,24.0,30.539999,2.22,-35.76,-0.19153613,0.56982,9.591172,0.0012217305,0.013439035,-0.0036651916,-0.0593293271958828,0.019967390224337578,-1.4252135753631592,1023.3059,
2021.02.09 08:22:43,30.0,24.0,30.66,1.9799999,-35.28,-0.21308395,0.5746084,9.742006,-0.028099801,-0.0012217305,-6.1086525E-4,-0.05890023708343506,0.02186921052634716,-1.4346894025802612,1023.3059,
2021.02.09 08:22:43,30.0,24.0,30.66,1.86,-35.52,-0.17477672,0.5722142,9.665392,-0.013439035,0.008552114,0.002443461,-0.05912370979785919,0.018080763518810272,-1.4386930465698242,1023.3059,
2021.02.09 08:22:43,30.0,24.0,30.539999,1.68,-35.52,-0.18435353,0.5626374,9.825804,-0.009162978,-0.0018325958,0.0,-0.05718870460987091,0.01875998079776764,-1.4462324380874634,1023.3064,
2021.02.09 08:22:43,30.0,24.0,30.359999,1.8,-35.52,-0.1436521,0.59615624,9.698911,0.004886922,0.0061086523,0.0,-0.06138235703110695,0.014810075052082539,-1.437406063079834,1023.3064,
2021.02.09 08:22:43,30.0,24.0,30.24,2.04,-35.64,-0.21308395,0.5554548,9.665392,-0.0012217305,0.010995574,-0.0061086523,-0.05739136040210724,0.02204250544309616,-1.431830883026123,1023.3064,
2021.02.09 08:22:43,30.0,24.0,30.539999,2.28,-35.46,-0.22505496,0.533907,9.82341,-0.005497787,0.0018325958,-0.0012217305,-0.05428283289074898,0.02290605753660202,-1.4291523694992065,1023.3064,
2021.02.09 08:22:43,30.0,24.0,30.779999,2.3999999,-35.46,-0.16280572,0.5554548,9.691729,0.025045475,0.0036651916,0.004886922,-0.057241566479206085,0.016796840354800224,-1.4242719411849976,1023.3042,
2021.02.09 08:22:43,30.0,24.0,30.72,2.3999999,-35.52,-0.19871874,0.521936,9.634268,0.012217305,0.007941248,-0.0036651916,-0.054110560566186905,0.02062331698834896,-1.4266637563705444,1023.3042,
2021.02.09 08:22:43,30.0,24.0,30.66,2.22,-35.579998,-0.24181437,0.50278234,9.701305,0.0061086523,0.005497787,0.007941248,-0.05176388472318649,0.02492080256342888,-1.4340084791183472,1023.3042,
2021.02.09 08:22:43,30.0,24.0,30.599998,2.22,-35.579998,-0.16998832,0.59855044,9.77792,-0.0061086523,-0.0061086523,-0.0061086523,-0.061128996312618256,0.017383165657520294,-1.4243509769439697,1023.3042,
2021.02.09 08:22:43,30.0,24.0,30.48,2.1,-35.46,-0.17717093,0.5267244,9.782708,0.035430185,0.008552114,0.0036651916,-0.053781650960445404,0.01810864359140396,-1.43644118309021,1023.2964,
2021.02.09 08:22:43,30.0,24.0,30.539999,1.56,-35.219997,-0.12689269,0.533907,9.543288,0.015271631,-0.0030543262,6.1086525E-4,-0.05588262528181076,0.013295752927660942,-1.4533694982528687,1023.2964,
2021.02.09 08:22:43,30.0,24.0,30.84,1.68,-35.399998,-0.21547815,0.51714754,9.65821,-0.019547688,0.0018325958,0.0018325958,-0.053480494767427444,0.022306660190224648,-1.4513320922851562,1023.2964,
2021.02.09 08:22:43,30.0,24.0,30.42,1.9799999,-35.579998,-0.18674773,0.62009823,9.916783,-0.004276057,-6.1086525E-4,-0.005497787,-0.06243783235549927,0.018829256296157837,-1.4294812679290771,1023.2964,
2021.02.09 08:22:43,30.0,24.0,30.359999,2.28,-35.7,-0.2657564,0.5410896,9.651027,0.03481932,-0.0036651916,0.008552114,-0.05598568543791771,0.027529636397957802,-1.4247314929962158,1023.3025,
2021.02.09 08:22:43,30.0,24.0,30.119999,2.46,-35.94,-0.1340753,0.5626374,9.495404,-0.014660766,6.1086525E-4,0.009773844,-0.05917857214808464,0.014119082130491734,-1.416466474533081,1023.3025,
2021.02.09 08:22:43,30.0,24.0,29.58,2.28,-35.46,-0.20350714,0.5506664,9.828198,-0.043982297,-0.0061086523,-0.0030543262,-0.055958740413188934,0.020703494548797607,-1.4230059385299683,1023.3025,
2021.02.09 08:22:43,30.0,24.0,29.58,2.1,-35.1,-0.22266077,0.59855044,9.842564,0.0036651916,0.0012217305,0.005497787,-0.06072215363383293,0.022618375718593597,-1.4236253499984741,1023.3025,
2021.02.09 08:22:43,30.0,24.0,29.519999,2.22,-34.8,-0.17956513,0.5722142,9.536105,6.1086525E-4,0.008552114,0.005497787,-0.05992256477475166,0.018827803432941437,-1.4217692613601685,1023.3042,
2021.02.09 08:22:44,30.0,24.0,29.699999,2.52,-34.86,-0.21787235,0.521936,9.720459,-0.016493361,-0.007330383,0.009162978,-0.05362962558865547,0.022410040721297264,-1.419082760810852,1023.3042,
2021.02.09 08:22:44,30.0,24.0,29.88,2.46,-34.92,-0.15562311,0.60812724,9.651027,-0.022602014,-0.0012217305,0.0067195175,-0.06292030960321426,0.016123633831739426,-1.4124480485916138,1023.3042,
2021.02.09 08:22:44,30.0,24.0,30.3,1.9799999,-35.399998,-0.19632454,0.5674258,9.892841,-0.0067195175,-0.017104227,0.007330383,-0.0572831854224205,0.01984250918030739,-1.4351935386657715,1023.3042,
2021.02.09 08:22:44,30.0,24.0,30.06,1.8,-35.399998,-0.12210429,0.59376204,9.509769,0.009773844,-0.002443461,0.0067195175,-0.06235099211335182,0.012839172966778278,-1.435620665550232,1023.3113,
2021.02.09 08:22:44,30.0,24.0,29.939999,1.56,-35.34,-0.21547815,0.5267244,9.55047,-0.04642576,-0.0036651916,0.0018325958,-0.055081866681575775,0.022558217868208885,-1.449889063835144,1023.3113,
2021.02.09 08:22:44,30.0,24.0,30.06,2.04,-35.76,-0.22744916,0.5674258,9.76116,-0.092240654,-0.021991149,0.0067195175,-0.05804990977048874,0.023297233507037163,-1.4296636581420898,1023.3113,
2021.02.09 08:22:44,30.0,24.0,29.82,2.28,-35.82,-0.17717093,0.50278234,9.876082,-0.028710667,-0.018325957,0.015271631,-0.05085700750350952,0.017937470227479935,-1.430332899093628,1023.3113,
2021.02.09 08:22:44,30.0,24.0,30.0,2.28,-36.0,-0.16519992,0.5434838,9.574412,-0.013439035,6.1086525E-4,0.015882496,-0.05669492855668068,0.0172526016831398,-1.4239341020584106,1023.3098,
2021.02.09 08:22:44,30.0,24.0,29.939999,2.1599998,-36.18,-0.16519992,0.49320555,9.737218,-0.039095376,0.0012217305,0.010995574,-0.050601065158843994,0.016964195296168327,-1.4347939491271973,1023.3098,
2021.02.09 08:22:44,30.0,24.0,30.359999,1.74,-35.64,-0.17956513,0.5267244,9.902418,-0.01038471,-0.01282817,0.017715093,-0.05313269793987274,0.018131475895643234,-1.4482439756393433,1023.3098,
2021.02.09 08:22:44,30.0,24.0,30.599998,1.8,-35.46,-0.11971009,0.557849,9.481039,0.021991149,0.012217305,0.02076942,-0.058765947818756104,0.012625590898096561,-1.4420896768569946,1023.3098,
2021.02.09 08:22:44,30.0,24.0,30.66,1.26,-35.28,-0.20829555,0.46208093,9.706094,-0.02687807,0.0012217305,0.0067195175,-0.047560449689626694,0.021456994116306305,-1.47188401222229,1023.2991,
2021.02.09 08:22:44,30.0,24.0,30.9,1.4399999,-35.16,-0.17477672,0.5315128,9.8042555,-0.015882496,0.007330383,0.018936822,-0.05415085703134537,0.017824729904532433,-1.4599024057388306,1023.2991,
2021.02.09 08:22:44,30.0,24.0,30.539999,1.38,-35.64,-0.18195933,0.50278234,9.593566,0.01160644,0.0061086523,0.014049901,-0.05235098674893379,0.018964534625411034,-1.4616152048110962,1023.2991,
2021.02.09 08:22:44,30.0,24.0,30.119999,1.0799999,-35.46,-0.088585466,0.521936,9.660604,-0.002443461,6.1086525E-4,0.021991149,-0.0539725236594677,0.009169507771730423,-1.4702363014221191,1023.2991,
2021.02.09 08:22:44,30.0,24.0,30.24,1.74,-35.579998,-0.110133275,0.48841715,9.61272,-0.02076942,0.007941248,0.014049901,-0.05076248198747635,0.011456535197794437,-1.4519978761672974,1023.3108,
2021.02.09 08:22:44,30.0,24.0,30.119999,1.62,-35.16,-0.1412579,0.49799395,9.7084875,-0.021991149,0.010995574,0.014049901,-0.05124436691403389,0.014548911713063717,-1.4550832509994507,1023.3108,
2021.02.09 08:22:44,30.0,24.0,30.06,1.56,-34.62,-0.16998832,0.47884035,9.773131,-0.0012217305,0.01038471,0.014660766,-0.04894905164837837,0.017391681671142578,-1.4599783420562744,1023.3108,
2021.02.09 08:22:44,30.0,24.0,30.48,2.04,-34.559998,-0.40222588,0.40940848,8.832211,-0.1001819,-0.031154128,0.032986723,-0.046272970736026764,0.045509349554777145,-1.4433940649032593,1023.3108,
2021.02.09 08:22:44,30.0,24.0,30.3,2.1599998,-34.559998,0.1316811,0.50038815,10.747571,6.1086525E-4,0.044593163,0.010995574,-0.04652116820216179,-0.01225156057626009,-1.4494125843048096,1023.30664,
