Time,X-cord,Y-cord,Mag_x,Mag_y,Mag_z,Acc_x,Acc_y,Acc_z,Gyro_x,Gyro_y,Gyro_z,Orn_x,Orn_y,Orn_z,Pressure,
2021.02.09 08:31:41,70.0,24.0,31.199999,-3.8999999,-40.5,-0.62009823,0.20590134,9.753978,0.087964594,0.20219639,-0.20647246,-0.021063826978206635,0.0634884461760521,-1.6756395101547241,1023.3574,
2021.02.09 08:31:41,70.0,24.0,31.32,-3.84,-40.32,-0.045489833,0.5410896,8.829816,0.2284636,0.04337143,0.01160644,-0.06120249256491661,0.005151798017323017,-1.6143800020217896,1023.3574,
2021.02.09 08:31:42,70.0,24.0,31.56,-4.3199997,-40.079998,-0.1412579,0.533907,9.277532,0.20647246,-0.048258353,0.10629055,-0.05747833847999573,0.015224629081785679,-1.634790062904358,1023.3574,
2021.02.09 08:31:42,70.0,24.0,31.679998,-4.38,-40.26,-0.4237737,0.30885202,10.110714,-0.0421497,-0.08124508,0.032375857,-0.030510736629366875,0.04188881069421768,-1.6742225885391235,1023.3496,
2021.02.09 08:31:42,70.0,24.0,31.859999,-3.8999999,-39.899998,-0.23942018,0.37588966,9.962274,-0.13194689,-0.108123146,0.02687807,-0.03770254924893379,0.02402806095778942,-1.6471985578536987,1023.3496,
2021.02.09 08:31:42,70.0,24.0,31.92,-3.6,-40.44,0.05267244,0.4237737,9.469068,0.0018325958,-0.1459968,0.07696902,-0.044722944498062134,-0.005562521982938051,-1.6266226768493652,1023.3496,
2021.02.09 08:31:42,70.0,24.0,31.439999,-3.06,-40.379997,-0.08379706,0.37349546,9.382876,0.06536258,-0.11178834,0.061086524,-0.03978348523378372,0.008930612355470657,-1.6171122789382935,1023.3496,
2021.02.09 08:31:42,70.0,24.0,31.019999,-2.82,-40.739998,0.02633622,0.4405331,9.49301,-0.0018325958,-0.11911872,0.014049901,-0.046372607350349426,-0.002774267690256238,-1.6007370948791504,1023.3508,
2021.02.09 08:31:42,70.0,24.0,30.359999,-3.12,-41.34,0.39983168,0.521936,9.775525,-0.1337795,-0.1459968,0.053145275,-0.05329699441790581,-0.04087851569056511,-1.6014277935028076,1023.3508,
2021.02.09 08:31:42,70.0,24.0,29.699999,-3.1799998,-41.28,0.04070143,0.34237084,10.283096,-0.12095132,-0.064751714,0.012217305,-0.033281974494457245,-0.003958070185035467,-1.631283164024353,1023.3508,
2021.02.09 08:31:42,70.0,24.0,29.46,-3.1799998,-41.52,-0.023942016,0.25378537,9.411607,-0.051923547,-0.056199603,-0.017715093,-0.02695852890610695,0.00254387641325593,-1.6407787799835205,1023.3508,
2021.02.09 08:31:42,70.0,24.0,29.58,-3.4199998,-41.34,0.1412579,0.32321724,9.3182335,0.07513642,0.048258353,0.02443461,-0.03466865420341492,-0.015158139169216156,-1.6369421482086182,1023.353,
2021.02.09 08:31:42,70.0,24.0,29.279999,-3.36,-41.04,0.12449849,0.32800564,9.861717,-0.045814894,0.047647487,0.05375614,-0.03324560075998306,-0.012623751536011696,-1.6380330324172974,1023.353,
2021.02.09 08:31:42,70.0,24.0,29.58,-3.6,-40.92,0.079008654,0.36391866,9.727641,-0.076358154,0.06658431,0.05375614,-0.037392113357782364,-0.008121899329125881,-1.6401164531707764,1023.353,
2021.02.09 08:31:42,70.0,24.0,30.179998,-3.78,-41.1,0.019153614,0.4213795,10.010158,-0.057421334,0.065973446,0.022602014,-0.04207027703523636,-0.0019134156173095107,-1.6384590864181519,1023.353,
2021.02.09 08:31:42,70.0,24.0,30.3,-3.84,-40.68,-0.1316811,0.33039984,9.569624,-0.007330383,0.11484267,0.017104227,-0.03450892120599747,0.013759452849626541,-1.6519936323165894,1023.3596,
2021.02.09 08:31:42,70.0,24.0,31.08,-3.84,-40.68,-0.17717093,0.29927522,9.607931,-0.013439035,0.1160644,0.037873644,-0.031133411452174187,0.018437981605529785,-1.6548268795013428,1023.3596,
2021.02.09 08:31:42,70.0,24.0,30.96,-3.6,-40.92,-0.1316811,0.18914193,10.235212,-0.027488936,0.12217305,0.03848451,-0.01847589761018753,0.012864788062870502,-1.66372549533844,1023.3596,
2021.02.09 08:31:42,70.0,24.0,30.84,-3.72,-40.559998,0.031124622,0.2633622,10.546458,-0.013439035,0.03726278,0.042760566,-0.024966325610876083,-0.0029511833563447,-1.6580621004104614,1023.3596,
2021.02.09 08:31:42,70.0,24.0,30.84,-3.84,-40.559998,-0.08140286,0.44532153,9.40203,0.1563815,0.028099801,0.002443461,-0.04732725769281387,0.008657792583107948,-1.6331753730773926,1023.3645,
2021.02.09 08:31:42,70.0,24.0,30.96,-4.2599998,-40.5,-0.2657564,0.34237084,9.126697,0.21074851,0.05009095,-0.047647487,-0.03747966140508652,0.029110349714756012,-1.6614603996276855,1023.3645,
2021.02.09 08:31:42,70.0,24.0,31.019999,-4.44,-40.5,-0.35434186,0.33758244,9.651027,0.08979719,0.015271631,-0.042760566,-0.034941136837005615,0.036698970943689346,-1.6715497970581055,1023.3645,
2021.02.09 08:31:42,70.0,24.0,31.019999,-4.44,-40.86,-0.34715924,0.4165911,9.742006,0.01160644,0.004886922,-0.028099801,-0.042709238827228546,0.03562021628022194,-1.6600929498672485,1023.3645,
2021.02.09 08:31:42,70.0,24.0,31.019999,-4.14,-41.28,-0.39743748,0.40462008,9.80665,0.0030543262,0.03176499,-0.02321288,-0.04120258986949921,0.04050517454743385,-1.6519795656204224,1023.3657,
2021.02.09 08:31:42,70.0,24.0,30.66,-3.84,-40.98,-0.19632454,0.48602295,9.536105,0.03359759,-0.0036651916,0.004276057,-0.05091177672147751,0.02058458887040615,-1.6283605098724365,1023.3657,
2021.02.09 08:31:42,70.0,24.0,30.96,-4.14,-41.399998,-0.17956513,0.5243302,9.703699,0.06169739,-0.0061086523,0.02443461,-0.053972337394952774,0.018502699211239815,-1.632663607597351,1023.3657,
2021.02.09 08:31:42,70.0,24.0,31.019999,-4.08,-41.219997,-0.25617957,0.5530606,9.629479,0.02076942,-0.009773844,0.0,-0.05735083296895027,0.026597406715154648,-1.62637197971344,1023.3657,
2021.02.09 08:31:43,70.0,24.0,31.08,-4.2,-41.28,-0.2633622,0.5386954,9.78989,-0.0061086523,0.02321288,-0.028710667,-0.05495040863752365,0.026894958689808846,-1.6335126161575317,1023.36694,
2021.02.09 08:31:43,70.0,24.0,31.019999,-4.3199997,-41.879997,-0.2896984,0.5243302,9.6845455,-0.018936822,0.01282817,-0.02321288,-0.05406397581100464,0.029904557392001152,-1.637963056564331,1023.36694,
2021.02.09 08:31:43,70.0,24.0,30.599998,-4.14,-41.52,-0.22984336,0.48841715,9.715671,-0.014049901,0.02687807,-0.008552114,-0.05021476000547409,0.023652561008930206,-1.6387439966201782,1023.36694,
2021.02.09 08:31:43,70.0,24.0,30.539999,-4.2,-41.64,-0.22744916,0.46686932,9.569624,-0.005497787,0.009162978,-0.0030543262,-0.04873419925570488,0.023763353005051613,-1.6428314447402954,1023.36694,
2021.02.09 08:31:43,70.0,24.0,30.599998,-4.02,-41.76,-0.22984336,0.46926352,9.854534,-0.009773844,0.015271631,0.0,-0.04757018759846687,0.023319387808442116,-1.6380956172943115,1023.35693,
2021.02.09 08:31:43,70.0,24.0,30.66,-3.8999999,-41.399998,-0.045489833,0.60333884,9.416395,0.015271631,-0.029932396,0.0061086523,-0.06398501992225647,0.004830880556255579,-1.611332893371582,1023.35693,
2021.02.09 08:31:43,70.0,24.0,30.779999,-3.78,-41.16,-0.272939,0.4165911,9.828198,0.028099801,0.0018325958,0.0018325958,-0.04234566539525986,0.02776387333869934,-1.638159155845642,1023.35693,
2021.02.09 08:31:43,70.0,24.0,30.599998,-3.6,-41.04,-0.24181437,0.51235914,9.651027,-0.021380283,-0.008552114,-0.032375857,-0.05302216485142708,0.025050578638911247,-1.6174430847167969,1023.35693,
2021.02.09 08:31:43,70.0,24.0,30.179998,-3.9599998,-40.62,-0.17956513,0.5530606,9.720459,0.0036651916,-0.03970624,-0.01038471,-0.05682560056447983,0.018470805138349533,-1.625638484954834,1023.3579,
2021.02.09 08:31:43,70.0,24.0,30.72,-4.02,-40.44,-0.15322891,0.5722142,9.409213,0.025045475,-0.03176499,-0.013439035,-0.06073141098022461,0.01628354750573635,-1.6215914487838745,1023.3579,
2021.02.09 08:31:43,70.0,24.0,30.96,-4.2,-40.739998,-0.20590134,0.45968673,9.89763,-0.02687807,-0.025045475,-0.026267206,-0.04640074819326401,0.020800095051527023,-1.6462633609771729,1023.3579,
2021.02.09 08:31:43,70.0,24.0,30.96,-4.08,-40.739998,-0.15322891,0.51714754,9.720459,-0.03848451,-0.034208454,-0.013439035,-0.05314527079463005,0.015762239694595337,-1.6328812837600708,1023.3579,
2021.02.09 08:31:43,70.0,24.0,31.32,-3.6,-40.68,-0.2681506,0.47165772,9.560047,0.0036651916,-0.020158553,-0.014049901,-0.04927702248096466,0.028041735291481018,-1.6221113204956055,1023.35913,
2021.02.09 08:31:43,70.0,24.0,30.779999,-3.48,-41.04,-0.15801731,0.533907,9.629479,0.0036651916,-0.02443461,-0.010995574,-0.05538089945912361,0.016408273950219154,-1.6098213195800781,1023.35913,
2021.02.09 08:31:43,70.0,24.0,30.42,-3.1799998,-41.219997,-0.22744916,0.51714754,9.842564,-0.01282817,-0.017715093,6.1086525E-4,-0.05247969925403595,0.02310461923480034,-1.6039520502090454,1023.35913,
2021.02.09 08:31:43,70.0,24.0,30.24,-2.9399998,-41.579998,-0.090979666,0.557849,9.629479,0.004276057,-0.015882496,-0.002443461,-0.057864125818014145,0.009447754360735416,-1.5880169868469238,1023.35913,
2021.02.09 08:31:43,70.0,24.0,30.119999,-3.3,-41.579998,-0.19632454,0.5434838,9.821015,0.03481932,0.015271631,-0.002443461,-0.0552714578807354,0.01998758688569069,-1.6037437915802002,1023.36304,
2021.02.09 08:31:43,70.0,24.0,29.88,-3.12,-41.399998,-0.25139117,0.56982,9.639056,0.026267206,0.031154128,-0.018325957,-0.05902700126171112,0.026074565947055817,-1.5925757884979248,1023.36304,
2021.02.09 08:31:43,70.0,24.0,29.88,-3.3,-41.399998,-0.17956513,0.59376204,9.603143,0.06047566,0.053145275,-0.0036651916,-0.06174059584736824,0.01869640126824379,-1.5950264930725098,1023.36304,
2021.02.09 08:31:43,70.0,24.0,30.0,-3.6599998,-41.1,-0.19632454,0.59376204,9.409213,0.03481932,0.03359759,0.0067195175,-0.06300707906484604,0.020862113684415817,-1.6059963703155518,1023.36304,
2021.02.09 08:31:43,70.0,24.0,30.0,-3.84,-41.64,-0.30166942,0.5770026,10.0029745,0.03604105,0.055588737,0.01160644,-0.057593125849962234,0.030148833990097046,-1.6189929246902466,1023.3657,
2021.02.09 08:31:43,70.0,24.0,30.48,-4.14,-41.76,-0.12928689,0.6991069,9.464279,0.002443461,-6.1086525E-4,0.0061086523,-0.07372717559337616,0.013659660704433918,-1.604966402053833,1023.3657,
2021.02.09 08:31:43,70.0,24.0,31.08,-4.5,-41.579998,-0.15322891,0.6464345,9.555259,0.05681047,0.047647487,0.009162978,-0.06754064559936523,0.01603470742702484,-1.6250115633010864,1023.3657,
2021.02.09 08:31:43,70.0,24.0,31.199999,-4.3199997,-41.219997,-0.22026655,0.62967503,9.68694,0.017104227,-0.0061086523,-0.01282817,-0.0648944154381752,0.022734588012099266,-1.623384952545166,1023.3657,
2021.02.09 08:31:43,70.0,24.0,31.439999,-4.5,-40.86,-0.22266077,0.61291564,9.80665,-0.009162978,6.1086525E-4,-0.002443461,-0.06240277364850044,0.02270117774605751,-1.6329782009124756,1023.3601,
2021.02.09 08:31:44,70.0,24.0,31.38,-4.62,-40.8,-0.25617957,0.6584055,9.536105,0.022602014,-0.014049901,-6.1086525E-4,-0.06890925765037537,0.026857713237404823,-1.628300666809082,1023.3601,
2021.02.09 08:31:44,70.0,24.0,31.199999,-4.62,-40.5,-0.36870706,0.5602432,9.787497,0.051923547,-0.0036651916,-0.007941248,-0.0571378692984581,0.03765342757105827,-1.645998477935791,1023.3601,
2021.02.09 08:31:44,70.0,24.0,31.32,-4.92,-40.62,-0.24181437,0.61770403,9.624691,0.028710667,-0.021380283,0.0061086523,-0.06407103687524796,0.02511909417808056,-1.6452566385269165,1023.3601,
2021.02.09 08:31:44,70.0,24.0,31.199999,-4.8599997,-40.62,-0.18195933,0.7062895,9.411607,0.080634214,-0.023823744,0.03604105,-0.07489017397165298,0.01933109574019909,-1.6286954879760742,1023.3606,
2021.02.09 08:31:44,70.0,24.0,30.96,-4.68,-40.62,-0.088585466,0.6823475,9.43076,0.061086524,-0.021380283,0.03726278,-0.07222436368465424,0.00939297117292881,-1.6268495321273804,1023.3606,
2021.02.09 08:31:44,70.0,24.0,31.08,-4.98,-40.98,-0.16759412,0.6751649,9.629479,0.0,-0.028710667,0.023823744,-0.06998924911022186,0.017402518540620804,-1.6386909484863281,1023.3606,
2021.02.09 08:31:44,70.0,24.0,30.779999,-4.68,-40.92,-0.15083471,0.6368576,9.531317,-0.047647487,-0.03726278,0.002443461,-0.06670987606048584,0.0158238485455513,-1.6340972185134888,1023.3606,
2021.02.09 08:31:44,70.0,24.0,30.72,-4.56,-40.98,-0.12928689,0.6655881,9.837775,-0.06963864,-0.039095376,0.004276057,-0.06754760444164276,0.013141126371920109,-1.628937005996704,1023.3601,
2021.02.09 08:31:44,70.0,24.0,30.66,-4.56,-40.8,-0.16998832,0.61052144,10.189722,-0.11911872,-0.054367006,0.0012217305,-0.05983557179570198,0.01668078452348709,-1.6401344537734985,1023.3601,
2021.02.09 08:31:44,70.0,24.0,30.06,-4.2,-40.98,-0.11492168,0.6368576,8.887277,0.031154128,-0.036651913,-0.004276057,-0.07153123617172241,0.012930314056575298,-1.6125253438949585,1023.3601,
2021.02.09 08:31:44,70.0,24.0,29.88,-4.2599998,-41.28,-0.007182605,0.6847417,10.067618,-0.01160644,-0.023823744,-0.010995574,-0.06790965795516968,7.134362240321934E-4,-1.6192525625228882,1023.3601,
2021.02.09 08:31:44,70.0,24.0,29.88,-4.2,-41.28,-0.320823,0.5674258,9.871294,-0.103847094,0.015882496,-0.037873644,-0.05738898739218712,0.032489169389009476,-1.6328043937683105,1023.3567,
2021.02.09 08:31:44,70.0,24.0,29.88,-4.02,-41.64,-0.22026655,0.5530606,9.782708,-0.023823744,0.002443461,-0.036651913,-0.05646011605858803,0.022512104362249374,-1.6269487142562866,1023.3567,
2021.02.09 08:31:44,70.0,24.0,30.3,-4.14,-41.579998,0.1364695,0.6536171,9.646238,0.022602014,-0.035430185,0.031154128,-0.06764858961105347,-0.014146488159894943,-1.6144498586654663,1023.3567,
2021.02.09 08:31:44,70.0,24.0,30.66,-4.14,-41.52,-0.04070143,0.62967503,9.653421,0.014660766,-0.017104227,0.018325957,-0.06513531506061554,0.004216244909912348,-1.6173540353775024,1023.3567,
2021.02.09 08:31:44,70.0,24.0,30.779999,-4.38,-41.76,-0.17477672,0.5434838,9.653421,-0.02321288,0.017104227,-0.040317107,-0.05623103305697441,0.018103180453181267,-1.637162446975708,1023.36426,
2021.02.09 08:31:44,70.0,24.0,30.72,-4.38,-41.76,-0.12449849,0.5363012,9.885659,-0.025045475,0.021380283,-0.032986723,-0.05419301241636276,0.012593181803822517,-1.639936923980713,1023.36426,
2021.02.09 08:31:44,70.0,24.0,30.3,-3.84,-41.7,-0.16280572,0.5650316,9.713276,-0.002443461,-0.0067195175,-0.017104227,-0.05809744447469711,0.016759585589170456,-1.6174927949905396,1023.36426,
2021.02.09 08:31:44,70.0,24.0,30.119999,-3.4199998,-41.52,-0.24420857,0.5722142,9.55047,0.04153884,-0.007330383,-6.1086525E-4,-0.059823717921972275,0.02556474879384041,-1.6012961864471436,1023.36426,
2021.02.09 08:31:44,70.0,24.0,30.06,-2.8799999,-41.399998,-0.1340753,0.5650316,9.682152,0.0030543262,-0.018936822,0.008552114,-0.05828637257218361,0.013846790418028831,-1.5856984853744507,1023.3689,
2021.02.09 08:31:44,70.0,24.0,30.3,-2.8799999,-41.16,0.050278235,0.62967503,9.610326,0.0061086523,-0.03359759,0.02443461,-0.06542626768350601,-0.005231641232967377,-1.5771280527114868,1023.3689,
2021.02.09 08:31:44,70.0,24.0,30.9,-3.24,-41.1,-0.10055647,0.545878,9.643845,-0.007330383,-0.009162978,0.017104227,-0.056540366262197495,0.010426633059978485,-1.600134015083313,1023.3689,
2021.02.09 08:31:44,70.0,24.0,31.019999,-3.9599998,-40.98,-0.1388637,0.533907,9.603143,-0.017715093,-0.0030543262,6.1086525E-4,-0.05553413927555084,0.014459226280450821,-1.6251276731491089,1023.3689,
2021.02.09 08:31:44,70.0,24.0,30.599998,-4.2599998,-40.98,-0.15801731,0.5506664,9.801862,-0.02443461,0.0036651916,0.008552114,-0.05611351132392883,0.016119755804538727,-1.6350995302200317,1023.3667,
2021.02.09 08:31:44,70.0,24.0,30.42,-4.2,-40.739998,-0.090979666,0.5770026,9.64145,-0.015882496,-0.009162978,0.015271631,-0.05977208539843559,0.009436025284230709,-1.6287251710891724,1023.3667,
2021.02.09 08:31:45,70.0,24.0,30.48,-3.9599998,-40.739998,-0.11731588,0.5530606,9.665392,6.1086525E-4,-0.004886922,0.019547688,-0.057154178619384766,0.01213712990283966,-1.624287724494934,1023.3667,
2021.02.09 08:31:45,70.0,24.0,30.0,-3.6,-41.04,-0.031124622,0.58418524,9.655815,-0.009162978,-0.017715093,0.02321288,-0.060426902025938034,0.0032233959063887596,-1.607916235923767,1023.3667,
2021.02.09 08:31:45,70.0,24.0,30.179998,-3.4199998,-40.92,-0.06943185,0.5267244,9.813833,-0.012217305,-0.01038471,0.02443461,-0.053618840873241425,0.007074777968227863,-1.6112785339355469,1023.3699,
2021.02.09 08:31:45,70.0,24.0,29.76,-3.72,-41.399998,-0.06943185,0.5363012,9.536105,-0.01038471,-0.014049901,0.01282817,-0.05617835372686386,0.00728081539273262,-1.617522954940796,1023.3699,
2021.02.09 08:31:45,70.0,24.0,29.34,-3.6599998,-41.46,-0.074220255,0.545878,9.799467,0.018936822,-0.014660766,0.014660766,-0.055645763874053955,0.007573762442916632,-1.6167984008789062,1023.3699,
2021.02.09 08:31:45,70.0,24.0,29.82,-3.36,-41.399998,0.055066638,0.5554548,9.595961,-0.014049901,-0.035430185,0.020158553,-0.057818759232759476,-0.005738459527492523,-1.6031218767166138,1023.3699,
2021.02.09 08:31:45,70.0,24.0,30.179998,-3.6,-41.579998,-0.045489833,0.50996494,9.701305,0.005497787,-0.0067195175,0.022602014,-0.05251771956682205,0.004689007997512817,-1.6176176071166992,1023.374,
2021.02.09 08:31:45,70.0,24.0,30.3,-3.6599998,-41.579998,-0.02873042,0.545878,9.653421,-0.016493361,-0.004276057,0.0030543262,-0.05648721754550934,0.002976181684061885,-1.6139028072357178,1023.374,
2021.02.09 08:31:45,70.0,24.0,30.06,-3.9599998,-41.579998,-0.090979666,0.50038815,9.809045,-0.019547688,0.0061086523,0.0,-0.05096656456589699,0.00927481334656477,-1.632137656211853,1023.374,
2021.02.09 08:31:45,70.0,24.0,29.939999,-4.56,-41.579998,-0.031124622,0.5267244,9.643845,-0.004886922,-6.1086525E-4,-0.0061086523,-0.05456317961215973,0.0032273968681693077,-1.647154688835144,1023.374,
2021.02.09 08:31:45,70.0,24.0,29.4,-4.7999997,-41.82,0.009576807,0.521936,9.634268,0.02321288,0.007330383,0.0018325958,-0.054122019559144974,-9.940353920683265E-4,-1.6565954685211182,1023.3718,
2021.02.09 08:31:45,70.0,24.0,29.88,-4.44,-41.52,-0.06464344,0.49559975,9.660604,-0.0018325958,0.004276057,-0.002443461,-0.051255032420158386,0.006691350135952234,-1.6482317447662354,1023.3718,
2021.02.09 08:31:45,70.0,24.0,30.179998,-4.14,-41.7,-0.06464344,0.50757074,9.734824,0.0,0.009773844,-0.0018325958,-0.05209137871861458,0.006640335079282522,-1.636008381843567,1023.3718,
2021.02.09 08:31:45,70.0,24.0,30.119999,-3.9599998,-41.94,-0.05267244,0.5243302,9.588778,0.015271631,0.008552114,-0.0018325958,-0.054626431316137314,0.005493078846484423,-1.6261178255081177,1023.3718,
2021.02.09 08:31:45,70.0,24.0,30.119999,-3.48,-41.76,-0.15801731,0.48123455,9.655815,0.007941248,0.008552114,-0.0018325958,-0.04979097098112106,0.01636352762579918,-1.6174122095108032,1023.36523,
2021.02.09 08:31:45,70.0,24.0,29.519999,-3.6599998,-41.82,-0.011971008,0.5410896,9.603143,0.0018325958,0.004886922,0.0067195175,-0.05628548935055733,0.0012465713080018759,-1.6148673295974731,1023.36523,
2021.02.09 08:31:45,70.0,24.0,29.4,-3.8999999,-41.7,-0.074220255,0.521936,9.7803135,-0.004886922,0.009773844,0.009773844,-0.05331387370824814,0.0075885942205786705,-1.627830147743225,1023.36523,
2021.02.09 08:31:45,70.0,24.0,29.279999,-3.8999999,-41.76,-0.05746084,0.5243302,9.598354,0.0018325958,-0.007941248,0.0036651916,-0.05457187443971634,0.005986459087580442,-1.6260933876037598,1023.36523,
2021.02.09 08:31:45,70.0,24.0,29.82,-4.08,-41.7,-0.07182605,0.50757074,9.631873,0.014660766,0.0012217305,0.014660766,-0.052646834403276443,0.0074569834396243095,-1.6340280771255493,1023.36206,
2021.02.09 08:31:45,70.0,24.0,30.119999,-3.78,-41.76,0.023942016,0.5530606,9.64145,-0.016493361,-0.009773844,0.0030543262,-0.05729983001947403,-0.0024832328781485558,-1.6166406869888306,1023.36206,
2021.02.09 08:31:45,70.0,24.0,29.939999,-3.54,-41.94,-0.021547815,0.5506664,9.691729,0.0,0.009162978,0.009773844,-0.056757017970085144,0.0022233163472265005,-1.6093549728393555,1023.36206,
2021.02.09 08:31:45,70.0,24.0,30.119999,-3.6,-41.52,-0.038307227,0.521936,9.665392,-0.026267206,-0.0018325958,-0.0036651916,-0.053947675973176956,0.003963318653404713,-1.6158171892166138,1023.36206,
2021.02.09 08:31:45,70.0,24.0,30.0,-3.6,-41.579998,-0.045489833,0.5291186,9.662998,0.0030543262,0.0030543262,-0.007330383,-0.05470195412635803,0.004707596264779568,-1.6148407459259033,1023.3679,
2021.02.09 08:31:45,70.0,24.0,29.88,-3.6,-41.579998,-0.06943185,0.51954174,9.701305,-0.019547688,-0.002443461,-0.007941248,-0.05350131914019585,0.007156836800277233,-1.616736650466919,1023.3679,
2021.02.09 08:31:45,70.0,24.0,30.42,-3.6599998,-41.579998,-0.035913024,0.50996494,9.5385,0.004276057,-0.0018325958,-0.0012217305,-0.05341261997818947,0.0037650419399142265,-1.6179749965667725,1023.3679,
2021.02.09 08:31:46,70.0,24.0,30.3,-3.72,-41.64,0.04309563,0.49081135,9.662998,-0.0012217305,0.002443461,0.0,-0.05074874684214592,-0.004459831397980452,-1.6235533952713013,1023.3679,
2021.02.09 08:31:46,70.0,24.0,30.359999,-3.6,-41.46,-0.1364695,0.521936,9.782708,-0.028710667,0.004886922,-0.002443461,-0.05329719930887222,0.013949168846011162,-1.6165651082992554,1023.3789,
2021.02.09 08:31:46,70.0,24.0,30.179998,-3.84,-41.7,-0.02633622,0.5482722,9.504981,-0.01038471,0.002443461,-0.010995574,-0.05761855095624924,0.002770773833617568,-1.6182407140731812,1023.3789,
2021.02.09 08:31:46,70.0,24.0,30.179998,-3.9599998,-41.46,-0.06464344,0.50996494,9.6845455,0.010995574,0.002443461,0.0036651916,-0.05260784178972244,0.006674807984381914,-1.6297149658203125,1023.3789,
2021.02.09 08:31:46,70.0,24.0,30.06,-3.8999999,-41.76,-0.10295067,0.521936,9.787497,-0.02565634,0.0030543262,-0.007330383,-0.053273409605026245,0.010518202558159828,-1.6265844106674194,1023.3789,
2021.02.09 08:31:46,70.0,24.0,30.0,-3.8999999,-41.879997,-0.04309563,0.51714754,9.617508,-0.01160644,0.004276057,-0.0061086523,-0.05371919646859169,0.004480925854295492,-1.625702142715454,1023.37256,
2021.02.09 08:31:46,70.0,24.0,30.119999,-3.54,-41.64,-0.035913024,0.51714754,9.615114,0.015271631,-0.0061086523,6.1086525E-4,-0.05373270809650421,0.0037350421771407127,-1.6139047145843506,1023.37256,
2021.02.09 08:31:46,70.0,24.0,30.06,-3.6,-41.64,-0.04309563,0.521936,9.588778,0.008552114,-0.0030543262,0.0012217305,-0.05437775328755379,0.004494351800531149,-1.6150951385498047,1023.37256,
2021.02.09 08:31:46,70.0,24.0,29.88,-3.6,-41.219997,-0.076614454,0.5243302,9.7563715,-0.02321288,-0.0067195175,-0.009162978,-0.05368903651833534,0.007852599956095219,-1.6171265840530396,1023.37256,
2021.02.09 08:31:46,70.0,24.0,29.699999,-3.72,-41.04,0.021547815,0.5554548,9.579201,-0.0018325958,0.0,-0.0012217305,-0.05792049691081047,-0.0022494338918477297,-1.6158080101013184,1023.37256,
2021.02.09 08:31:46,70.0,24.0,29.939999,-4.08,-40.86,-0.06464344,0.48602295,9.691729,-0.004886922,-0.0018325958,-0.0030543262,-0.05010513588786125,0.006669861264526844,-1.6387301683425903,1023.37256,
2021.02.09 08:31:46,70.0,24.0,29.939999,-4.38,-41.1,-0.050278235,0.5482722,9.751583,-0.0061086523,6.1086525E-4,-0.007941248,-0.05616404116153717,0.005155859515070915,-1.6398919820785522,1023.37256,
2021.02.09 08:31:46,70.0,24.0,30.0,-4.2,-41.34,-0.07182605,0.50757074,9.679757,-0.010995574,-0.0067195175,-0.004886922,-0.05238688737154007,0.007420096546411514,-1.6386539936065674,1023.37256,
2021.02.09 08:31:46,70.0,24.0,30.0,-3.72,-41.52,-0.009576807,0.50996494,9.560047,0.014049901,-0.0012217305,-6.1086525E-4,-0.05329281464219093,0.0010017527965828776,-1.6208722591400146,1023.3733,
2021.02.09 08:31:46,70.0,24.0,29.76,-3.6,-41.879997,-0.04070143,0.521936,9.598354,-0.004276057,6.1086525E-4,-0.0012217305,-0.05432366952300072,0.004240433685481548,-1.6151825189590454,1023.3733,
2021.02.09 08:31:46,70.0,24.0,29.699999,-3.3,-41.879997,-0.12210429,0.48841715,9.811439,-0.026267206,0.01038471,-0.01038471,-0.049735475331544876,0.01244445238262415,-1.611752986907959,1023.3733,
2021.02.09 08:31:46,70.0,24.0,29.58,-3.4199998,-41.76,-0.055066638,0.50278234,9.653421,-0.017104227,-0.01160644,6.1086525E-4,-0.05203546956181526,0.005704302806407213,-1.6128489971160889,1023.3733,
2021.02.09 08:31:46,70.0,24.0,30.0,-3.84,-41.399998,-0.019153614,0.49559975,9.64145,0.009773844,-0.002443461,0.01038471,-0.051357727497816086,0.0019865878857672215,-1.6277779340744019,1023.36304,
2021.02.09 08:31:46,70.0,24.0,30.0,-4.14,-41.34,-0.035913024,0.50996494,9.581595,0.010995574,-0.01038471,0.010995574,-0.053172845393419266,0.0037481081672012806,-1.6354094743728638,1023.36304,
2021.02.09 08:31:46,70.0,24.0,29.88,-3.6,-41.219997,-0.11492168,0.49081135,9.76116,-6.1086525E-4,0.004276057,0.0012217305,-0.050236284732818604,0.01177281979471445,-1.6220589876174927,1023.36304,
2021.02.09 08:31:46,70.0,24.0,30.24,-3.54,-41.64,-0.023942016,0.51954174,9.646238,-0.016493361,-0.009773844,0.0018325958,-0.05380736663937569,0.002482000505551696,-1.6136213541030884,1023.36304,
2021.02.09 08:31:46,70.0,24.0,29.88,-3.4199998,-41.64,-0.047884032,0.50996494,9.603143,0.012217305,0.002443461,0.012217305,-0.053053468465805054,0.00498624611645937,-1.6111897230148315,1023.36743,
2021.02.09 08:31:46,70.0,24.0,30.0,-3.3,-41.82,0.0047884034,0.5363012,9.672575,0.0018325958,-0.0061086523,0.007941248,-0.05538882687687874,-4.950494621880352E-4,-1.6034483909606934,1023.36743,
2021.02.09 08:31:46,70.0,24.0,30.24,-3.54,-42.059998,0.0023942017,0.47884035,9.651027,-0.007330383,-6.1086525E-4,0.007330383,-0.049574825912714005,-2.48077412834391E-4,-1.6187509298324585,1023.36743,
2021.02.09 08:31:46,70.0,24.0,30.48,-3.54,-42.059998,-0.033518825,0.48841715,9.713276,-0.0012217305,-0.0030543262,0.004886922,-0.05024084821343422,0.003450812306255102,-1.6175082921981812,1023.36743,
2021.02.09 08:31:47,70.0,24.0,30.779999,-3.54,-42.36,0.033518825,0.50996494,9.533711,-0.004886922,-0.01038471,0.008552114,-0.05343944579362869,-0.003515806747600436,-1.6120976209640503,1023.3677,
2021.02.09 08:31:47,70.0,24.0,30.779999,-3.3,-41.94,-0.06464344,0.48123455,9.718064,0.0018325958,0.0061086523,0.002443461,-0.04947808012366295,0.006651786621659994,-1.6105002164840698,1023.3677,
2021.02.09 08:31:47,70.0,24.0,30.599998,-3.4199998,-41.94,0.01436521,0.48123455,9.586384,-0.017715093,-0.0030543262,0.0,-0.050157640129327774,-0.0014985003508627415,-1.6136647462844849,1023.3677,
2021.02.09 08:31:47,70.0,24.0,30.3,-3.48,-42.12,-0.02633622,0.47884035,9.734824,-0.0067195175,0.0012217305,0.008552114,-0.04914860054850578,0.002705354942008853,-1.617224097251892,1023.3677,
2021.02.09 08:31:47,70.0,24.0,29.64,-3.1799998,-42.18,-0.06464344,0.50278234,9.591172,-0.020158553,-0.005497787,0.0,-0.05237223953008652,0.006739787291735411,-1.6033917665481567,1023.3633,
2021.02.09 08:31:47,70.0,24.0,29.699999,-3.4199998,-42.36,-0.074220255,0.45010993,9.715671,-0.0061086523,-0.0012217305,-6.1086525E-4,-0.04629378765821457,0.0076390826143324375,-1.6199673414230347,1023.3633,
2021.02.09 08:31:47,70.0,24.0,29.58,-3.1799998,-42.0,-0.04070143,0.48123455,9.689334,-0.02321288,0.0,-6.1086525E-4,-0.0496252067387104,0.004200618248432875,-1.6077324151992798,1023.3633,
2021.02.09 08:31:47,70.0,24.0,29.58,-3.36,-41.64,-0.023942016,0.48362875,9.636662,-0.0018325958,-0.004886922,0.004886922,-0.05014411360025406,0.002484467113390565,-1.6136847734451294,1023.3633,
2021.02.09 08:31:47,70.0,24.0,29.88,-4.02,-41.34,-0.035913024,0.45010993,9.691729,-0.004886922,-6.1086525E-4,0.0061086523,-0.04640901833772659,0.0037055164575576782,-1.641078233718872,1023.3633,
2021.02.09 08:31:47,70.0,24.0,29.64,-3.84,-41.219997,0.01436521,0.47165772,9.629479,-0.0018325958,0.002443461,0.009162978,-0.048941437155008316,-0.0014917940134182572,-1.6320300102233887,1023.3633,
2021.02.09 08:31:47,70.0,24.0,29.58,-4.2,-41.52,-0.06943185,0.46686932,9.7324295,-0.007330383,-0.004886922,-6.1086525E-4,-0.047932516783475876,0.007133950479328632,-1.6456389427185059,1023.3633,
2021.02.09 08:31:47,70.0,24.0,29.82,-4.2,-41.28,0.055066638,0.48602295,9.461885,0.015271631,6.1086525E-4,0.007330383,-0.05132041871547699,-0.005819771904498339,-1.6400748491287231,1023.3633,
2021.02.09 08:31:47,70.0,24.0,30.179998,-4.02,-41.52,-0.095768064,0.4261679,9.928755,-0.018325957,-0.004276057,-6.1086525E-4,-0.04289427027106285,0.00964522734284401,-1.6453262567520142,1023.37305,
2021.02.09 08:31:47,70.0,24.0,30.42,-4.2,-42.0,0.079008654,0.51954174,9.442732,0.01282817,-0.009162978,0.0067195175,-0.05496293678879738,-0.008366944268345833,-1.6324800252914429,1023.37305,
2021.02.09 08:31:47,70.0,24.0,30.48,-4.08,-41.82,-0.035913024,0.44532153,9.749189,0.008552114,-0.0018325958,0.0061086523,-0.045645762234926224,0.003683676477521658,-1.6419814825057983,1023.37305,
2021.02.09 08:31:47,70.0,24.0,30.3,-3.9599998,-41.94,-0.0023942017,0.48602295,9.694122,-0.01038471,-0.004276057,-6.1086525E-4,-0.050093892961740494,2.46974581386894E-4,-1.6319488286972046,1023.37305,
2021.02.09 08:31:47,70.0,24.0,30.179998,-3.9599998,-41.82,-0.08619126,0.47165772,9.722853,0.004276057,0.0018325958,-0.002443461,-0.04847031831741333,0.00886457972228527,-1.634993553161621,1023.36475,
2021.02.09 08:31:47,70.0,24.0,29.88,-3.9599998,-41.28,0.055066638,0.50757074,9.481039,0.02443461,-0.010995574,-0.0012217305,-0.053483396768569946,-0.00580801535397768,-1.6290620565414429,1023.36475,
2021.02.09 08:31:47,70.0,24.0,30.06,-4.3199997,-41.46,-0.074220255,0.44771573,9.753978,0.016493361,0.004886922,-0.0018325958,-0.04586732015013695,0.007609082851558924,-1.651445984840393,1023.36475,
2021.02.09 08:31:47,70.0,24.0,30.06,-4.44,-41.46,-0.01436521,0.47884035,9.65821,-0.017715093,-0.009773844,-0.015882496,-0.049537964165210724,0.0014873563777655363,-1.6499463319778442,1023.36475,
2021.02.09 08:31:47,70.0,24.0,30.179998,-4.44,-41.46,-0.023942016,0.50278234,9.545682,0.02687807,-0.0018325958,6.1086525E-4,-0.052622389048337936,0.002508146222680807,-1.6454402208328247,1023.3584,
2021.02.09 08:31:47,70.0,24.0,30.179998,-4.38,-41.94,-0.059855044,0.51235914,9.653421,-6.1086525E-4,0.0,-0.009773844,-0.05302462354302406,0.006200317293405533,-1.642238736152649,1023.3584,
2021.02.09 08:31:47,70.0,24.0,30.179998,-4.2,-41.52,0.016759412,0.50517654,9.718064,-0.01160644,0.0030543262,-0.0067195175,-0.051936421543359756,-0.0017245612107217312,-1.6381819248199463,1023.3584,
2021.02.09 08:31:47,70.0,24.0,30.48,-4.2599998,-41.219997,0.023942016,0.51954174,9.617508,-0.004886922,-0.0012217305,-0.004276057,-0.05396778881549835,-0.0024894149973988533,-1.6372209787368774,1023.3584,
2021.02.09 08:31:47,70.0,24.0,30.24,-4.38,-41.16,-0.011971008,0.51714754,9.662998,0.0,0.004276057,-0.0061086523,-0.0534672811627388,0.0012388495961204171,-1.6426218748092651,1023.3633,
2021.02.09 08:31:48,70.0,24.0,30.359999,-4.3199997,-40.8,-0.0047884034,0.5315128,9.636662,-0.01038471,-0.0012217305,-0.013439035,-0.055099450051784515,4.968943540006876E-4,-1.6387767791748047,1023.3633,
2021.02.09 08:31:48,70.0,24.0,30.779999,-4.2599998,-41.04,0.023942016,0.50038815,9.770737,-0.007941248,0.008552114,-0.010995574,-0.051168087869882584,-0.002450374886393547,-1.6406060457229614,1023.3633,
2021.02.09 08:31:48,70.0,24.0,30.72,-4.14,-41.1,-0.06943185,0.51475334,9.653421,-0.016493361,0.0061086523,-0.01160644,-0.05327158421278,0.007192336022853851,-1.634279727935791,1023.3633,
2021.02.09 08:31:48,70.0,24.0,31.019999,-4.02,-41.16,0.007182605,0.50038815,9.572019,0.01160644,0.008552114,-0.01038471,-0.05222857743501663,-7.503750384785235E-4,-1.6308505535125732,1023.3633,
2021.02.09 08:31:48,70.0,24.0,31.14,-4.3199997,-41.04,-0.095768064,0.45489833,9.811439,-0.0018325958,0.004886922,-0.007330383,-0.046328697353601456,0.009760548360645771,-1.6487412452697754,1023.3633,
2021.02.09 08:31:48,70.0,24.0,31.38,-4.5,-40.739998,0.0023942017,0.5386954,9.516952,-0.007941248,-6.1086525E-4,-0.010995574,-0.056543439626693726,-2.515723172109574E-4,-1.6404789686203003,1023.3633,
2021.02.09 08:31:48,70.0,24.0,31.38,-4.2599998,-40.98,-0.055066638,0.50038815,9.811439,0.0030543262,0.015882496,-0.004886922,-0.05095553398132324,0.005612434819340706,-1.639973521232605,1023.3633,
2021.02.09 08:31:48,70.0,24.0,31.439999,-4.38,-40.86,-0.016759412,0.50038815,9.540894,-0.02076942,0.0061086523,-0.014660766,-0.05239859223365784,0.0017565855523571372,-1.6418020725250244,1023.37354,
2021.02.09 08:31:48,70.0,24.0,31.56,-4.2,-41.46,-0.05267244,0.46447513,9.883265,0.0012217305,0.023823744,-0.014660766,-0.04696090519428253,0.0053294068202376366,-1.6421910524368286,1023.37354,
2021.02.09 08:31:48,70.0,24.0,31.019999,-4.02,-41.879997,-0.045489833,0.49081135,9.682152,0.005497787,0.0030543262,-0.015882496,-0.05064846947789192,0.0046982839703559875,-1.631948471069336,1023.37354,
2021.02.09 08:31:48,70.0,24.0,31.08,-4.14,-41.879997,-0.06464344,0.47884035,9.634268,0.015882496,0.010995574,-0.01038471,-0.04965980723500252,0.006709640379995108,-1.6371212005615234,1023.37354,
2021.02.09 08:31:48,70.0,24.0,30.96,-3.6599998,-42.239998,-0.08379706,0.45729253,9.734824,0.0012217305,0.009162978,-0.007941248,-0.04693866893649101,0.008607756346464157,-1.6250513792037964,1023.37427,
2021.02.09 08:31:48,70.0,24.0,30.84,-3.48,-42.0,-0.05746084,0.51235914,9.710882,0.0,0.009773844,0.0012217305,-0.05271154269576073,0.005917090456932783,-1.6117244958877563,1023.37427,
2021.02.09 08:31:48,70.0,24.0,30.66,-3.3,-41.7,0.074220255,0.50278234,9.763555,-0.007330383,-0.014660766,0.004276057,-0.051448896527290344,-0.007601619232445955,-1.608330488204956,1023.37427,
2021.02.09 08:31:48,70.0,24.0,30.779999,-3.3,-41.7,-0.047884032,0.46926352,9.68694,0.008552114,-0.007941248,0.013439035,-0.048404473811388016,0.004943113308399916,-1.612348198890686,1023.37427,
2021.02.09 08:31:48,70.0,24.0,30.24,-3.78,-41.579998,0.0023942017,0.50278234,9.715671,-0.005497787,-0.012217305,-0.0030543262,-0.05170350894331932,-2.4642678909003735E-4,-1.624511480331421,1023.3679,
2021.02.09 08:31:48,70.0,24.0,30.359999,-4.2,-41.52,-0.0047884034,0.50757074,9.55047,0.0036651916,-0.004886922,0.012217305,-0.053096190094947815,5.01378730405122E-4,-1.6362862586975098,1023.3679,
2021.02.09 08:31:48,70.0,24.0,30.3,-4.38,-41.219997,-0.01436521,0.47405192,9.586384,-0.008552114,0.015882496,-0.0036651916,-0.04941024258732796,0.0014985003508627415,-1.6479146480560303,1023.3679,
2021.02.09 08:31:48,70.0,24.0,29.82,-4.44,-41.399998,-0.01436521,0.521936,9.600749,-0.042760566,0.019547688,-0.007941248,-0.05431056767702103,0.0014962581917643547,-1.6440463066101074,1023.3679,
2021.02.09 08:31:48,70.0,24.0,30.3,-4.3199997,-41.76,0.021547815,0.46208093,9.56723,-0.049480084,0.036651913,-0.009773844,-0.04826067388057709,-0.0022522483486682177,-1.6464457511901855,1023.3694,
2021.02.09 08:31:48,70.0,24.0,30.119999,-4.08,-42.12,0.12928689,0.4357447,9.646238,-0.08368854,0.032986723,-0.004276057,-0.04513776674866676,-0.013402027077972889,-1.6421724557876587,1023.3694,
2021.02.09 08:31:48,70.0,24.0,30.24,-3.8999999,-42.54,-0.035913024,0.34955344,8.911219,-0.07819075,0.026267206,0.01038471,-0.03920580446720123,0.004030069336295128,-1.6446549892425537,1023.3694,
2021.02.09 08:31:48,70.0,24.0,30.539999,-3.6599998,-42.3,0.2825158,0.45729253,10.460267,-0.122783914,0.02565634,0.0,-0.04367337375879288,-0.02700190432369709,-1.6290295124053955,1023.3694,
2021.02.09 08:31:48,70.0,24.0,30.0,-3.24,-41.82,0.2657564,0.38067806,10.788273,-0.19425514,-0.009773844,0.0061086523,-0.03526096045970917,-0.024628840386867523,-1.6284410953521729,1023.3696,
2021.02.09 08:31:48,70.0,24.0,29.88,-2.8799999,-41.46,-0.1340753,0.521936,8.616732,0.04886922,0.18570304,-0.065973446,-0.0604911632835865,0.015558622777462006,-1.582444190979004,1023.3696,
