Time,X-cord,Y-cord,Mag_x,Mag_y,Mag_z,Acc_x,Acc_y,Acc_z,Gyro_x,Gyro_y,Gyro_z,Orn_x,Orn_y,Orn_z,Pressure,
2021.02.09 08:36:42,81.0,24.0,42.54,10.74,-34.68,-0.4165911,0.33758244,9.7803135,0.099571034,0.20952678,-0.15271631,-0.03447159752249718,0.042569130659103394,-1.2864549160003662,1023.3833,
2021.02.09 08:36:42,81.0,24.0,42.719997,11.5199995,-34.739998,-0.81642276,0.33758244,9.344569,0.09590584,0.026267206,0.051923547,-0.0359734371304512,0.08714739978313446,-1.2555955648422241,1023.3833,
2021.02.09 08:36:42,81.0,24.0,42.78,11.82,-34.62,0.50038815,0.7374141,8.949526,-0.035430185,-0.018325957,0.1160644,-0.08208366483449936,-0.05585410073399544,-1.2584177255630493,1023.3833,
2021.02.09 08:36:42,81.0,24.0,42.78,12.24,-34.559998,0.5363012,0.7757214,9.399636,-0.21319197,-0.061086524,-0.03359759,-0.08220704644918442,-0.05699373409152031,-1.2502796649932861,1023.3872,
2021.02.09 08:36:42,81.0,24.0,42.84,11.88,-34.32,-0.15083471,0.35673606,9.696517,-0.3359759,-0.20341812,-0.018936822,-0.03676909580826759,0.01555430144071579,-1.269228458404541,1023.3872,
2021.02.09 08:36:42,81.0,24.0,42.6,11.4,-34.32,0.035913024,0.22505496,10.084377,-0.2938262,-0.2443461,0.05009095,-0.022313345223665237,-0.003561238292604685,-1.2935090065002441,1023.3872,
2021.02.09 08:36:42,81.0,24.0,42.719997,11.4,-34.32,0.095768064,0.21068975,9.576807,-0.2125811,-0.14538592,0.052534413,-0.02199535258114338,-0.00999966636300087,-1.2959465980529785,1023.3872,
2021.02.09 08:36:42,81.0,24.0,42.42,11.639999,-34.62,0.0,0.2657564,9.7324295,-0.22052236,-0.13316862,0.02443461,-0.027299491688609123,1.0E-6,-1.2824859619140625,1023.3794,
2021.02.09 08:36:42,81.0,24.0,42.54,11.46,-35.219997,0.33518824,0.28491,9.809045,-0.13683382,-0.03604105,0.0580322,-0.02902054600417614,-0.03415805473923683,-1.2936913967132568,1023.3794,
2021.02.09 08:36:42,81.0,24.0,42.239998,11.639999,-35.399998,0.23463176,0.25139117,9.866506,-0.07086037,6.1086525E-4,0.06352998,-0.025466544553637505,-0.023776153102517128,-1.2880759239196777,1023.3794,
2021.02.09 08:36:42,81.0,24.0,42.12,11.82,-34.92,0.22505496,0.1388637,9.607931,-0.026267206,0.04520403,0.037873644,-0.014448059722781181,-0.023419590666890144,-1.2915436029434204,1023.3794,
2021.02.09 08:36:42,81.0,24.0,42.54,11.4,-34.739998,0.095768064,0.06943185,9.77792,-0.02687807,0.03604105,0.022602014,-0.0071004219353199005,-0.009794006124138832,-1.305643916130066,1023.38257,
2021.02.09 08:36:42,81.0,24.0,42.36,11.16,-34.38,-0.076614454,0.095768064,9.414001,-0.015882496,0.06352998,0.04886922,-0.010172251611948013,0.008138171397149563,-1.3037350177764893,1023.38257,
2021.02.09 08:36:42,81.0,24.0,42.84,10.98,-34.14,0.09816227,0.04309563,9.878476,-0.06841691,0.021380283,0.09285152,-0.00436233589425683,-0.00993665773421526,-1.318579077720642,1023.38257,
2021.02.09 08:36:42,81.0,24.0,42.66,11.04,-34.44,0.22505496,0.12689269,9.813833,-0.07696902,-0.002443461,0.07574729,-0.012925863265991211,-0.022928401827812195,-1.3126046657562256,1023.38257,
2021.02.09 08:36:42,81.0,24.0,42.239998,11.58,-34.68,0.21787235,0.031124622,9.873688,-0.032375857,-0.029321533,6.1086525E-4,-0.003151501528918743,-0.022062374278903008,-1.3054012060165405,1023.3772,
2021.02.09 08:36:42,81.0,24.0,42.3,12.12,-34.26,0.007182605,-0.0023942017,10.333375,0.03481932,-0.11056661,-0.034208454,2.3169592896010727E-4,-6.950878887437284E-4,-1.2920695543289185,1023.3772,
2021.02.09 08:36:42,81.0,24.0,41.82,12.78,-34.14,0.19153613,-0.01436521,9.969456,0.15699236,-0.06414085,-0.055588737,0.001440655323676765,-0.019209932535886765,-1.2795220613479614,1023.3772,
2021.02.09 08:36:42,81.0,24.0,41.76,12.42,-34.38,0.031124622,-0.023942016,9.698911,0.17287487,-0.054367006,-0.048258353,0.002468508668243885,-0.003209073096513748,-1.2842901945114136,1023.3772,
2021.02.09 08:36:43,81.0,24.0,42.18,11.759999,-34.5,0.033518825,0.035913024,9.196129,0.080634214,-0.036651913,-0.03481932,-0.00390518712811172,-0.003644868265837431,-1.2967246770858765,1023.3799,
2021.02.09 08:36:43,81.0,24.0,42.0,11.759999,-34.98,-0.019153614,0.021547815,9.696517,0.005497787,-0.039095376,-0.02443461,-0.002222214126959443,0.0019753058440983295,-1.295638084411621,1023.3799,
2021.02.09 08:36:43,81.0,24.0,42.3,11.16,-35.34,0.16519992,0.04309563,9.80665,0.0421497,0.008552114,-0.0067195175,-0.004393879324197769,-0.01684410870075226,-1.31291925907135,1023.3799,
2021.02.09 08:36:43,81.0,24.0,42.059998,11.28,-35.399998,0.035913024,0.055066638,9.636662,0.056199603,0.0036651916,0.008552114,-0.0057141841389238834,-0.0037266910076141357,-1.3051092624664307,1023.3799,
2021.02.09 08:36:43,81.0,24.0,42.239998,11.4,-34.86,0.11731588,0.12210429,9.44752,0.028099801,0.014049901,6.1086525E-4,-0.012922764755785465,-0.012416999787092209,-1.3000661134719849,1023.37524,
2021.02.09 08:36:43,81.0,24.0,42.3,11.219999,-34.86,0.079008654,0.088585466,9.562442,-0.028099801,0.02443461,-0.016493361,-0.009263314306735992,-0.008262204937636852,-1.3061915636062622,1023.37524,
2021.02.09 08:36:43,81.0,24.0,42.059998,11.34,-34.62,0.24660277,0.1412579,9.890448,-0.03359759,0.01282817,-0.004886922,-0.014276848174631596,-0.024928264319896698,-1.3020453453063965,1023.37524,
2021.02.09 08:36:43,81.0,24.0,42.36,11.099999,-34.32,0.22266077,0.11252748,9.581595,-0.007941248,0.047647487,-0.01160644,-0.011740419082343578,-0.023234199732542038,-1.3105201721191406,1023.37524,
2021.02.09 08:36:43,81.0,24.0,41.64,11.58,-34.2,0.34955344,0.10534488,9.959879,-0.062308256,-0.016493361,-0.014049901,-0.010570021346211433,-0.03508175536990166,-1.2991465330123901,1023.37695,
2021.02.09 08:36:43,81.0,24.0,41.7,11.82,-34.32,0.272939,0.11731588,9.828198,0.019547688,-0.0061086523,-0.020158553,-0.011931495741009712,-0.02776387520134449,-1.2917863130569458,1023.37695,
2021.02.09 08:36:43,81.0,24.0,42.059998,11.759999,-34.44,0.22505496,0.16519992,9.797073,-0.007330383,-0.017715093,-0.02565634,-0.016856128349900246,-0.022967612370848656,-1.29071843624115,1023.37695,
2021.02.09 08:36:43,81.0,24.0,42.18,12.059999,-34.44,0.16759412,0.093373865,9.617508,-0.014049901,-0.010995574,-0.01282817,-0.009706960059702396,-0.017424175515770912,-1.2889230251312256,1023.37695,
2021.02.09 08:36:43,81.0,24.0,42.84,11.88,-34.5,0.23223756,0.14844051,9.92636,-0.03726278,-0.026267206,-0.013439035,-0.014948969706892967,-0.023391777649521828,-1.2943607568740845,1023.3811,
2021.02.09 08:36:43,81.0,24.0,42.96,12.059999,-34.5,0.21547815,0.17238252,9.876082,-6.1086525E-4,-0.020158553,-0.013439035,-0.01744861900806427,-0.02181471884250641,-1.2891734838485718,1023.3811,
2021.02.09 08:36:43,81.0,24.0,42.899998,12.059999,-34.8,0.29209262,0.20590134,9.7084875,0.014049901,-0.019547688,-0.023823744,-0.02119561657309532,-0.030077243223786354,-1.2879447937011719,1023.3811,
2021.02.09 08:36:43,81.0,24.0,43.2,12.24,-35.16,0.18914193,0.1436521,9.837775,-0.0067195175,-0.028099801,-0.034208454,-0.014598356559872627,-0.019223719835281372,-1.2881593704223633,1023.3811,
2021.02.09 08:36:43,81.0,24.0,42.78,12.42,-35.82,0.16519992,0.1316811,9.749189,-0.0036651916,-0.017104227,-0.021991149,-0.013504116795957088,-0.016943369060754776,-1.2819112539291382,1023.38257,
2021.02.09 08:36:43,81.0,24.0,42.6,12.3,-35.82,0.17477672,0.16519992,9.818622,0.01282817,-0.016493361,-0.02565634,-0.016820913180708885,-0.017798656597733498,-1.2810661792755127,1023.38257,
2021.02.09 08:36:43,81.0,24.0,42.719997,11.639999,-35.52,0.11492168,0.16998832,9.82341,0.029321533,-0.021991149,-0.021991149,-0.017301499843597412,-0.011698223650455475,-1.2942017316818237,1023.38257,
2021.02.09 08:36:43,81.0,24.0,42.12,12.12,-35.46,0.21068975,0.16759412,9.794679,0.025045475,-0.014049901,-0.01160644,-0.0171051062643528,-0.021507317200303078,-1.2826112508773804,1023.38257,
2021.02.09 08:36:43,81.0,24.0,42.36,11.94,-35.1,0.22984336,0.12689269,9.509769,0.021991149,-0.0036651916,-0.005497787,-0.013338716700673103,-0.024164477363228798,-1.2913906574249268,1023.3938,
2021.02.09 08:36:43,81.0,24.0,42.0,12.12,-35.46,0.11971009,0.16759412,9.801862,-0.014049901,-0.002443461,-0.013439035,-0.017095251008868217,-0.012212387286126614,-1.279629111289978,1023.3938,
2021.02.09 08:36:43,81.0,24.0,41.52,12.66,-35.28,0.25139117,0.21068975,9.713276,-0.0061086523,0.007941248,-0.004276057,-0.02168024703860283,-0.02587541751563549,-1.2648561000823975,1023.3938,
2021.02.09 08:36:43,81.0,24.0,41.64,12.179999,-34.98,0.18914193,0.16759412,9.856929,-6.1086525E-4,0.0012217305,-0.0018325958,-0.01699790358543396,-0.01918637380003929,-1.2778637409210205,1023.3938,
2021.02.09 08:36:43,81.0,24.0,41.28,12.48,-35.1,0.35194764,0.23223756,9.65821,-0.009162978,0.002443461,-0.014660766,-0.02402503974735737,-0.03642414137721062,-1.2680819034576416,1023.3928,
2021.02.09 08:36:44,81.0,24.0,41.7,12.24,-34.86,0.17717093,0.17956513,9.864111,6.1086525E-4,0.005497787,-0.02443461,-0.01819893717765808,-0.0179592352360487,-1.275813341140747,1023.3928,
2021.02.09 08:36:44,81.0,24.0,41.76,12.42,-35.34,0.19871874,0.17477672,9.753978,0.007941248,6.1086525E-4,-0.017715093,-0.01791287213563919,-0.020370280370116234,-1.2729945182800293,1023.3928,
2021.02.09 08:36:44,81.0,24.0,42.12,12.42,-35.76,0.17477672,0.15083471,9.818622,0.018936822,0.0012217305,-0.016493361,-0.015358463861048222,-0.01779865473508835,-1.2765263319015503,1023.3928,
2021.02.09 08:36:44,81.0,24.0,42.719997,12.12,-35.88,0.22744916,0.21068975,9.65821,0.02076942,0.015271631,-0.012217305,-0.02180507406592369,-0.02354547381401062,-1.2833168506622314,1023.38086,
2021.02.09 08:36:44,81.0,24.0,42.719997,12.42,-36.059998,0.19153613,0.18674773,9.835381,-0.0018325958,-0.004276057,-0.023823744,-0.018981462344527245,-0.01947173662483692,-1.2780283689498901,1023.38086,
2021.02.09 08:36:44,81.0,24.0,42.719997,12.179999,-35.88,0.22026655,0.16759412,9.746795,0.029321533,6.1086525E-4,-0.0067195175,-0.01718871109187603,-0.02259502373635769,-1.285205364227295,1023.38086,
2021.02.09 08:36:44,81.0,24.0,42.18,12.36,-35.82,0.24181437,0.22266077,9.648633,0.008552114,0.014049901,-0.01282817,-0.023065587505698204,-0.025056790560483932,-1.274256706237793,1023.38086,
2021.02.09 08:36:44,81.0,24.0,42.12,12.3,-35.46,0.23223756,0.21787235,9.698911,-0.004276057,0.009162978,-0.019547688,-0.02245337888598442,-0.023940131068229675,-1.2754329442977905,1023.3784,
2021.02.09 08:36:44,81.0,24.0,42.12,12.059999,-34.92,0.15083471,0.15562311,9.919178,0.021991149,-0.0036651916,-0.017104227,-0.01568601280450821,-0.01520519983023405,-1.2835975885391235,1023.3784,
2021.02.09 08:36:44,81.0,24.0,42.059998,12.36,-34.98,0.25378537,0.22744916,9.526528,0.028099801,0.017715093,-0.012217305,-0.02386234886944294,-0.02663356065750122,-1.2735623121261597,1023.3784,
2021.02.09 08:36:44,81.0,24.0,42.239998,12.059999,-34.44,0.1436521,0.18195933,9.828198,-0.0018325958,-0.005497787,-0.023823744,-0.018509915098547935,-0.01461527869105339,-1.282299280166626,1023.3784,
2021.02.09 08:36:44,81.0,24.0,41.7,12.12,-34.14,0.22505496,0.25617957,9.64145,0.0030543262,0.017715093,-0.010995574,-0.02655716799199581,-0.023338202387094498,-1.2739369869232178,1023.39136,
2021.02.09 08:36:44,81.0,24.0,41.34,12.719999,-34.68,0.10534488,0.18914193,9.722853,-0.018325957,-0.0012217305,-0.017104227,-0.019449742510914803,-0.010834346525371075,-1.2603310346603394,1023.39136,
2021.02.09 08:36:44,81.0,24.0,41.28,13.139999,-34.92,0.17238252,0.19632454,9.691729,0.004886922,0.0036651916,-0.0018325958,-0.020250944420695305,-0.017784684896469116,-1.2519569396972656,1023.39136,
2021.02.09 08:36:44,81.0,24.0,41.219997,13.799999,-35.16,0.10295067,0.19632454,9.715671,0.0012217305,-0.010995574,0.0012217305,-0.020203113555908203,-0.01059595588594675,-1.2353637218475342,1023.39136,
2021.02.09 08:36:44,81.0,24.0,41.399998,13.98,-35.64,0.25139117,0.25139117,9.648633,-6.1086525E-4,-0.005497787,0.009162978,-0.026039863005280495,-0.026048695668578148,-1.2327568531036377,1023.3816,
2021.02.09 08:36:44,81.0,24.0,41.399998,13.5,-35.399998,0.12449849,0.19871874,9.773131,-0.010995574,-0.0061086523,-0.008552114,-0.020328719168901443,-0.012738163582980633,-1.243532419204712,1023.3816,
2021.02.09 08:36:44,81.0,24.0,41.579998,13.08,-35.28,0.09816227,0.21068975,9.722853,0.0018325958,0.0030543262,0.004886922,-0.021665045991539955,-0.010095693171024323,-1.2521811723709106,1023.3816,
2021.02.09 08:36:44,81.0,24.0,41.399998,12.719999,-35.219997,0.21068975,0.23223756,9.773131,-0.007330383,-0.0018325958,0.01160644,-0.02375287190079689,-0.021554721519351006,-1.2601534128189087,1023.3816,
2021.02.09 08:36:44,81.0,24.0,41.219997,12.9,-34.92,0.22505496,0.23223756,9.634268,-0.0030543262,0.005497787,0.008552114,-0.024094128981232643,-0.023355593904852867,-1.2553545236587524,1023.3772,
2021.02.09 08:36:44,81.0,24.0,41.399998,12.42,-34.8,0.15083471,0.20111294,9.842564,-0.03359759,-0.004276057,0.0030543262,-0.02042774297297001,-0.015323538333177567,-1.2676379680633545,1023.3772,
2021.02.09 08:36:44,81.0,24.0,41.28,12.3,-34.68,0.14604631,0.22266077,9.85214,0.0067195175,-0.015882496,0.010995574,-0.022593913599848747,-0.014822728931903839,-1.2677539587020874,1023.3772,
2021.02.09 08:36:44,81.0,24.0,41.52,12.36,-34.92,0.19632454,0.23463176,9.56723,0.016493361,0.007330383,0.01160644,-0.024514449760317802,-0.020517639815807343,-1.2680186033248901,1023.3772,
2021.02.09 08:36:44,81.0,24.0,41.579998,11.82,-35.16,0.15322891,0.16998832,9.844957,0.03176499,-0.004276057,0.017104227,-0.01726272888481617,-0.01556294597685337,-1.284197449684143,1023.38184,
2021.02.09 08:36:44,81.0,24.0,41.34,12.42,-35.04,0.24181437,0.2657564,9.734824,0.03604105,-0.007941248,0.016493361,-0.027284368872642517,-0.02483503147959709,-1.2645400762557983,1023.38184,
2021.02.09 08:36:45,81.0,24.0,41.399998,12.42,-34.5,0.21787235,0.22505496,9.749189,0.050701816,-0.01282817,0.015882496,-0.023074621334671974,-0.022344021126627922,-1.2675654888153076,1023.38184,
2021.02.09 08:36:45,81.0,24.0,41.64,12.24,-34.559998,0.19393034,0.260968,9.651027,0.06963864,-0.004886922,0.020158553,-0.02702839858829975,-0.020091567188501358,-1.269637107849121,1023.38184,
2021.02.09 08:36:45,81.0,24.0,41.7,12.179999,-34.32,0.21308395,0.2633622,9.595961,0.032986723,0.004276057,0.007330383,-0.027431463822722435,-0.022201940417289734,-1.2716716527938843,1023.3887,
2021.02.09 08:36:45,81.0,24.0,41.879997,12.0,-34.68,0.20590134,0.2896984,9.7084875,0.014660766,-0.005497787,0.010995574,-0.02982415072619915,-0.021205205470323563,-1.2746021747589111,1023.3887,
2021.02.09 08:36:45,81.0,24.0,41.879997,11.759999,-35.04,0.21068975,0.2825158,9.828198,0.028710667,-0.014049901,0.004276057,-0.02873091958463192,-0.021433988586068153,-1.2804309129714966,1023.3887,
2021.02.09 08:36:45,81.0,24.0,41.46,11.759999,-35.04,0.29448682,0.36870706,9.643845,0.03481932,-0.002443461,0.01160644,-0.03819597512483597,-0.03052676096558571,-1.2731468677520752,1023.3887,
2021.02.09 08:36:45,81.0,24.0,41.7,11.94,-35.64,0.23223756,0.35434186,9.68694,0.002443461,-0.008552114,-0.01160644,-0.036552540957927704,-0.023969702422618866,-1.2699873447418213,1023.3801,
2021.02.09 08:36:45,81.0,24.0,41.52,12.059999,-35.52,0.19632454,0.35673606,9.763555,-6.1086525E-4,0.004276057,-0.008552114,-0.03651390224695206,-0.020105186849832535,-1.2652732133865356,1023.3801,
2021.02.09 08:36:45,81.0,24.0,41.52,12.3,-35.579998,0.19871874,0.31364042,9.873688,0.030543262,-0.005497787,-0.0030543262,-0.031748175621032715,-0.020123373717069626,-1.2635947465896606,1023.3801,
2021.02.09 08:36:45,81.0,24.0,41.94,12.3,-35.64,0.272939,0.36152446,9.576807,0.0421497,0.0061086523,0.0,-0.037716783583164215,-0.028492286801338196,-1.2642802000045776,1023.3801,
2021.02.09 08:36:45,81.0,24.0,41.879997,12.3,-35.399998,0.11731588,0.36391866,9.579201,0.009162978,0.007941248,-0.012217305,-0.03796939551830292,-0.012246325612068176,-1.259463906288147,1023.37915,
2021.02.09 08:36:45,81.0,24.0,42.239998,12.3,-35.88,0.22984336,0.36870706,9.837775,0.010995574,0.007941248,0.009773844,-0.03745095804333687,-0.02335909754037857,-1.2649693489074707,1023.37915,
2021.02.09 08:36:45,81.0,24.0,42.12,12.3,-36.3,0.24420857,0.39983168,9.80665,0.049480084,0.01282817,0.01038471,-0.04073629900813103,-0.024897199124097824,-1.2619044780731201,1023.37915,
2021.02.09 08:36:45,81.0,24.0,41.82,12.48,-36.18,0.20590134,0.39983168,9.576807,0.039095376,0.03604105,0.014660766,-0.041716136038303375,-0.021496687084436417,-1.2544623613357544,1023.37915,
2021.02.09 08:36:45,81.0,24.0,41.579998,12.36,-36.12,0.20829555,0.39983168,9.909601,0.023823744,0.019547688,-0.0012217305,-0.04031714051961899,-0.021016472950577736,-1.256285309791565,1023.39233,
2021.02.09 08:36:45,81.0,24.0,41.16,11.94,-35.82,0.1412579,0.4333505,9.533711,0.0720821,0.03848451,-0.0036651916,-0.04541829973459244,-0.014815590344369411,-1.2570385932922363,1023.39233,
2021.02.09 08:36:45,81.0,24.0,41.34,11.94,-35.7,0.16519992,0.47165772,9.533711,0.02687807,0.025045475,-6.1086525E-4,-0.0494249127805233,-0.017326241359114647,-1.2561544179916382,1023.39233,
2021.02.09 08:36:45,81.0,24.0,41.1,11.759999,-35.579998,0.14844051,0.46208093,9.866506,0.009162978,0.020158553,-0.004886922,-0.04679380729794502,-0.015043756924569607,-1.2597746849060059,1023.39233,
2021.02.09 08:36:45,81.0,24.0,41.579998,11.58,-35.52,0.06464344,0.46208093,9.710882,0.03970624,0.02321288,0.005497787,-0.047546904534101486,-0.006656705867499113,-1.2641119956970215,1023.39087,
2021.02.09 08:36:45,81.0,24.0,42.0,11.82,-35.399998,0.12689269,0.50278234,9.595961,0.04886922,0.015271631,0.017104227,-0.052342772483825684,-0.01322278194129467,-1.2602802515029907,1023.39087,
2021.02.09 08:36:45,81.0,24.0,41.879997,11.34,-35.219997,0.20111294,0.51475334,9.516952,0.019547688,0.020158553,0.010995574,-0.05402335897088051,-0.021128930151462555,-1.2709089517593384,1023.39087,
2021.02.09 08:36:45,81.0,24.0,42.0,11.58,-35.82,0.22026655,0.5291186,9.718064,6.1086525E-4,-0.0018325958,0.008552114,-0.05437926948070526,-0.022661801427602768,-1.2661609649658203,1023.39087,
2021.02.09 08:36:45,81.0,24.0,41.82,11.7,-35.88,0.22505496,0.51235914,9.598354,0.0036651916,0.0012217305,-0.005497787,-0.053314656019210815,-0.02344295009970665,-1.2633330821990967,1023.37915,
2021.02.09 08:36:45,81.0,24.0,41.52,11.46,-36.0,0.055066638,0.49799395,9.710882,0.0,0.0036651916,-0.004886922,-0.0512363463640213,-0.005670550744980574,-1.262723445892334,1023.37915,
2021.02.09 08:36:45,81.0,24.0,41.64,12.24,-36.3,0.1340753,0.51235914,9.696517,-0.0061086523,-0.01160644,-0.0030543262,-0.05278537794947624,-0.013826279900968075,-1.2477296590805054,1023.37915,
2021.02.09 08:36:46,81.0,24.0,41.7,11.94,-36.18,0.19393034,0.5243302,9.706094,0.02565634,0.002443461,0.0012217305,-0.053957514464855194,-0.01997760869562626,-1.255629539489746,1023.37915,
2021.02.09 08:36:46,81.0,24.0,41.46,12.059999,-36.66,0.18195933,0.5267244,9.574412,-0.015882496,-0.013439035,-0.013439035,-0.05494845286011696,-0.019002465531229973,-1.2498602867126465,1023.3716,
2021.02.09 08:36:46,81.0,24.0,41.82,12.36,-36.78,0.08619126,0.46208093,9.799467,0.023823744,-0.009162978,0.0036651916,-0.0471169576048851,-0.008795277215540409,-1.2487484216690063,1023.3716,
2021.02.09 08:36:46,81.0,24.0,41.399998,11.759999,-36.42,0.20350714,0.5530606,9.473856,-0.0067195175,0.0030543262,-0.0036651916,-0.058297961950302124,-0.02147761732339859,-1.2543432712554932,1023.3716,
2021.02.09 08:36:46,81.0,24.0,41.7,11.7,-35.94,0.11252748,0.47165772,9.722853,-0.032986723,0.004276057,-0.01282817,-0.04846898093819618,-0.011572987772524357,-1.2626482248306274,1023.3716,
2021.02.09 08:36:46,81.0,24.0,42.059998,11.5199995,-35.16,0.10534488,0.49799395,9.80665,-0.0061086523,-0.007941248,-0.004886922,-0.050734743475914,-0.01074177399277687,-1.267820954322815,1023.3799,
2021.02.09 08:36:46,81.0,24.0,41.7,11.4,-35.1,0.06943185,0.50038815,9.598354,0.010995574,0.0061086523,0.007330383,-0.05208418890833855,-0.00723359826952219,-1.2660479545593262,1023.3799,
2021.02.09 08:36:46,81.0,24.0,42.18,11.82,-35.28,0.19632454,0.51954174,9.605537,-0.020158553,-0.004276057,0.0061086523,-0.05402381718158722,-0.020435839891433716,-1.2624608278274536,1023.3799,
2021.02.09 08:36:46,81.0,24.0,41.579998,11.94,-35.64,0.15801731,0.50757074,9.715671,-0.008552114,0.016493361,-6.1086525E-4,-0.05218813940882683,-0.016262734308838844,-1.2555501461029053,1023.3799,
2021.02.09 08:36:46,81.0,24.0,41.399998,12.3,-35.94,0.076614454,0.46208093,9.629479,-0.015271631,0.01282817,0.0012217305,-0.047947779297828674,-0.007956072688102722,-1.2469371557235718,1023.3782,
2021.02.09 08:36:46,81.0,24.0,41.64,12.24,-35.7,0.07182605,0.521936,9.617508,-0.017104227,0.009773844,0.010995574,-0.05421467125415802,-0.007468120660632849,-1.2453745603561401,1023.3782,
2021.02.09 08:36:46,81.0,24.0,41.399998,12.0,-35.7,0.22026655,0.50996494,9.713276,-0.014049901,0.0036651916,0.0030543262,-0.052440229803323746,-0.022672969847917557,-1.254625916481018,1023.3782,
2021.02.09 08:36:46,81.0,24.0,41.7,12.0,-35.399998,0.08140286,0.4381389,9.792285,0.010995574,0.004886922,0.009162978,-0.04471191391348839,-0.008312767371535301,-1.258567452430725,1023.3782,
2021.02.09 08:36:46,81.0,24.0,41.76,11.58,-35.219997,0.20829555,0.50517654,9.44752,0.0012217305,0.017104227,0.01038471,-0.05340803787112236,-0.022044071927666664,-1.265672206878662,1023.3882,
2021.02.09 08:36:46,81.0,24.0,41.579998,11.7,-35.52,0.110133275,0.46686932,9.751583,-0.028099801,0.017715093,-0.0018325958,-0.04783668369054794,-0.011293405666947365,-1.2626185417175293,1023.3882,
2021.02.09 08:36:46,81.0,24.0,41.76,11.94,-35.219997,0.0,0.48602295,9.763555,-0.013439035,0.032375857,0.007941248,-0.04973824694752693,1.0E-6,-1.2543072700500488,1023.3882,
2021.02.09 08:36:46,81.0,24.0,41.64,12.059999,-35.34,0.050278235,0.45010993,9.837775,0.004886922,0.014660766,0.01160644,-0.04572074115276337,-0.005110688041895628,-1.25523841381073,1023.3882,
2021.02.09 08:36:46,81.0,24.0,41.7,12.0,-35.46,0.20350714,0.47405192,9.325416,0.04520403,0.026267206,0.027488936,-0.05077861249446869,-0.02181938663125038,-1.2579058408737183,1023.38745,
2021.02.09 08:36:46,81.0,24.0,41.82,11.88,-35.219997,0.059855044,0.4333505,9.7803135,-0.02076942,0.019547688,0.015882496,-0.04427865892648697,-0.0061198752373456955,-1.2618519067764282,1023.38745,
2021.02.09 08:36:46,81.0,24.0,41.82,11.82,-35.46,0.079008654,0.5363012,9.715671,-0.007330383,0.0421497,0.0030543262,-0.05514182895421982,-0.00813190545886755,-1.2554306983947754,1023.38745,
2021.02.09 08:36:46,81.0,24.0,42.059998,11.759999,-35.46,0.04070143,0.49559975,9.667787,0.025045475,0.02443461,0.0018325958,-0.051217712461948395,-0.0042099799029529095,-1.2601474523544312,1023.38745,
2021.02.09 08:36:46,81.0,24.0,41.76,12.179999,-35.52,0.16280572,0.45489833,9.181764,0.0067195175,0.08124508,0.007941248,-0.049495432525873184,-0.017729563638567924,-1.2541972398757935,1023.3889,
2021.02.09 08:36:46,81.0,24.0,42.0,12.48,-35.88,-0.050278235,0.47165772,10.041282,-0.056199603,0.009773844,-0.0061086523,-0.04693678021430969,0.005007111467421055,-1.2443264722824097,1023.3889,
2021.02.09 08:36:46,81.0,24.0,41.879997,12.3,-35.82,-0.035913024,0.51714754,9.7084875,0.025045475,0.0061086523,0.014660766,-0.05321691185235977,0.0036991199012845755,-1.2430129051208496,1023.3889,
2021.02.09 08:36:46,81.0,24.0,41.28,12.48,-35.579998,0.10534488,0.49320555,9.607931,0.014049901,0.008552114,0.007941248,-0.05128507316112518,-0.0109639260917902,-1.240967869758606,1023.3889,
2021.02.09 08:36:47,81.0,24.0,41.64,11.94,-35.16,-0.01436521,0.44771573,9.576807,-0.0067195175,0.005497787,0.0030543262,-0.04671593755483627,0.0014999988488852978,-1.2553473711013794,1023.3862,
2021.02.09 08:36:47,81.0,24.0,41.579998,11.759999,-34.92,0.031124622,0.5267244,9.634268,-0.010995574,0.0,0.0030543262,-0.05461731180548668,-0.0032306050416082144,-1.2545846700668335,1023.3862,
2021.02.09 08:36:47,81.0,24.0,41.46,11.82,-34.92,-0.011971008,0.50278234,9.727641,-0.0036651916,0.004276057,0.0030543262,-0.05163995921611786,0.0012306171702221036,-1.253317952156067,1023.3862,
2021.02.09 08:36:47,81.0,24.0,42.42,11.639999,-35.219997,0.050278235,0.533907,9.665392,0.01160644,-0.01282817,-0.0018325958,-0.05518221855163574,-0.00520183565095067,-1.2628024816513062,1023.3862,
2021.02.09 08:36:47,81.0,24.0,42.3,12.0,-35.34,0.009576807,0.5291186,9.6845455,-0.0012217305,-0.008552114,-0.0036651916,-0.05458106845617294,-9.88874933682382E-4,-1.2533857822418213,1023.3916,
2021.02.09 08:36:47,81.0,24.0,42.239998,11.7,-35.52,0.06464344,0.51235914,9.7803135,0.02565634,-0.013439035,-6.1086525E-4,-0.05233779177069664,-0.006609450560063124,-1.262463092803955,1023.3916,
2021.02.09 08:36:47,81.0,24.0,42.36,11.82,-35.76,0.007182605,0.51475334,9.583989,0.032375857,-0.0012217305,0.0012217305,-0.053658150136470795,-7.494377787224948E-4,-1.2577711343765259,1023.3916,
2021.02.09 08:36:47,81.0,24.0,41.94,12.0,-35.82,0.0023942017,0.51475334,9.619903,-0.014660766,-0.008552114,6.1086525E-4,-0.05345822125673294,-2.4888000916689634E-4,-1.250907301902771,1023.3916,
2021.02.09 08:36:47,81.0,24.0,41.94,12.12,-35.94,0.045489833,0.51954174,9.725247,0.015271631,0.0030543262,0.002443461,-0.0533706396818161,-0.004677464719861746,-1.2496100664138794,1023.3867,
2021.02.09 08:36:47,81.0,24.0,42.059998,12.36,-35.399998,0.06464344,0.5243302,9.603143,0.014049901,-0.007941248,-0.01038471,-0.05454446002840996,-0.006731386762112379,-1.245710015296936,1023.3867,
2021.02.09 08:36:47,81.0,24.0,41.879997,12.0,-35.579998,0.08379706,0.5267244,9.440337,-0.01282817,0.01038471,-0.0036651916,-0.05573510378599167,-0.0088762566447258,-1.2516525983810425,1023.3867,
2021.02.09 08:36:47,81.0,24.0,41.82,11.639999,-35.16,0.02633622,0.50278234,9.80665,-0.040927973,-0.007941248,-0.014660766,-0.051224492490291595,-0.0026855405885726213,-1.2609490156173706,1023.3867,
2021.02.09 08:36:47,81.0,24.0,42.18,11.58,-35.1,0.033518825,0.5506664,9.677363,0.009773844,0.008552114,-0.0012217305,-0.05684088543057442,-0.003463617991656065,-1.2608659267425537,1023.396,
2021.02.09 08:36:47,81.0,24.0,42.059998,11.46,-35.399998,-0.09816227,0.50996494,9.56723,-0.019547688,-0.004886922,-0.0061086523,-0.05325010046362877,0.010259900242090225,-1.2609081268310547,1023.396,
2021.02.09 08:36:47,81.0,24.0,42.239998,11.639999,-34.86,-0.009576807,0.5315128,9.725247,0.004886922,-0.018325957,0.014660766,-0.05459853634238243,9.84736136160791E-4,-1.2606319189071655,1023.396,
2021.02.09 08:36:47,81.0,24.0,42.059998,12.0,-34.98,0.110133275,0.5482722,9.674969,0.009773844,-0.026267206,0.004886922,-0.056604936718940735,-0.011382829397916794,-1.2537009716033936,1023.396,
2021.02.09 08:36:47,81.0,24.0,41.7,12.0,-35.1,0.19871874,0.521936,9.476251,0.015271631,6.1086525E-4,-0.0061086523,-0.055010661482810974,-0.020967112854123116,-1.2549755573272705,1023.39795,
2021.02.09 08:36:47,81.0,24.0,41.879997,12.0,-34.86,0.10534488,0.51475334,9.5385,-0.035430185,0.0012217305,-0.03604105,-0.053910281509160995,-0.011043727397918701,-1.254412055015564,1023.39795,
2021.02.09 08:36:47,81.0,24.0,41.879997,11.82,-35.34,0.019153614,0.5291186,9.634268,-0.04520403,0.019547688,-0.04337143,-0.05486525595188141,-0.0019880689214915037,-1.2543710470199585,1023.39795,
2021.02.09 08:36:47,81.0,24.0,42.12,12.0,-35.579998,-0.023942016,0.48602295,9.7563715,-0.06414085,0.0012217305,-0.044593163,-0.0497746542096138,0.0024539828300476074,-1.2544153928756714,1023.39795,
2021.02.09 08:36:47,81.0,24.0,42.0,11.82,-35.34,-0.045489833,0.41180268,9.624691,-0.031154128,6.1086525E-4,-0.026267206,-0.04275951161980629,0.004726333077996969,-1.2623531818389893,1023.39746,
2021.02.09 08:36:47,81.0,24.0,41.52,11.759999,-35.34,0.047884032,0.44532153,9.682152,-0.03359759,-0.013439035,-0.018936822,-0.04596111178398132,-0.004945558030158281,-1.2606658935546875,1023.39746,
2021.02.09 08:36:47,81.0,24.0,41.7,12.059999,-35.219997,0.110133275,0.46208093,9.691729,-0.03604105,0.015271631,-0.021991149,-0.04763871431350708,-0.011363147757947445,-1.2561529874801636,1023.39746,
2021.02.09 08:36:47,81.0,24.0,41.64,11.759999,-35.34,-0.0047884034,0.4381389,9.763555,-0.018325957,0.012217305,-0.029932396,-0.0448448471724987,4.90436446852982E-4,-1.2607855796813965,1023.39746,
2021.02.09 08:36:47,81.0,24.0,41.52,12.12,-35.52,-0.045489833,0.40701428,9.61272,0.01038471,0.014660766,-0.01282817,-0.04231547564268112,0.004732219036668539,-1.2526144981384277,1023.39795,
2021.02.09 08:36:48,81.0,24.0,41.76,12.179999,-35.76,-0.10055647,0.4309563,9.651027,-0.0030543262,0.008552114,0.0030543262,-0.044621869921684265,0.010418874211609364,-1.2493221759796143,1023.39795,
2021.02.09 08:36:48,81.0,24.0,41.28,12.179999,-35.579998,0.02873042,0.47405192,9.674969,0.002443461,0.007941248,0.01038471,-0.04895840585231781,-0.002969553228467703,-1.2467535734176636,1023.39795,
2021.02.09 08:36:48,81.0,24.0,41.76,12.36,-35.1,0.009576807,0.46686932,9.7803135,0.02687807,0.0012217305,0.02565634,-0.04769938439130783,-9.79191972874105E-4,-1.2471916675567627,1023.39795,
2021.02.09 08:36:48,81.0,24.0,42.0,12.36,-34.98,0.007182605,0.44532153,9.483433,0.0018325958,0.009773844,0.018325957,-0.04692336171865463,-7.573844050057232E-4,-1.2495415210723877,1023.39453,
2021.02.09 08:36:48,81.0,24.0,42.239998,12.3,-34.92,0.05746084,0.4333505,9.734824,6.1086525E-4,-0.012217305,0.027488936,-0.04448535293340683,-0.005902538076043129,-1.2558212280273438,1023.39453,
2021.02.09 08:36:48,81.0,24.0,42.18,12.66,-35.1,0.12689269,0.48841715,9.519346,-0.007941248,0.008552114,0.017104227,-0.051258351653814316,-0.013329190202057362,-1.2448710203170776,1023.39453,
2021.02.09 08:36:48,81.0,24.0,42.059998,12.719999,-34.98,0.009576807,0.4285621,9.583989,-0.040927973,0.01160644,0.009162978,-0.04468667507171631,-9.99250216409564E-4,-1.2440000772476196,1023.39453,
2021.02.09 08:36:48,81.0,24.0,42.0,12.9,-35.28,0.079008654,0.45489833,9.593566,-0.043982297,0.012217305,0.021380283,-0.047379929572343826,-0.008235401473939419,-1.2396337985992432,1023.396,
2021.02.09 08:36:48,81.0,24.0,42.0,12.96,-34.86,0.11971009,0.45010993,9.64145,-0.0580322,0.007941248,0.010995574,-0.04664742201566696,-0.012415553443133831,-1.2405047416687012,1023.396,
2021.02.09 08:36:48,81.0,24.0,42.54,12.96,-34.5,0.12689269,0.4381389,9.674969,-0.05375614,0.021991149,0.014660766,-0.045251015573740005,-0.013114813715219498,-1.2458587884902954,1023.396,
2021.02.09 08:36:48,81.0,24.0,42.6,12.78,-34.38,-0.15083471,0.36870706,9.370906,-0.09162979,-0.0018325958,0.015271631,-0.03932056203484535,0.016094675287604332,-1.2461656332015991,1023.396,
2021.02.09 08:36:48,81.0,24.0,42.54,12.54,-34.38,0.36870706,0.51475334,10.905589,0.004886922,0.03359759,0.014049901,-0.04713897407054901,-0.033796124160289764,-1.259003758430481,1023.3838,
