Time,X-cord,Y-cord,Mag_x,Mag_y,Mag_z,Acc_x,Acc_y,Acc_z,Gyro_x,Gyro_y,Gyro_z,Orn_x,Orn_y,Orn_z,Pressure,
2021.02.07 16:58:43,46.0,24.0,26.82,3.6,-30.72,-0.749408,0.9313729,9.574705,0.15615731,0.10552941,-0.032620206,-0.09667540341615677,0.07811032235622406,-1.3006131649017334,1011.676,
2021.02.07 16:58:43,46.0,24.0,27.18,3.4199998,-30.359999,-0.54350036,0.86912173,9.651321,0.14088568,-0.049019493,-0.031398475,-0.08966854959726334,0.056254152208566666,-1.3295224905014038,1011.676,
2021.02.07 16:58:43,46.0,24.0,27.42,2.8799999,-30.48,-0.45251793,0.94095,9.651321,0.041925516,-0.11071688,-0.0045204028,-0.09708128869533539,0.046852316707372665,-1.3457993268966675,1011.6843,
2021.02.07 16:58:43,46.0,24.0,27.42,2.9399998,-30.24,-0.14126222,0.67757976,10.118205,-0.10346041,-0.10888428,0.0376293,-0.06686006486415863,0.013960286974906921,-1.3884004354476929,1011.6714,
2021.02.07 16:58:43,46.0,24.0,27.24,2.82,-30.48,-0.70870537,1.1253091,9.802161,-0.07230629,-0.052684683,-0.021013765,-0.11400673538446426,0.07217533886432648,-1.316763997077942,1011.6714,
2021.02.07 16:58:43,46.0,24.0,26.58,2.8799999,-30.539999,-0.3040729,0.66800267,9.93624,-0.032600045,-0.055128142,9.773844E-4,-0.06709659099578857,0.030592860653996468,-1.379109501838684,1011.6655,
2021.02.07 16:58:43,46.0,24.0,26.699999,2.82,-30.66,-0.17238778,0.7781393,9.8548355,0.017490905,-0.029471803,-0.03567453,-0.07878465950489044,0.017490927129983902,-1.3723444938659668,1011.6655,
2021.02.07 16:58:43,46.0,24.0,26.699999,2.8799999,-31.26,-0.10055954,0.8930645,10.395941,-0.040541295,-0.00564806,-0.021013765,-0.08569073677062988,0.009672660380601883,-1.3629485368728638,1011.6682,
2021.02.07 16:58:43,46.0,24.0,26.519999,2.9399998,-31.5,-0.07901107,0.87630457,9.885961,0.0016084082,-0.0032045993,-0.037507124,-0.08840744197368622,0.00799208041280508,-1.3560796976089478,1011.65967,
2021.02.07 16:58:43,46.0,24.0,26.699999,2.7,-31.8,-0.2777359,0.7541966,9.787795,0.017490905,-1.5027284E-4,-0.027733281,-0.07687201350927353,0.02836812473833561,-1.3721380233764648,1011.65967,
2021.02.07 16:58:43,46.0,24.0,26.46,2.6399999,-32.16,-0.30886146,0.86912173,9.955395,-0.039319564,0.035890777,-0.049113568,-0.08703913539648056,0.031014584004878998,-1.3581234216690063,1011.657,
2021.02.07 16:58:44,46.0,24.0,26.46,2.46,-32.579998,-0.2083019,0.888276,10.048771,-0.07658234,-0.014200173,-0.03933972,-0.08814847469329834,0.020726125687360764,-1.3655637502670288,1011.657,
2021.02.07 16:58:44,46.0,24.0,26.82,2.22,-32.579998,-0.3974496,0.7948992,10.055954,3.866777E-4,0.021840876,-0.016737707,-0.0788223072886467,0.039503250271081924,-1.3825606107711792,1011.6675,
2021.02.07 16:58:44,46.0,24.0,26.58,2.7,-32.219997,-0.3304099,0.7805336,9.943423,-0.014884953,-1.5027284E-4,0.0034208454,-0.0782938003540039,0.03321676701307297,-1.366607427597046,1011.67554,
2021.02.07 16:58:44,46.0,24.0,26.76,3.06,-32.04,-0.15323359,0.7134939,9.998491,-2.2418753E-4,-0.008702386,0.008918633,-0.07123105973005295,0.015324471518397331,-1.3694394826889038,1011.67554,
2021.02.07 16:58:44,46.0,24.0,26.4,3.48,-31.38,-0.26337022,0.7326481,9.838076,0.0064953305,-0.0099241175,0.0113620935,-0.0743069276213646,0.02676410786807537,-1.3456597328186035,1011.6709,
2021.02.07 16:58:44,46.0,24.0,25.8,3.78,-31.38,-0.2681588,0.7589851,10.060742,-0.013052357,-1.5027284E-4,0.010751229,-0.07527101039886475,0.026647668331861496,-1.3280348777770996,1011.6677,
2021.02.07 16:58:44,46.0,24.0,25.859999,3.54,-31.38,-0.2849187,0.76137936,9.998491,-0.050926004,-0.0013720033,0.0034208454,-0.07597202062606812,0.028488459065556526,-1.3361198902130127,1011.6677,
2021.02.07 16:58:44,46.0,24.0,25.619999,3.8999999,-31.14,-0.3328042,0.7302538,9.953,0.013214848,0.0016823228,-0.006963864,-0.07319822907447815,0.03342512249946594,-1.3224871158599854,1011.667,
2021.02.07 16:58:44,46.0,24.0,26.039999,3.9599998,-31.38,-0.20111908,0.73743665,9.926663,0.0071061957,0.027949527,-0.007574729,-0.07413709908723831,0.020257720723748207,-1.3272168636322021,1011.667,
2021.02.07 16:58:44,46.0,24.0,26.34,4.2599998,-30.96,-0.3519584,0.7206767,9.869201,0.016269175,-1.5027284E-4,-0.008185594,-0.07284727692604065,0.0356471911072731,-1.3159905672073364,1011.6704,
2021.02.07 16:58:44,46.0,24.0,26.88,4.38,-31.019999,-0.29210153,0.7685622,10.015251,0.011993118,0.00718011,-0.011239921,-0.07655665278434753,0.029157407581806183,-1.3147022724151611,1011.6704,
2021.02.07 16:58:44,46.0,24.0,26.46,4.02,-30.96,-0.29210153,0.7589851,9.926663,0.009549656,0.009012706,-0.007574729,-0.07627788186073303,0.02941746450960636,-1.324292778968811,1011.6704,
2021.02.07 16:58:44,46.0,24.0,26.279999,3.72,-30.539999,-0.25858167,0.7326481,9.888355,0.013214848,0.00718011,-0.005742133,-0.07393169403076172,0.026144161820411682,-1.3388851881027222,1011.6731,
2021.02.07 16:58:44,46.0,24.0,26.099998,3.6,-30.48,-0.35435268,0.80208206,10.05356,0.003441004,0.010234436,-0.012461651,-0.07956307381391525,0.035231903195381165,-1.3322190046310425,1011.6731,
2021.02.07 16:58:44,46.0,24.0,25.859999,3.6,-30.06,-0.32083282,0.7541966,9.93624,0.008327926,0.0010714576,-0.005742133,-0.07571903616189957,0.03227794170379639,-1.3369537591934204,1011.6677,
2021.02.07 16:58:44,46.0,24.0,25.68,3.48,-30.179998,-0.2849187,0.74701375,9.976943,0.0022192732,0.0016823228,-0.005742133,-0.07470422238111496,0.028549954295158386,-1.3420220613479614,1011.6677,
2021.02.07 16:58:45,46.0,24.0,25.38,3.54,-30.179998,-0.38308397,0.75180227,9.974549,0.0016084082,0.005347514,-0.006352999,-0.07517459988594055,0.038387276232242584,-1.332932710647583,1011.67456,
2021.02.07 16:58:45,46.0,24.0,25.38,3.36,-30.539999,-0.26337022,0.7709565,9.962578,0.01565831,0.019397415,-0.0045204028,-0.07720445841550827,0.02642979472875595,-1.3406083583831787,1011.67676,
2021.02.07 16:58:45,46.0,24.0,25.68,3.24,-31.019999,-0.32801566,0.7685622,9.881172,0.0022192732,-0.00564806,3.6651915E-4,-0.07758161425590515,0.03318383917212486,-1.3434679508209229,1011.67676,
2021.02.07 16:58:45,46.0,24.0,26.519999,3.4199998,-31.32,-0.30646718,0.76616794,10.096657,-0.015495819,0.0059583797,-0.008185594,-0.0757034420967102,0.03034401498734951,-1.3461965322494507,1011.67773,
2021.02.07 16:58:45,46.0,24.0,26.88,3.72,-31.32,-0.3328042,0.81644773,9.909904,0.0193235,0.0016823228,0.0015882497,-0.08215530216693878,0.03357037529349327,-1.3295822143554688,1011.677,
2021.02.07 16:58:45,46.0,24.0,27.539999,3.78,-31.26,-0.24182175,0.75659084,10.005674,3.866777E-4,-0.0038154642,3.6651915E-4,-0.075450599193573,0.024163756519556046,-1.3441452980041504,1011.677,
2021.02.07 16:58:45,46.0,24.0,27.359999,3.84,-30.96,-0.33759275,0.7853221,9.943423,0.025432155,0.0077909757,3.6651915E-4,-0.07877025008201599,0.033938322216272354,-1.3343361616134644,1011.6826,
2021.02.07 16:58:45,46.0,24.0,27.24,3.84,-30.599998,-0.28731298,0.8332076,10.089474,0.014436578,0.0022931881,-0.005131268,-0.08236166834831238,0.028468815609812737,-1.3323380947113037,1011.6826,
2021.02.07 16:58:45,46.0,24.0,27.18,3.54,-30.779999,-0.2849187,0.7709565,9.931452,0.016269175,-0.0044263294,9.773844E-4,-0.07744067162275314,0.028680656105279922,-1.3474706411361694,1011.6741,
2021.02.07 16:58:45,46.0,24.0,26.939999,3.54,-30.72,-0.31365,0.7877164,9.924269,0.031540807,-0.007480656,0.0034208454,-0.07916732132434845,0.03159382566809654,-1.3427321910858154,1011.6741,
2021.02.07 16:58:45,46.0,24.0,26.64,3.48,-30.96,-0.3615355,0.81644773,9.993703,0.0052735996,0.006569245,0.004031711,-0.08146212995052338,0.03616056218743324,-1.3373408317565918,1011.67993,
2021.02.07 16:58:45,46.0,24.0,25.98,3.4199998,-31.14,-0.24900457,0.7877164,9.960183,-0.00633284,-0.0032045993,0.011972958,-0.07889771461486816,0.02499479241669178,-1.340225338935852,1011.6738,
2021.02.07 16:58:45,46.0,24.0,25.5,3.36,-31.92,-0.4189981,0.8044763,9.931452,0.01565831,-0.0044263294,0.0021991148,-0.08075489848852158,0.04216400161385536,-1.3267773389816284,1011.6738,
2021.02.07 16:58:45,46.0,24.0,25.26,3.3,-31.98,-0.339987,0.84278476,9.90272,0.0077170604,0.010234436,0.005253441,-0.08485204726457596,0.034319207072257996,-1.3245183229446411,1011.6699,
2021.02.07 16:58:45,46.0,24.0,25.26,2.82,-31.92,-0.23942748,0.8332076,9.921875,0.0016084082,0.0022931881,0.0058643064,-0.0837559923529625,0.02412659116089344,-1.3486229181289673,1011.6699,
2021.02.07 16:58:45,46.0,24.0,26.039999,3.0,-32.1,-0.30886146,0.7948992,9.974549,-0.008165436,-0.010534981,0.013805554,-0.07948674261569977,0.030955065041780472,-1.350642442703247,1011.6704,
2021.02.07 16:58:45,46.0,24.0,26.4,3.06,-31.38,-0.3328042,0.8284191,10.0368,-0.0057219747,4.605924E-4,0.0034208454,-0.08230645209550858,0.03314625099301338,-1.349584698677063,1011.6653,
2021.02.07 16:58:46,46.0,24.0,27.0,3.48,-31.32,-0.24900457,0.8044763,9.905115,0.0016084082,-0.0013720033,-0.0026878072,-0.08101490885019302,0.02513369359076023,-1.3436298370361328,1011.6653,
2021.02.07 16:58:46,46.0,24.0,26.88,3.84,-31.38,-0.29689008,0.82123625,9.964972,0.0052735996,-0.011145847,-0.0026878072,-0.08219017833471298,0.029784558340907097,-1.3263822793960571,1011.66016,
2021.02.07 16:58:46,46.0,24.0,26.64,3.54,-31.08,-0.28970724,0.7350424,9.828498,-0.0032785137,-0.011145847,-0.011850786,-0.07461559772491455,0.029467716813087463,-1.345073938369751,1011.66016,
2021.02.07 16:58:46,46.0,24.0,26.699999,3.3,-31.019999,-0.24421602,0.77574503,10.058349,0.0052735996,0.004736649,-0.008185594,-0.07694952934980392,0.0242751631885767,-1.3536081314086914,1011.66406,
2021.02.07 16:58:46,46.0,24.0,25.859999,3.1799998,-30.66,-0.28252444,0.82602483,9.979338,0.0046627345,-0.011756713,-0.009407325,-0.08255232125520706,0.02830338105559349,-1.3443162441253662,1011.6636,
2021.02.07 16:58:46,46.0,24.0,25.38,3.1799998,-29.939999,-0.34716985,0.80208206,10.075109,0.016269175,-1.5027284E-4,-0.008796459,-0.07939579337835312,0.03444454446434975,-1.3441146612167358,1011.6636,
2021.02.07 16:58:46,46.0,24.0,24.9,3.6,-30.0,-0.31604427,0.8140534,9.828498,0.0077170604,-0.007480656,-8.5521134E-4,-0.08259470760822296,0.032144829630851746,-1.3200523853302002,1011.6592,
2021.02.07 16:58:46,46.0,24.0,24.6,4.5,-29.46,-0.28013015,0.81644773,10.034406,0.022988692,0.006569245,-0.0045204028,-0.08115451037883759,0.027909714728593826,-1.2871699333190918,1011.65674,
2021.02.07 16:58:46,46.0,24.0,24.48,4.3199997,-29.34,-0.339987,0.82123625,9.852441,9.975429E-4,-0.0068697906,0.0046425755,-0.08311209827661514,0.03449421003460884,-1.2882286310195923,1011.65674,
2021.02.07 16:58:46,46.0,24.0,24.96,4.92,-29.4,-0.28013015,0.80687064,9.890749,0.009549656,0.0029040535,0.0034208454,-0.08136558532714844,0.028314871713519096,-1.2749929428100586,1011.6487,
2021.02.07 16:58:46,46.0,24.0,24.96,4.68,-28.8,-0.25858167,0.8332076,9.981731,-0.024047932,0.0022931881,0.0113620935,-0.08325238525867462,0.025899698957800865,-1.2850382328033447,1011.6487,
2021.02.07 16:58:46,46.0,24.0,24.72,4.02,-28.98,-0.2944958,0.81644773,9.914692,-0.01916101,-0.0019828686,0.0070860367,-0.08212582767009735,0.029694240540266037,-1.3069361448287964,1011.6516,
2021.02.07 16:58:46,46.0,24.0,24.72,4.2,-28.8,-0.3423813,0.7709565,9.933846,0.003441004,0.00718011,0.0021991148,-0.07740803062915802,0.03445249795913696,-1.3040807247161865,1011.6516,
2021.02.07 16:58:46,46.0,24.0,24.539999,3.9599998,-28.68,-0.17478207,0.81644773,10.046377,-0.017939279,0.011456167,0.004031711,-0.0810774490237236,0.01739576645195484,-1.314315676689148,1011.6516,
2021.02.07 16:58:46,46.0,24.0,24.42,3.9599998,-28.92,-0.26097596,0.7972935,9.873989,3.866777E-4,-0.009313252,0.0015882497,-0.08054403960704803,0.026424499228596687,-1.3094395399093628,1011.6526,
2021.02.07 16:58:46,46.0,24.0,24.6,4.14,-28.92,-0.31843856,0.81165916,10.125388,0.01688004,-0.0019828686,-0.005131268,-0.07995039224624634,0.031439151614904404,-1.3030022382736206,1011.6526,
2021.02.07 16:58:46,46.0,24.0,24.119999,4.3199997,-29.64,-0.31125572,0.8044763,9.885961,0.008327926,-0.00564806,-0.006352999,-0.08115667849779129,0.03147422522306442,-1.2866244316101074,1011.6643,
2021.02.07 16:58:47,46.0,24.0,24.06,4.2,-29.699999,-0.23463893,0.7781393,9.931452,0.019934366,0.0016823228,-0.007574729,-0.07816954702138901,0.0236214492470026,-1.2973241806030273,1011.6616,
2021.02.07 16:58:47,46.0,24.0,24.3,4.56,-29.64,-0.28731298,0.8044763,9.979338,-0.0075545707,-0.0062589254,-0.005742133,-0.08040707558393478,0.028782837092876434,-1.2812951803207397,1011.6616,
2021.02.07 16:58:47,46.0,24.0,24.24,4.68,-29.699999,-0.3423813,0.7853221,9.933846,-0.0045002443,0.005347514,-0.006963864,-0.07884449511766434,0.034452494233846664,-1.275062084197998,1011.6621,
2021.02.07 16:58:47,46.0,24.0,24.72,4.2,-29.099998,-0.23942748,0.7948992,10.0439825,-0.011830627,0.005347514,-0.005742133,-0.07895489037036896,0.023833388462662697,-1.3054295778274536,1011.6621,
2021.02.07 16:58:47,46.0,24.0,24.66,4.38,-28.859999,-0.3328042,0.7853221,9.943423,0.0046627345,4.605924E-4,-0.0014660766,-0.07877151668071747,0.03345729410648346,-1.2950317859649658,1011.6638,
2021.02.07 16:58:47,46.0,24.0,24.24,4.3199997,-28.74,-0.2657645,0.7829279,9.993703,-0.0032785137,-0.0038154642,-2.443461E-4,-0.07815492153167725,0.026586929336190224,-1.2966285943984985,1011.6638,
2021.02.07 16:58:47,46.0,24.0,24.18,4.44,-28.38,-0.28252444,0.80208206,9.967366,0.0016084082,0.01756482,-2.443461E-4,-0.08026569336652756,0.028337355703115463,-1.2893671989440918,1011.667,
2021.02.07 16:58:47,46.0,24.0,24.06,4.7999997,-28.26,-0.19393626,0.8044763,10.091868,-0.0026676485,-0.014200173,0.008307767,-0.07953246682882309,0.01921471580862999,-1.278848648071289,1011.6653,
2021.02.07 16:58:47,46.0,24.0,24.18,4.7999997,-28.439999,-0.31365,0.7996878,9.921875,0.0077170604,0.0010714576,-0.005742133,-0.08038461953401566,0.031601447612047195,-1.2735309600830078,1011.6653,
2021.02.07 16:58:47,46.0,24.0,24.24,4.56,-28.08,-0.2657645,0.75659084,9.907509,0.017490905,-0.0032045993,-0.0045204028,-0.07619016617536545,0.02681812271475792,-1.2915228605270386,1011.66943,
2021.02.07 16:58:47,46.0,24.0,23.939999,4.56,-28.32,-0.21309046,0.818842,10.032011,-2.2418753E-4,0.004125784,-0.006963864,-0.08142409473657608,0.02123785763978958,-1.2837036848068237,1011.66943,
2021.02.07 16:58:47,46.0,24.0,23.939999,4.5,-28.439999,-0.27294734,0.7853221,9.905115,3.866777E-4,-0.0062589254,-0.0020769418,-0.07908910512924194,0.027549227699637413,-1.2856979370117188,1011.66943,
2021.02.07 16:58:47,46.0,24.0,23.76,4.68,-28.439999,-0.28252444,0.7901107,9.967366,-0.006943705,0.004125784,-0.0045204028,-0.07907272130250931,0.028337355703115463,-1.2761143445968628,1011.666,
2021.02.07 16:58:47,46.0,24.0,24.06,4.7999997,-28.98,-0.28252444,0.7948992,10.034406,-0.0075545707,0.0029040535,0.0015882497,-0.07902108877897263,0.028148135170340538,-1.2732398509979248,1011.666,
2021.02.07 16:58:47,46.0,24.0,24.24,4.3199997,-28.74,-0.2681588,0.7853221,9.924269,0.019934366,-0.007480656,0.0064751715,-0.07893823832273483,0.027013937011361122,-1.295562505722046,1011.6614,
2021.02.07 16:58:47,46.0,24.0,24.0,4.62,-28.8,-0.2777359,0.8044763,9.996098,0.016269175,-0.009313252,0.004031711,-0.08027511835098267,0.027777284383773804,-1.27894926071167,1011.66406,
2021.02.07 16:58:48,46.0,24.0,23.88,4.2599998,-28.92,-0.24421602,0.8092649,9.818921,0.010771387,-1.5027284E-4,0.0034208454,-0.08220774680376053,0.024866854771971703,-1.2903772592544556,1011.66406,
2021.02.07 16:58:48,46.0,24.0,23.82,4.68,-28.32,-0.24900457,0.8643332,10.170879,0.010160522,0.0059583797,-0.0020769418,-0.08475220203399658,0.024477221071720123,-1.2724800109863281,1011.66895,
2021.02.07 16:58:48,46.0,24.0,23.82,4.98,-28.68,-0.2370332,0.84278476,9.871595,0.009549656,-0.010534981,0.0034208454,-0.08514378219842911,0.024007026106119156,-1.259174108505249,1011.66895,
2021.02.07 16:58:48,46.0,24.0,24.0,4.56,-28.74,-0.38787252,0.81644773,10.034406,0.026653882,-0.0025937338,-0.0039095376,-0.0811256691813469,0.038635026663541794,-1.275902271270752,1011.6748,
2021.02.07 16:58:48,46.0,24.0,24.18,4.5,-28.439999,-0.2849187,0.85236186,9.809344,0.0028301387,0.0022931881,-0.0014660766,-0.08663877844810486,0.02903747744858265,-1.2793188095092773,1011.6741,
2021.02.07 16:58:48,46.0,24.0,23.76,4.2,-28.68,-0.22506183,0.81165916,10.024829,-0.0075545707,-0.0019828686,-0.0020769418,-0.0807684063911438,0.02244667150080204,-1.2949094772338867,1011.6741,
2021.02.07 16:58:48,46.0,24.0,23.699999,4.2,-28.619999,-0.31125572,0.818842,9.869201,0.0064953305,-0.00564806,-2.443461E-4,-0.08273888379335403,0.03152763843536377,-1.2883960008621216,1011.67896,
2021.02.07 16:58:48,46.0,24.0,24.06,4.2599998,-28.68,-0.30167863,0.86193895,9.960183,-0.003889379,0.00718011,-8.5521134E-4,-0.08628402650356293,0.03027920611202717,-1.2863538265228271,1011.67896,
2021.02.07 16:58:48,46.0,24.0,24.42,3.78,-28.8,-0.2944958,0.8978531,10.000886,-0.013663223,0.00840184,-0.0032986724,-0.08949872106313705,0.02943846397101879,-1.305484652519226,1011.6821,
2021.02.07 16:58:48,46.0,24.0,24.539999,3.8999999,-28.92,-0.26097596,0.845179,9.948212,0.021766962,0.004736649,-0.0020769418,-0.08472535014152527,0.02622743882238865,-1.3083314895629883,1011.6821,
2021.02.07 16:58:48,46.0,24.0,24.96,3.6599998,-28.38,-0.28731298,0.8739103,9.938635,0.011993118,0.0016823228,3.6651915E-4,-0.08766859769821167,0.028900647535920143,-1.3195658922195435,1011.68384,
2021.02.07 16:58:48,46.0,24.0,25.38,3.6,-28.019999,-0.4166038,0.8571504,9.91948,-0.0032785137,0.015732223,-0.011239921,-0.08612115681171417,0.04197388142347336,-1.3242301940917969,1011.67505,
2021.02.07 16:58:48,46.0,24.0,24.84,4.62,-28.5,-0.22027329,0.8834874,9.967366,-0.008165436,0.013899628,-0.006963864,-0.08838547766208649,0.022095849737524986,-1.2829736471176147,1011.67505,
2021.02.07 16:58:48,46.0,24.0,25.26,4.38,-28.859999,-0.32083282,0.845179,9.804555,0.011382252,-0.008091521,-0.007574729,-0.08594433963298798,0.03271116316318512,-1.293747901916504,1011.6704,
2021.02.07 16:58:48,46.0,24.0,25.08,4.3199997,-29.099998,-0.34716985,0.8475733,10.048771,0.0016084082,0.0010714576,-0.006352999,-0.08409685641527176,0.034534752368927,-1.2945736646652222,1011.6704,
2021.02.07 16:58:48,46.0,24.0,24.0,4.68,-29.34,-0.3519584,0.88588166,9.871595,0.0016084082,0.0022931881,-0.005131268,-0.08944419771432877,0.03563855215907097,-1.2604522705078125,1011.6741,
2021.02.07 16:58:48,46.0,24.0,24.3,4.2,-29.46,-0.27294734,0.83081335,10.046377,-0.016106684,0.005347514,-0.0026878072,-0.08247976005077362,0.02716205082833767,-1.2942843437194824,1011.66895,
2021.02.07 16:58:49,46.0,24.0,23.76,4.14,-28.859999,-0.31125572,0.8475733,9.926663,0.010160522,0.0022931881,0.0034208454,-0.08513527363538742,0.03134525194764137,-1.2878752946853638,1011.66895,
2021.02.07 16:58:49,46.0,24.0,23.519999,4.5,-28.619999,-0.31843856,0.84278476,9.984126,0.0046627345,0.0022931881,0.004031711,-0.08417023718357086,0.03188367560505867,-1.2723188400268555,1011.6787,
2021.02.07 16:58:49,46.0,24.0,23.939999,4.3199997,-28.32,-0.26097596,0.84278476,9.91948,0.0016084082,0.005347514,0.0015882497,-0.08472985029220581,0.026303371414542198,-1.2873681783676147,1011.6787,
2021.02.07 16:58:49,46.0,24.0,23.88,4.3199997,-27.779999,-0.28970724,0.86193895,10.005674,0.0071061957,-0.0013720033,0.0015882497,-0.0858970433473587,0.028946207836270332,-1.2862801551818848,1011.67236,
2021.02.07 16:58:49,46.0,24.0,24.24,4.38,-28.14,-0.3423813,0.8643332,9.909904,-0.0020567833,4.605924E-4,-0.0045204028,-0.08694735914468765,0.03453567251563072,-1.283205509185791,1011.68677,
2021.02.07 16:58:49,46.0,24.0,23.88,3.9599998,-28.56,-0.3304099,0.85954463,9.964972,0.010160522,0.009012706,-0.006352999,-0.0859966054558754,0.0331449918448925,-1.295874834060669,1011.68677,
2021.02.07 16:58:49,46.0,24.0,23.82,4.2,-28.5,-0.28970724,0.89067024,10.022434,-0.023437068,-0.011145847,0.0015882497,-0.08859800547361374,0.028897829353809357,-1.284570574760437,1011.6841,
2021.02.07 16:58:49,46.0,24.0,23.58,4.14,-28.38,-0.36871833,0.80687064,9.842864,0.0046627345,0.0010714576,-0.0032986724,-0.08173523098230362,0.03744295984506607,-1.289015769958496,1011.6841,
2021.02.07 16:58:49,46.0,24.0,23.1,4.08,-28.32,-0.3232271,0.84039044,9.957788,-0.0075545707,0.006569245,-0.0026878072,-0.08415166288614273,0.032448336482048035,-1.285270094871521,1011.69165,
2021.02.07 16:58:49,46.0,24.0,23.519999,4.62,-28.32,-0.2657645,0.888276,9.950606,-0.0032785137,0.006569245,-2.443461E-4,-0.08900096267461777,0.026702025905251503,-1.2654024362564087,1011.69336,
2021.02.07 16:58:49,46.0,24.0,23.699999,4.38,-28.619999,-0.33759275,0.82602483,9.881172,-0.0032785137,-0.0038154642,0.0021991148,-0.08335350453853607,0.03415197134017944,-1.279302716255188,1011.69336,
2021.02.07 16:58:49,46.0,24.0,23.76,4.5,-29.279999,-0.43575802,0.81644773,10.156514,-0.038708698,0.006569245,-0.0039095376,-0.08014071732759476,0.04287799075245857,-1.2726600170135498,1011.68677,
2021.02.07 16:58:49,46.0,24.0,24.66,4.56,-29.58,-0.2777359,0.85236186,10.017646,-0.036265235,0.013288762,-0.0045204028,-0.08484914898872375,0.02771756611764431,-1.2809513807296753,1011.68677,
2021.02.07 16:58:49,46.0,24.0,25.08,4.68,-30.0,-0.32801566,0.77574503,9.941029,0.013825713,-0.011756713,-0.0045204028,-0.07783468067646027,0.0329841785132885,-1.2855063676834106,1011.68506,
2021.02.07 16:58:49,46.0,24.0,25.08,4.8599997,-30.119999,-0.32801566,0.80208206,9.945818,0.0077170604,-0.0032045993,-0.005131268,-0.08042746782302856,0.03296830877661705,-1.2752594947814941,1011.68335,
2021.02.07 16:58:49,46.0,24.0,25.199999,4.56,-29.46,-0.39266106,0.8739103,9.90272,0.0071061957,0.0267278,-0.016126843,-0.08795272558927536,0.03963107615709305,-1.2788851261138916,1011.68335,
2021.02.07 16:58:49,46.0,24.0,24.42,4.44,-28.98,-0.75659084,0.88588166,8.952193,0.003441004,0.037112508,-0.0045204028,-0.0982876867055893,0.08431421220302582,-1.2426263093948364,1011.688,
2021.02.07 16:58:50,46.0,24.0,23.76,4.2599998,-28.74,-0.08619389,1.063058,11.037607,-0.0057219747,-0.028250074,0.017470745,-0.09601329267024994,0.007808951195329428,-1.2811800241470337,1011.688,
