Time,Mag_x,Mag_y,Mag_z,Acc_x,Acc_y,Acc_z,Gyro_x,Gyro_y,Gyro_z,Orn_x,Orn_y,Orn_z,Pressure
2018.03.21 15:17:24,23.88,-3.96,-26.94,-0.13887,0.68955,9.72076,-0.02846,-0.191,0.13007,265.70068,-3.3602,-0.98277,-0.02846
2018.03.21 15:17:24,22.8,-3.84,-28.2,-0.11493,0.63688,9.63935,-0.0077,-0.00774,-0.0202,265.11792,-3.41113,-0.58243,-0.0077
2018.03.21 15:17:24,23.1,-3.42,-27.78,-0.34478,0.69434,9.44063,-0.04862,0.02403,0.01278,265.51917,-3.05694,-0.89008,-0.04862
2018.03.21 15:17:24,23.58,-2.82,-27.24,-0.77335,1.09418,9.71597,-0.09994,0.04113,-0.02204,265.65472,-3.53943,-1.37693,-0.09994
2018.03.21 15:17:24,23.22,-2.7,-27.06,-0.41182,1.36234,9.90751,-0.17446,0.05152,0.07204,265.92581,-4.04105,-2.49861,-0.17446
2018.03.21 15:17:24,23.64,-1.92,-26.58,-0.2945,1.20432,9.38795,-0.12681,0.06068,0.07265,265.94775,-4.7771,-3.24978,-0.12681
2018.03.21 15:17:24,23.22,-1.08,-27.06,-0.2945,1.38868,10.37439,-0.02174,-0.01995,0.04149,266.34113,-4.79882,-3.05547,-0.02174
2018.03.21 15:17:24,24,-1.02,-27.18,-0.14605,1.31206,10.12299,0.10409,-0.13724,0.05982,266.67215,-5.8681,-2.16125,0.10409
2018.03.21 15:17:24,21.96,-0.84,-27.24,0.3328,-0.90982,12.52206,-0.12742,-0.02179,-0.17048,268.23364,-4.4437,-1.67412,1005.3667
2018.03.21 15:17:25,22.32,1.56,-27.96,0.38308,-0.96729,8.46616,0.43518,0.19813,-0.12039,270.39432,-4.35778,-1.56505,1005.37183
2018.03.21 15:17:25,22.5,1.14,-27.9,0.30407,-0.04549,9.42865,-0.01869,-0.08715,-0.19369,272.16714,-3.61681,-0.81108,1005.37451
2018.03.21 15:17:25,20.52,3.12,-27.24,0.00239,0.21309,9.48372,0.03262,-0.05966,-0.18514,274.4277,-3.2164,-0.30689,0.03262
2018.03.21 15:17:25,20.64,2.94,-27.9,0.2107,0.61293,9.26824,-0.08039,0.01364,-0.18697,275.97278,-3.04658,-0.16904,-0.08039
2018.03.21 15:17:25,21.18,2.7,-29.22,0.13887,1.12052,9.52921,-0.12315,0.02525,-0.15582,277.2554,-3.10062,0.48312,-0.12315
2018.03.21 15:17:25,20.4,4.2,-28.02,-0.31365,1.51558,10.7048,0.02224,-0.04256,0.07082,277.742,-4.14095,0.33504,0.02224
2018.03.21 15:17:25,20.1,2.52,-28.62,0.56505,0.72786,11.52364,0.00086,-0.01446,0.27668,276.5506,-5.53619,0.64722,0.00086
2018.03.21 15:17:25,20.1,2.46,-28.98,-0.52435,-0.96489,9.96737,0.27391,0.02525,0.171,276.52454,-5.41573,0.8404,0.27391
2018.03.21 15:17:25,20.76,1.68,-28.86,-0.2107,-0.51716,8.97135,-0.10849,0.02769,-0.05563,275.98422,-5.33342,0.54923,-0.10849
2018.03.21 15:17:26,20.88,2.46,-28.02,0.11971,0.37351,8.86839,-0.03885,0.08023,0.10075,276.15247,-3.84124,-0.23753,-0.03885
2018.03.21 15:17:26,20.4,1.74,-28.08,-0.24661,0.70392,9.79019,-0.10421,-0.10914,0.02683,276.07596,-3.05862,-0.06585,-0.10421
2018.03.21 15:17:26,20.1,1.44,-28.32,-0.51716,1.17319,9.48851,-0.11887,0.05457,-0.00432,276.38647,-3.25498,-0.94489,-0.11887
2018.03.21 15:17:26,19.74,2.22,-28.08,0.00718,0.97686,10.27623,-0.01258,-0.04683,0.00851,276.6824,-3.85026,-1.36007,1005.39795
2018.03.21 15:17:26,18.54,2.04,-28.62,1.14686,0.93856,12.19404,0.06744,-0.12075,0.08059,277.08783,-4.47454,-0.63312,1005.39648
2018.03.21 15:17:26,17.7,2.64,-29.22,-0.45491,-1.06545,10.9562,-0.10055,-0.21848,-0.36962,279.43823,-3.91218,0.32261,1005.39917
2018.03.21 15:17:26,16.68,3,-28.68,0.11971,-0.84278,8.60263,0.12181,0.04419,-0.19491,281.10345,-3.23695,-0.03211,1005.40186
2018.03.21 15:17:26,16.8,3.66,-28.68,0.24182,0.64645,9.19162,0.03629,-0.03217,0.01584,281.54852,-2.01628,0.60396,0.03629
2018.03.21 15:17:26,16.32,2.46,-29.1,0.13887,0.8356,9.27063,-0.12681,0.00265,-0.18758,282.07983,-2.46637,0.64667,-0.12681
2018.03.21 15:17:26,15.24,3.6,-28.38,0.7542,0.98644,9.23951,0.09676,0.09245,0.00423,282.83347,-3.25646,0.50014,1005.40869
2018.03.21 15:17:27,14.1,3.36,-28.86,-0.02634,0.71349,11.26985,0.19145,0.00754,-0.06052,284.1496,-4.61126,0.69107,0.19145
2018.03.21 15:17:27,13.32,2.28,-27.9,0.79011,1.25221,11.7104,-0.02297,0.05274,0.32494,283.91306,-5.6486,1.2553,-0.02297
2018.03.21 15:17:27,12.66,1.74,-28.74,0.10295,-0.4597,9.96018,0.20916,-0.04866,0.18321,283.64413,-5.87095,1.77363,0.20916
2018.03.21 15:17:27,12.48,1.2,-28.14,-0.69913,-0.44294,8.83727,0.26414,0.12543,0.11785,283.42535,-6.1298,1.33684,0.26414
2018.03.21 15:17:27,12.24,1.44,-28.68,-0.24422,0.51237,9.16768,-0.06634,0.00448,0.11785,283.35233,-4.70286,0.53592,-0.06634
2018.03.21 15:17:27,12.24,1.62,-28.8,0.10774,1.05348,8.88037,-0.10116,-0.04622,0.06776,282.81491,-4.0901,0.11292,-0.10116
2018.03.21 15:17:27,11.52,2.46,-28.32,-0.34238,1.44854,9.65132,-0.23921,0.00937,0.03477,283.48587,-3.60944,-0.31914,-0.23921
2018.03.21 15:17:27,10.32,2.88,-28.08,-0.01915,1.47248,10.05117,-0.0584,-0.01507,0.05799,284.07211,-4.85242,-0.66365,-0.0584
2018.03.21 15:17:27,9.72,2.88,-29.34,0.06943,1.47487,10.35524,0.13586,-0.02728,0.11846,285.67542,-6.31688,-0.96782,0.13586
2018.03.21 15:17:28,9.54,2.64,-30,0.20351,-0.30168,11.55238,-0.24654,-0.10975,-0.05624,287.21259,-5.0566,0.18888,1005.39673
2018.03.21 15:17:28,8.7,3.72,-29.7,0.40224,-0.83321,9.07909,0.14502,0.25066,-0.21385,289.88049,-4.61306,-0.0843,1005.39209
2018.03.21 15:17:28,8.94,4.44,-30.36,0.14845,0.55068,8.76783,0.07905,0.10344,-0.1381,291.73364,-3.44662,0.48398,0.07905
2018.03.21 15:17:28,9.12,4.44,-30.18,0.10535,0.80208,8.69601,0.00941,0.10161,-0.10878,293.55508,-3.35025,-0.07015,0.00941
2018.03.21 15:17:28,9.06,4.5,-30.54,0.38548,1.13967,9.26105,0.01979,0.03502,-0.01898,295.32898,-3.73856,-0.2928,1005.38574
2018.03.21 15:17:28,8.22,5.82,-30.9,-0.55308,1.0439,11.02324,0.04973,-0.04011,0.00057,297.0582,-5.21013,0.10687,0.04973
2018.03.21 15:17:28,8.4,4.56,-30.84,1.03672,1.10855,12.05039,-0.10482,-0.10486,0.33837,296.62003,-6.14262,0.91338,-0.10482
2018.03.21 15:17:28,7.86,5.1,-32.1,-0.12929,-0.46688,10.00089,0.28491,0.05518,0.24491,297.93909,-5.93818,1.49502,0.28491
2018.03.21 15:17:28,8.52,4.74,-32.04,-0.69195,-0.25619,8.91389,0.0314,0.08023,-0.05563,299.37042,-5.64516,1.0733,0.0314
2018.03.21 15:17:29,8.64,5.58,-32.28,0.22506,0.7111,9.38556,-0.08222,-0.04317,0.09586,300.33008,-4.0034,0.54752,-0.08222
2018.03.21 15:17:29,9,5.34,-31.14,-0.13887,1.20911,9.3688,-0.11582,0.04724,-0.0764,301.20691,-3.95573,0.19609,-0.11582
2018.03.21 15:17:29,9,5.88,-31.92,-0.23943,1.45093,9.88117,-0.03946,0.0729,-0.16803,303.05197,-5.06031,-0.50206,-0.03946
2018.03.21 15:17:29,9.9,5.22,-32.34,-0.67758,1.5874,10.67607,0.08393,-0.02912,0.0757,305.16986,-6.30728,-1.7334,1005.40259
2018.03.21 15:17:29,10.2,5.1,-32.1,0.41421,0.45491,13.45343,-0.34245,-0.20566,0.11541,305.46408,-5.49014,-0.724,1005.4082
2018.03.21 15:17:29,10.02,5.82,-32.7,0.34717,-0.50998,9.00247,0.22932,-0.03828,-0.08557,306.12848,-6.0668,0.22313,1005.40967
2018.03.21 15:17:29,10.74,5.4,-32.58,0.02634,-0.08141,10.01046,-0.17324,0.02953,-0.17048,307.58173,-4.72487,-0.12872,1005.40967
2018.03.21 15:17:29,10.74,5.7,-31.62,0.40703,0.5842,9.05515,0.01124,0.03014,-0.18758,307.94293,-4.30327,0.16401,0.01124
2018.03.21 15:17:29,10.74,5.04,-31.98,0.31365,0.99123,9.13176,0.02651,0.10527,-0.07701,308.27353,-4.23953,0.68242,0.02651
2018.03.21 15:17:29,12,4.98,-30.48,0.15084,1.5874,10.22355,0.08393,0.05152,-0.03486,308.18314,-5.23101,0.52206,1005.40039
2018.03.21 15:17:30,11.82,4.08,-31.5,0.42858,1.57064,10.05835,0.2452,0.01548,0.20521,307.32932,-6.52021,0.56585,0.2452
2018.03.21 15:17:30,11.58,4.92,-31.8,0.18436,-0.03352,11.67209,-0.16163,0.00631,-0.10328,306.31024,-5.83716,1.05737,-0.16163
2018.03.21 15:17:30,12.72,3.3,-30.9,0.51716,0.77575,7.87716,0.12853,0.15231,0.16489,304.1261,-6.46463,0.79999,0.12853
2018.03.21 15:17:30,12.06,3.9,-30.48,-0.52195,0.09577,9.60104,-0.16652,0.04235,-0.20041,304.29196,-5.4124,0.34716,-0.16652
2018.03.21 15:17:30,12.24,4.02,-28.92,-0.0407,1.18995,8.44221,-0.00892,0.04358,0.12701,302.98956,-4.75446,-0.26584,-0.00892
2018.03.21 15:17:30,12.54,3.84,-28.62,-0.15084,1.34319,9.26345,-0.08039,-0.06516,0.04027,302.12335,-4.50076,-0.39592,-0.08039
2018.03.21 15:17:30,14.04,3.66,-29.88,-0.33759,1.35277,9.97455,0.03018,0.00448,0.01095,301.59091,-5.18126,-0.69784,0.03018
2018.03.21 15:17:30,13.14,3.24,-30.12,-0.34956,1.38389,11.61942,-0.06145,-0.21604,0.09953,300.9671,-5.73004,-1.12347,-0.06145
2018.03.21 15:17:30,12.72,3.9,-29.7,0.19872,-0.06943,10.76227,-0.16163,-0.08104,-0.07152,300.83636,-5.0572,-0.18155,-0.16163
2018.03.21 15:17:31,12.78,3.24,-30.12,0.0431,-0.65843,9.12219,0.19023,0.13093,-0.16315,301.30756,-4.25493,-0.23794,1005.3772
2018.03.21 15:17:31,12.48,4.5,-29.58,0.00718,0.24661,9.56273,0.06317,0.03564,0.00118,301.20737,-2.37283,-0.34031,1005.37329
2018.03.21 15:17:31,13.68,3.48,-30.18,0.24422,0.76377,8.866,0.00819,0.09,-0.13688,300.383,-2.53337,-0.53079,0.00819
2018.03.21 15:17:31,12.6,3.9,-29.4,0.28731,1.3815,9.15092,0.0259,0.08573,-0.04158,299.79651,-3.08857,-0.61044,1005.37378
2018.03.21 15:17:31,12.66,3.42,-29.58,-0.01676,1.40783,10.72635,0.01735,-0.00407,-0.09473,299.43527,-5.10176,0.26419,1005.37061
2018.03.21 15:17:31,12.36,2.22,-29.22,-0.00479,1.70233,10.69762,0.065,-0.08532,0.3622,297.93939,-6.43856,0.39481,0.065
2018.03.21 15:17:31,12.36,2.94,-29.22,-0.55308,-0.7925,9.94342,0.02102,-0.03461,0.00362,297.57251,-5.83781,0.44402,0.02102
2018.03.21 15:17:31,12.66,2.34,-29.34,-0.49322,-0.32323,8.70558,0.05828,0.03197,0.19726,296.34875,-3.35961,-0.4258,1005.36865
2018.03.21 15:17:31,12.06,2.82,-29.52,-0.09098,0.24182,9.79019,-0.10177,0.05579,0.14045,295.09091,-0.90967,-1.3159,-0.10177
2018.03.21 15:17:32,13.08,2.76,-29.22,-0.07901,0.8356,9.09585,-0.07978,0.08512,0.04638,293.49124,-1.21266,-1.54539,-0.07978
2018.03.21 15:17:32,12.78,3.18,-28.74,-0.45252,1.01278,9.68484,-0.1262,0.09122,-0.04769,293.05136,-1.67306,-1.77962,-0.1262
2018.03.21 15:17:32,12.42,3.12,-29.04,-0.15323,1.40065,9.89793,0.06683,-0.06821,-0.06174,292.9259,-3.60987,-1.86507,0.06683
2018.03.21 15:17:32,13.14,3,-29.76,0.11971,1.23784,10.78142,0.1493,-0.09814,-0.05441,293.23877,-5.32937,-1.46794,0.1493
2018.03.21 15:17:32,12.66,2.34,-29.22,-0.44534,-0.07662,10.9969,-0.07794,-0.03095,-0.04219,293.23373,-4.92503,-0.9182,-0.07794
2018.03.21 15:17:32,13.08,3,-29.34,0.80448,-0.67997,9.09106,0.23421,0.05213,-0.00188,292.96155,-2.596,-0.35499,0.23421
2018.03.21 15:17:32,13.44,3.36,-29.28,0.42858,0.25858,9.96497,0.02529,-0.11219,-0.0367,292.58957,-0.79629,0.83684,0.02529
2018.03.21 15:17:32,13.02,2.64,-28.56,0.17718,0.69673,8.4063,-0.05962,0.01731,-0.20713,292.13208,-1.75877,1.14805,-0.05962
2018.03.21 15:17:32,13.2,2.88,-29.82,0.2107,0.97208,9.56273,0.00391,-0.00041,-0.06541,292.13571,-2.23736,0.83974,1005.3689
2018.03.21 15:17:32,14.46,3.36,-28.98,0.15323,1.25221,10.2858,0.05767,-0.03645,-0.01654,291.65775,-3.84852,0.95403,1005.36426
2018.03.21 15:17:33,13.74,2.82,-28.86,0.52195,1.76219,10.44143,-0.14514,0.10222,0.19788,290.6741,-4.82915,0.94356,-0.14514
2018.03.21 15:17:33,14.76,3.9,-28.56,-0.15563,-0.21309,10.10863,0.08638,-0.05294,0.01095,291.00168,-4.31375,1.12704,0.08638
2018.03.21 15:17:33,15,3.42,-27.84,-1.03672,-0.16999,8.84445,0.24093,0.00326,0.07326,290.82037,-4.06812,0.6558,1005.36572
2018.03.21 15:17:33,15.78,4.2,-27.54,-0.52913,0.35196,9.48851,-0.07672,0.00998,0.0757,290.46283,-2.20048,-1.30829,-0.07672
2018.03.21 15:17:33,16.26,4.26,-26.76,0.13647,1.22108,9.23232,-0.08283,-0.03034,0.21987,289.13513,-2.57765,-1.56651,-0.08283
2018.03.21 15:17:33,16.98,4.5,-26.7,-0.17957,1.47487,9.54597,-0.13598,0.14498,0.07082,288.86731,-3.44961,-1.40832,-0.13598
2018.03.21 15:17:33,17.16,4.02,-27.42,-0.15084,1.06306,10.46298,0.16335,-0.07066,0.04516,288.84161,-5.14784,-1.00944,0.16335
2018.03.21 15:17:33,17.28,3.9,-26.22,0.67997,0.50998,11.20042,0.03812,-0.11403,0.11724,288.70065,-5.58356,-0.42253,0.03812
2018.03.21 15:17:33,17.16,5.58,-26.04,0.51956,-0.57941,10.56594,-0.12865,-0.09998,-0.18086,289.49713,-4.24592,0.43509,-0.12865
2018.03.21 15:17:34,19.2,5.94,-25.38,0.18436,-0.19394,8.86839,0.03629,0.07045,-0.37573,291.17712,-4.19462,0.34915,0.03629
2018.03.21 15:17:34,17.82,6.06,-25.62,-0.31604,0.51477,9.08148,0.07966,0.04663,-0.13077,292.36496,-3.86761,0.52546,0.07966
2018.03.21 15:17:34,18.6,6.84,-25.08,0.35196,1.04869,9.09585,0.04056,0.01426,-0.0483,292.93854,-4.06066,0.33551,1005.3772
2018.03.21 15:17:34,18.96,6.9,-25.02,0.54589,1.51079,9.31852,-0.04374,-0.09265,0.11235,292.83145,-4.43508,0.66938,1005.37549
2018.03.21 15:17:34,19.56,7.62,-24.9,-0.11253,1.53712,10.68804,0.01979,0.04235,0.03477,292.89786,-6.08033,0.84619,1005.3728
2018.03.21 15:17:34,20.04,6.12,-24.66,0.65843,0.84518,11.68885,-0.18485,-0.02851,0.10808,292.12625,-7.37747,0.70355,-0.18485
2018.03.21 15:17:34,20.1,6,-24.9,0.14126,-0.51237,10.19961,0.35516,-0.10547,0.18993,292.07474,-6.90749,1.0955,0.35516
2018.03.21 15:17:34,19.8,5.16,-24.48,-0.63209,-0.419,8.56193,0.13525,0.04846,0.09647,291.44012,-6.77187,1.04576,1005.3772
2018.03.21 15:17:34,19.56,6,-24.12,-0.05507,0.26337,9.46936,-0.11276,0.03808,0.14962,291.02155,-4.41131,0.09684,-0.11276
2018.03.21 15:17:35,19.74,4.62,-23.94,0.1676,0.91222,8.8253,-0.12742,0.00876,0.10014,290.05154,-3.2903,-0.52908,-0.12742
2018.03.21 15:17:35,19.5,6.18,-23.7,-0.18915,1.17798,9.68005,-0.20928,0.06923,-0.02081,289.87,-2.60485,-0.67833,1005.38135
2018.03.21 15:17:35,18.78,6.06,-24.3,-0.34956,1.15883,10.74072,0.03934,0.02525,-0.02448,290.05606,-3.84211,-0.64672,0.03934
2018.03.21 15:17:35,18.36,5.46,-25.92,0.62012,1.06545,11.07113,0.20428,-0.27468,0.12457,289.879,-5.42038,0.10021,0.20428
2018.03.21 15:17:35,18.54,6,-25.86,0,-0.09338,10.94184,0.01124,-0.22215,-0.06358,290.54099,-4.74252,1.0305,0.01124
2018.03.21 15:17:35,17.1,5.82,-25.62,0.12211,-0.62491,8.91867,-0.03641,0.13765,-0.29754,291.98889,-4.57251,0.72812,-0.03641
2018.03.21 15:17:35,16.86,6.54,-24.9,0.18915,0.47407,9.40471,-0.07733,0.01364,-0.16254,293.15436,-3.40384,0.46371,-0.07733
2018.03.21 15:17:35,15.84,7.08,-25.2,0.34478,0.78293,8.70319,0.04606,0.08817,-0.20041,294.27655,-3.78263,-0.03286,0.04606
2018.03.21 15:17:35,15,7.44,-24.42,0.27295,1.17798,9.31373,-0.02724,-0.03217,0.01706,295.65015,-3.741,-0.0116,-0.02724
2018.03.21 15:17:35,14.4,6.72,-25.2,-0.14126,1.30488,10.31693,0.08088,-0.00651,0.04699,296.15668,-4.90055,0.2586,0.08088
2018.03.21 15:17:36,15.72,6.36,-25.14,0.72786,1.52994,11.07113,-0.10727,-0.00957,0.03294,295.28345,-6.9643,0.52478,-0.10727
2018.03.21 15:17:36,14.94,6.12,-26.28,0.249,-0.90025,10.09187,0.05217,-0.00102,-0.02692,295.89529,-5.82614,0.66375,1005.36426
2018.03.21 15:17:36,13.92,5.64,-26.16,-1.2139,-0.53871,9.28021,-0.00831,0.01059,-0.0819,295.85635,-2.68243,0.56234,1005.36646
2018.03.21 15:17:36,14.04,6.24,-26.22,-0.26337,0.39266,9.21317,-0.0474,0.12482,0.17649,295.13962,-0.50562,-1.71996,-0.0474
2018.03.21 15:17:36,13.98,5.1,-24.9,0.23943,0.98405,9.18444,-0.0865,0.04846,0.10686,294.13849,-0.79804,-1.90451,-0.0865
2018.03.21 15:17:36,14.22,6.24,-25.44,-0.22027,1.22587,9.93863,-0.11399,-0.00713,-0.02998,294.28268,-2.13169,-1.36323,1005.37451
2018.03.21 15:17:36,14.64,6,-24.84,-0.32562,1.19714,10.19961,0.11936,-0.02545,-0.00188,294.7771,-4.38531,-1.33688,0.11936
2018.03.21 15:17:36,14.22,5.04,-25.32,0.70871,1.23305,10.50847,0.17801,-0.21054,0.1038,295.01816,-5.94184,-0.48028,0.17801
2018.03.21 15:17:36,13.38,6.24,-25.32,-0.0431,-0.81166,11.02324,0.01613,-0.19588,-0.14849,296.40094,-5.13542,0.72759,0.01613
2018.03.21 15:17:37,12.42,5.1,-25.02,0.21788,-0.11253,9.19402,0.02224,0.08267,-0.16742,297.38794,-4.80756,0.70205,0.02224
2018.03.21 15:17:37,12.06,4.8,-24.24,0.14366,0.88109,9.05515,0.05645,-0.05416,-0.03731,297.82724,-4.28797,0.83608,0.05645
2018.03.21 15:17:37,13.08,4.8,-25.26,0.32802,1.01278,8.49249,0.17251,0.09061,-0.05686,298.17676,-5.49899,0.47088,0.17251
2018.03.21 15:17:37,12.42,3.78,-24.18,0.27295,1.90345,9.8261,-0.02052,0.01364,0.02683,298.30637,-5.85814,0.29002,1005.36304
2018.03.21 15:17:37,11.58,3.48,-24.9,0.16042,1.48206,10.46298,0.09371,-0.01079,0.08792,297.77951,-7.64085,0.77751,1005.36035
2018.03.21 15:17:37,12.24,2.1,-25.08,0.17957,1.53234,10.63297,-0.29053,-0.00407,0.1655,296.51874,-8.02997,0.99399,-0.29053
2018.03.21 15:17:37,12.24,2.64,-24.84,0.13647,0.17478,10.19003,-0.27037,0.00876,0.18016,295.03705,-6.30007,1.27678,1005.36694
2018.03.21 15:17:37,12.48,2.04,-24.12,-0.49561,-0.18436,9.47893,-0.01258,0.04113,0.05615,293.46631,-6.04047,0.85876,1005.36377
2018.03.21 15:17:37,12.72,1.86,-23.58,-0.12929,0.84997,9.34725,-0.04068,0.0674,0.17772,292.12656,-5.23351,0.1983,-0.04068
2018.03.21 15:17:38,12.6,1.02,-22.8,0.22506,1.26178,9.25627,-0.06939,-0.00713,0.06471,290.58972,-5.15892,-0.12757,-0.06939
2018.03.21 15:17:38,12.96,1.56,-23.94,0.28492,1.81965,9.67526,-0.03763,-0.00713,-0.05747,290.07004,-5.7848,0.07739,-0.03763
2018.03.21 15:17:38,13.38,0.42,-23.88,-0.55068,1.48924,9.99849,0.0821,-0.07982,-0.14971,290.5289,-7.10951,0.24203,0.0821
2018.03.21 15:17:38,13.38,1.08,-24.18,-0.47167,-0.29689,12.82374,-0.42858,-0.1348,-0.31098,291.13898,-6.14153,0.3277,-0.42858
2018.03.21 15:17:38,12.66,2.04,-23.76,0.91222,-0.54111,10.37918,0.12608,-0.07188,-0.10084,291.34967,-5.70666,0.67988,0.12608
2018.03.21 15:17:38,13.74,2.16,-24.18,0.5028,0.48843,9.73512,0.0204,-0.08409,-0.15215,292.18677,-5.14208,0.81658,0.0204
2018.03.21 15:17:38,13.14,2.04,-24.54,0.17239,1.10855,8.47813,0.20183,0.09245,-0.08801,292.23276,-5.64676,0.55573,0.20183
2018.03.21 15:17:38,14.16,1.98,-25.08,-0.02634,0.89785,9.18444,-0.04557,0.04113,-0.14971,292.62531,-5.83211,0.23335,-0.04557
2018.03.21 15:17:38,14.76,2.46,-24.6,-0.07901,1.99204,10.04638,-0.00098,0.02403,-0.08801,292.41629,-6.38481,0.20675,-0.00098
2018.03.21 15:17:38,15.36,2.22,-25.62,0.21548,1.42699,10.35045,0.07416,-0.07676,0.28889,291.26996,-8.03004,0.25323,1005.36499
2018.03.21 15:17:39,16.08,2.04,-26.52,-0.44773,-0.50998,12.07912,-0.11582,-0.01507,0.02928,289.9939,-6.83029,0.33981,-0.11582
2018.03.21 15:17:39,16.98,1.5,-26.7,0.03591,0.60815,8.04716,0.29224,0.12299,0.35792,288.32468,-7.10888,0.05675,1005.37207
2018.03.21 15:17:39,18.18,0.24,-27.84,0,0.4166,9.115,-0.06267,0.00937,0.18688,286.80566,-6.26177,-0.08607,1005.36719
2018.03.21 15:17:39,17.7,0.72,-27.36,-0.2107,1.15883,8.58108,-0.06451,0.0222,0.0812,285.47513,-5.45795,-0.3207,-0.06451
2018.03.21 15:17:39,19.32,0.54,-28.02,-0.10774,1.29291,9.65611,-0.14575,0.06435,-0.00921,284.7294,-4.95908,-0.39448,-0.14575
2018.03.21 15:17:39,19.14,0.18,-28.5,-0.31844,1.17798,10.23074,0.01918,-0.07921,-0.04403,284.24432,-6.13169,-0.35523,1005.36426
2018.03.21 15:17:39,19.32,-0.3,-30.18,0.2083,0.81405,10.43186,0.10898,-0.19283,-0.05686,283.94885,-6.9208,0.33034,0.10898
2018.03.21 15:17:39,19.98,0.42,-31.14,0.1245,-0.52913,10.50129,-0.08711,-0.14213,-0.18819,284.52328,-5.52466,0.87975,-0.08711
2018.03.21 15:17:39,20.52,-0.18,-30.9,0.26337,0.18675,9.14613,-0.01197,0.13398,-0.24134,284.9671,-5.09682,0.28529,-0.01197
2018.03.21 15:17:40,21.06,-0.48,-31.56,0.26098,0.52435,8.95459,0.1438,0.02281,-0.11977,284.96829,-5.21446,0.03066,0.1438
2018.03.21 15:17:40,21.36,-1.14,-31.68,0.19394,1.06066,8.90431,0.06744,0.11749,-0.121,284.57944,-5.44157,-0.04449,0.06744
2018.03.21 15:17:40,22.38,-1.32,-32.22,0.28731,1.85317,9.60822,0.09432,0.01303,0.04394,283.61658,-6.21145,0.16271,0.09432
2018.03.21 15:17:40,21.66,-2.34,-32.4,0.00718,1.43178,9.83808,0.21405,-0.09692,0.05493,282.60559,-7.83209,0.84277,0.21405
2018.03.21 15:17:40,21.96,-3.42,-31.62,0.03113,0.62251,11.79899,-0.20073,-0.04866,-0.06846,280.89279,-7.45794,1.46019,1005.37085
2018.03.21 15:17:40,21.3,-3.24,-31.74,-0.249,0.39027,9.49091,-0.07184,-0.08104,0.13984,279.43634,-7.0678,1.49867,1005.37549
2018.03.21 15:17:40,21.3,-4.92,-31.32,-0.41182,0.05746,9.60104,-0.05595,0.00021,0.06165,277.44794,-6.51253,0.82528,1005.37402
2018.03.21 15:17:40,21.66,-5.34,-31.92,-0.00479,1.18756,8.93304,0.00635,0.12177,0.17405,275.17496,-4.9243,-0.41955,1005.37476
2018.03.21 15:17:40,21.72,-4.92,-31.68,0.00718,1.55388,8.45179,-0.09994,0.02892,0.05982,273.65112,-4.99202,-0.87136,-0.09994
2018.03.21 15:17:41,19.86,-4.14,-29.7,-0.07662,1.44854,10.57551,-0.03579,-0.14518,-0.02265,272.7395,-5.63375,-0.77502,-0.03579
2018.03.21 15:17:41,20.04,-4.2,-30.6,-0.25379,1.4222,10.51326,0.07722,-0.04256,-0.04769,272.40549,-6.5435,-0.40413,1005.37183
2018.03.21 15:17:41,18.84,-3.66,-31.02,0.5842,0.18675,10.89634,-0.14697,-0.27896,-0.17659,272.59189,-5.95202,0.93584,-0.14697
2018.03.21 15:17:41,18.48,-5.16,-31.44,0.31604,-0.49801,8.13814,0.20061,0.10405,-0.21202,272.81219,-6.25685,0.93859,0.20061
2018.03.21 15:17:41,18.9,-4.44,-31.14,0.36872,0.79011,9.39513,0.02651,0.07656,-0.06296,273.15228,-4.90493,0.84158,0.02651
2018.03.21 15:17:41,18.6,-3.96,-30.96,0.3328,1.00799,9.05036,0.05645,0.07229,-0.15765,273.21033,-5.23368,0.57065,0.05645
2018.03.21 15:17:41,18.96,-4.14,-31.2,0.22506,1.28094,8.85642,0.0143,0.03258,-0.12588,273.22192,-5.56465,0.74959,0.0143
2018.03.21 15:17:41,19.02,-4.56,-30.78,-0.10774,1.78852,9.87399,0.02774,0.06068,-0.04708,272.86859,-6.52621,0.53366,0.02774
2018.03.21 15:17:41,18.54,-4.14,-30.3,0.23703,2.26498,10.05117,0.10409,0.05457,0.19788,272.01892,-7.97862,0.28043,0.10409
2018.03.21 15:17:41,18.06,-3.72,-30.6,0.00479,-0.09338,11.64815,-0.03091,0.04846,0.01095,271.61615,-7.64461,0.43661,1005.36987
2018.03.21 15:17:42,18.12,-3.78,-30.96,-0.16999,0.19154,8.70319,0.065,0.04419,0.04577,270.63483,-5.93534,0.34942,0.065
2018.03.21 15:17:42,18.66,-4.26,-31.98,-0.28252,0.25379,9.66329,-0.09138,-0.0114,0.0476,269.59155,-3.02768,-0.8656,1005.38135
2018.03.21 15:17:42,18.48,-4.44,-31.44,0.10295,0.94813,8.58587,0.03873,-0.02301,0.16672,267.81494,-2.83816,-1.02205,1005.37842
2018.03.21 15:17:42,18.3,-3.66,-31.26,-0.40942,1.06306,9.56273,-0.09932,-0.01323,-0.02753,267.17761,-3.2783,-0.86477,-0.09932
2018.03.21 15:17:42,18.72,-3.36,-32.22,-0.11253,1.7981,10.28341,0.03934,-0.04989,-0.00432,267.11462,-5.18338,-1.30084,0.03934
2018.03.21 15:17:42,19.08,-3.3,-32.28,-0.03591,1.91781,10.43425,0.00513,-0.16045,-0.08923,267.54214,-7.44221,-0.79173,0.00513
2018.03.21 15:17:42,19.14,-2.76,-33.3,-0.18436,0.0838,11.51407,-0.35344,0.04602,-0.27493,269.33838,-6.55056,-0.43289,-0.35344
2018.03.21 15:17:42,20.04,-1.74,-33.66,0.51716,-0.48364,8.22194,0.21771,0.1572,-0.05197,270.57715,-6.17393,-0.73737,0.21771
2018.03.21 15:17:42,20.28,-2.64,-33.12,0.09817,0.33999,10.10384,-0.1262,-0.11525,-0.07213,271.1524,-4.56867,-0.37571,-0.1262
2018.03.21 15:17:43,20.46,-1.5,-34.26,0.07901,0.93137,8.83487,0.0314,0.01364,-0.07701,271.4068,-4.33538,-0.3537,0.0314
2018.03.21 15:17:43,20.82,-1.26,-34.26,0.39506,1.17319,9.60822,-0.00953,0.0619,0.07387,271.80994,-4.39747,-0.18222,-0.00953
2018.03.21 15:17:43,21,-1.14,-33.96,0.12929,1.69515,9.86681,0.00941,0.05213,-0.02937,271.92902,-5.56786,0.14522,0.00941
2018.03.21 15:17:43,21.3,-2.22,-34.08,0.5866,1.48206,11.24591,-0.01686,-0.02179,0.15145,271.79001,-6.62306,0.66874,1005.36475
2018.03.21 15:17:43,22.68,-1.38,-35.4,-0.14605,-0.71828,11.32971,-0.02052,-0.11525,-0.08007,272.38571,-5.7833,0.9872,1005.36157
2018.03.21 15:17:43,22.62,-1.44,-34.98,-0.77096,-0.51477,8.34405,0.06744,-0.01934,-0.07701,272.46848,-5.97022,1.15839,0.06744
2018.03.21 15:17:43,22.8,-1.62,-34.92,-0.35675,0.2921,9.68963,-0.04862,0.06679,0.20398,272.00006,-1.85513,-1.03832,-0.04862
2018.03.21 15:17:43,24.12,-2.46,-34.32,0.21548,1.02714,9.41668,-0.09383,0.04297,0.14656,270.75372,-2.36746,-1.02617,1005.36768
2018.03.21 15:17:43,24.42,-1.56,-35.16,-0.47646,0.96729,9.49091,-0.10604,0.07351,-0.10634,271.14325,-3.00488,-1.00094,-0.10604
2018.03.21 15:17:44,24.9,-0.9,-35.46,-0.04549,1.21869,10.15891,0.04728,-0.06699,0.00851,271.26697,-4.08699,-1.07776,0.04728
2018.03.21 15:17:44,24.72,-0.84,-34.86,0.5866,0.6704,11.64815,-0.16652,-0.02912,-0.14116,271.60852,-5.0026,-0.45224,-0.16652
2018.03.21 15:17:44,24.96,0.12,-35.76,0.38787,-0.47646,11.91631,0.0986,-0.05233,-0.21202,273.07816,-4.35642,0.32482,0.0986
2018.03.21 15:17:44,26.76,-0.24,-35.7,-0.20351,0.08859,9.18444,0.24215,0.1969,-0.2676,274.69028,-5.06778,-0.02479,0.24215
2018.03.21 15:17:44,27.18,0.66,-35.76,0.07422,0.63927,8.72474,0.17129,0.01487,-0.00493,275.68054,-5.07588,-0.38063,0.17129
2018.03.21 15:17:44,26.46,0.3,-34.98,0.25619,1.03433,9.05036,0.03262,0.04297,0.05066,275.90704,-4.91783,-0.4786,1005.35449
2018.03.21 15:17:44,26.94,0.12,-35.34,0.2107,1.57543,9.23711,0.0259,0.11566,0.09525,275.63977,-4.86485,-0.47711,1005.35547
2018.03.21 15:17:44,27.96,1.14,-34.08,0.07183,1.3815,10.81733,0.14869,0.06068,0.14778,275.57327,-6.04565,-0.34825,0.14869
2018.03.21 15:17:44,28.02,0.06,-34.26,0.21309,1.63768,10.78142,0.04789,-0.01201,0.15267,275.06787,-7.24329,0.02768,1005.36353
2018.03.21 15:17:44,29.34,0.84,-34.98,-1.2139,-0.01676,10.26904,-0.03213,-0.01507,-0.05563,275.74478,-6.25249,-0.12146,1005.37329
2018.03.21 15:17:45,29.82,-1.2,-35.1,-0.34238,-0.07901,8.87318,0.0369,-0.00407,0.14595,274.43155,-6.70847,-0.88381,0.0369
2018.03.21 15:17:45,30.6,-0.84,-33.42,-0.52913,0.8356,9.82131,0.04484,0.12299,0.19726,273.87668,-5.58266,-0.95324,0.04484
2018.03.21 15:17:45,30.66,-1.08,-34.44,0.07662,1.11813,9.34725,-0.00159,-0.01751,0.17649,272.96613,-5.67529,-0.89134,1005.35962
2018.03.21 15:17:45,30.54,-0.9,-34.74,-0.26576,1.755,9.54597,-0.08527,-0.02545,-0.02081,273.15088,-5.58329,-0.40835,-0.08527
2018.03.21 15:17:45,30.48,0.18,-35.28,-0.19872,1.30727,10.04638,0.06622,-0.09326,-0.11,274.15887,-6.63866,-0.29744,0.06622
2018.03.21 15:17:45,30.3,0.36,-35.94,0.06225,0.87152,12.28263,-0.31191,-0.12075,-0.30975,275.21857,-6.36797,0.47202,-0.31191
2018.03.21 15:17:45,30.24,1.8,-35.1,0.45252,-0.24422,10.48692,0.16579,0.04846,-0.26455,277.05731,-5.885,1.10201,0.16579
2018.03.21 15:17:45,30.06,3.18,-35.52,0.26337,0.24422,9.88117,0.01918,0.08145,-0.37206,279.3428,-5.53831,0.64707,0.01918
2018.03.21 15:17:45,30.3,3.06,-35.28,-0.02634,1.01996,9.31852,-0.00036,-0.04561,-0.14665,280.37747,-4.99879,0.76878,-0.00036
2018.03.21 15:17:46,30.78,4.44,-35.34,0.27534,1.20911,9.0767,-0.04923,0.05579,-0.02448,281.16977,-4.96806,0.46997,1005.37109
2018.03.21 15:17:46,30.24,4.08,-34.56,0.38548,1.66163,9.46457,-0.01686,0.03625,0.1093,281.06055,-5.1961,0.60152,1005.36987
2018.03.21 15:17:46,30.72,4.5,-33.36,0.25379,1.22587,10.7886,-0.02969,-0.02545,0.11785,280.79523,-5.94429,0.87937,-0.02969
2018.03.21 15:17:46,30.66,3.9,-33.48,0.81405,0.94574,10.43425,0.02651,-0.05538,0.27301,279.45963,-6.54767,1.48293,1005.36841
2018.03.21 15:17:46,30.6,2.82,-33.72,-0.73504,0.81405,7.92984,0.3014,0.01487,0.24125,278.81647,-6.2017,1.87685,1005.37744
2018.03.21 15:17:46,30.84,1.32,-34.5,-0.12929,-0.28971,10.20919,-0.18912,0.01242,0.04394,277.43466,-6.1213,1.68642,-0.18912
2018.03.21 15:17:46,30.72,1.02,-33.54,0.32323,0.91701,8.20039,0.09921,0.10466,0.37442,276.03799,-5.51919,0.99493,0.09921
2018.03.21 15:17:46,31.08,-0.48,-33.06,-0.30407,0.74223,9.75906,-0.05473,0.00692,0.25102,274.58875,-5.12602,0.89419,1005.36694
2018.03.21 15:17:46,31.62,-1.2,-33.12,-0.55547,1.5898,10.18285,-0.08894,-0.04378,0.33104,272.79974,-4.6252,0.87966,-0.08894
2018.03.21 15:17:47,30.72,-3.06,-33.9,-0.64406,1.01996,9.81653,0.20733,-0.10425,0.72566,268.89163,-5.59018,1.33114,0.20733
2018.03.21 15:17:47,29.22,-6.54,-34.44,-0.50519,0.62491,10.5803,-0.0193,-0.21115,1.13922,262.57123,-4.83332,2.90237,-0.0193
2018.03.21 15:17:47,28.44,-10.32,-35.1,-0.33759,-0.4597,9.58668,0.26109,0.23722,0.88571,255.81418,-4.86506,3.52426,0.26109
2018.03.21 15:17:47,27.9,-14.46,-35.4,0.06943,-0.02394,10.5803,0.19633,0.18285,1.17709,248.82785,-4.48506,1.97592,0.19633
2018.03.21 15:17:47,25.8,-18.18,-33.36,-0.37111,0.89546,9.5771,0.1719,0.16453,1.38051,240.17381,-4.64391,1.51427,0.1719
2018.03.21 15:17:47,24.06,-22.26,-33.18,-0.12929,0.31844,9.75188,0.11387,0.26899,1.45748,232.10638,-5.10789,0.65071,0.11387
2018.03.21 15:17:47,21.42,-25.32,-31.5,0.30886,0.3328,9.30894,0.02651,0.27632,1.4416,223.55435,-5.34745,-0.15113,0.02651
2018.03.21 15:17:47,19.2,-29.46,-31.68,0.19633,0.27534,9.64893,-0.0865,0.15903,1.35485,214.04668,-4.97602,-0.7654,-0.0865
2018.03.21 15:17:47,15.54,-31.74,-31.8,0.35675,0.60336,10.47735,0.04056,0.06496,1.4587,205.88383,-4.89223,-0.52684,1005.37085
2018.03.21 15:17:47,12.06,-33.42,-31.38,-0.10295,-0.27774,10.71438,-0.11704,0.12971,0.80263,199.52325,-4.75326,-0.34597,1005.37744
2018.03.21 15:17:48,8.64,-34.68,-31.92,-0.28252,0.67519,9.94342,-0.01686,0.08084,0.58333,194.49048,-4.70991,-1.28088,-0.01686
2018.03.21 15:17:48,8.1,-34.8,-31.68,-0.27295,0.78053,9.22514,-0.09444,0.11138,0.37258,191.74377,-4.45468,-2.03157,-0.09444
2018.03.21 15:17:48,7.26,-34.5,-32.88,-0.20112,1.29051,8.21715,-0.0529,0.12299,0.28584,189.91566,-4.08541,-2.71071,1005.375
2018.03.21 15:17:48,7.8,-34.26,-32.7,-0.7949,1.20432,10.26186,-0.23982,0.06129,-0.01043,189.52893,-2.9985,-3.0681,-0.23982
2018.03.21 15:17:48,7.32,-34.08,-33,-0.34717,1.84359,10.94902,0.24704,-0.06088,0.22109,188.90561,-3.56193,-3.04219,0.24704
2018.03.21 15:17:48,6.78,-33.6,-32.04,-0.37111,0.43336,11.79899,-0.19523,-0.13357,-0.13382,188.08853,-5.11547,-1.93761,-0.19523
2018.03.21 15:17:48,6.66,-33.06,-31.8,0.03352,-0.88109,10.06074,-0.19951,-0.1574,-0.22301,189.17787,-4.34653,-1.19841,-0.19951
2018.03.21 15:17:48,6.48,-33.36,-31.74,-0.09338,0.07662,8.43024,0.25437,0.02403,-0.10634,189.73444,-4.91753,-1.29238,0.25437
2018.03.21 15:17:48,7.74,-32.7,-32.04,-0.36632,0.54829,9.27542,0.10165,0.04907,0.06593,189.94743,-4.51501,-1.55315,0.10165
2018.03.21 15:17:49,6.72,-32.22,-30.6,0.30886,1.01038,9.11022,-0.08955,0.00143,0.14168,189.37262,-4.34712,-1.85141,-0.08955
2018.03.21 15:17:49,6.54,-31.38,-30.48,0.03831,1.3384,9.50527,-0.01136,0.10833,0.03355,189.08623,-4.68529,-0.79185,-0.01136
2018.03.21 15:17:49,5.82,-31.68,-30.12,-0.25619,1.36234,11.29379,0.00635,0.06923,0.04088,189.10057,-5.83545,-0.73705,1005.35571
2018.03.21 15:17:49,5.7,-31.44,-29.34,-0.01437,0.86194,10.98014,0.0766,0.08023,0.22842,188.16942,-7.21796,-0.83756,1005.35596
2018.03.21 15:17:49,4.68,-30.9,-28.2,-0.56505,-0.419,12.01208,-0.0248,-0.06882,-0.02509,187.79381,-6.15083,-0.3375,1005.35791
2018.03.21 15:17:49,3.54,-30.18,-27.84,-0.84757,-0.36154,9.00247,-0.06817,-0.06394,-0.19064,187.44884,-7.43595,-0.76716,-0.06817
2018.03.21 15:17:49,3.72,-30,-27.6,-0.87152,0.56265,9.20838,-0.15552,-0.00896,-0.03425,187.79135,-5.6301,-1.34878,1005.36108
2018.03.21 15:17:49,1.38,-30.78,-27.84,-0.36154,1.11573,9.06233,-0.03946,-0.07921,0.12518,186.39211,-5.38513,-1.56495,1005.35938
2018.03.21 15:17:49,1.68,-29.64,-26.4,-0.74701,1.60656,9.65611,-0.12376,0.05457,-0.01776,186.17105,-5.12597,-2.2607,-0.12376
2018.03.21 15:17:50,-0.42,-29.58,-26.7,-0.36154,1.68318,10.23313,0.13952,-0.05355,0.05799,185.02629,-6.22301,-2.39893,0.13952
2018.03.21 15:17:50,-1.5,-29.4,-25.44,0.40463,0.67997,11.20999,0.14319,-0.12319,0.06043,183.91779,-7.28144,-1.45203,1005.37549
2018.03.21 15:17:50,-4.26,-28.8,-23.94,-0.26337,-0.10535,10.44383,-0.06634,-0.36631,-0.17903,183.5777,-6.36907,0.70561,-0.06634
2018.03.21 15:17:50,-4.38,-29.82,-23.52,-0.69434,-0.03591,8.9498,0.09249,0.16514,-0.34213,183.66536,-6.23407,0.15031,0.09249
2018.03.21 15:17:50,-4.56,-29.1,-23.04,0.34478,1.23305,8.56432,0.10654,0.11138,-0.00371,182.53798,-5.91458,-0.44287,0.10654
2018.03.21 15:17:50,-5.52,-27.18,-20.88,0.19394,1.45332,8.84206,0.03751,0.06496,0.07692,181.12868,-5.72316,-0.61545,0.03751
2018.03.21 15:17:50,-7.2,-27.42,-21.72,0.07662,1.63768,9.56752,0.06194,0.05152,0.05188,179.2502,-6.23459,-0.45014,0.06194
2018.03.21 15:17:50,-8.34,-27.36,-20.28,0.30407,1.95133,9.91948,0.12303,0.04297,0.10686,174.37863,-7.89427,-0.05446,0.12303
2018.03.21 15:17:50,-9.72,-25.02,-19.5,0.60096,0.90743,10.61143,-0.03763,0.01487,0.09647,171.80954,-8.93112,0.32388,1005.35352
2018.03.21 15:17:50,-9.12,-22.98,-17.64,-0.35196,0.76377,10.56833,0.0876,0.11566,0.04821,171.07567,-7.46279,-0.02198,1005.34717
2018.03.21 15:17:51,-9.42,-21.3,-17.34,-0.35435,-0.11014,9.30655,-0.06817,-0.04561,-0.0819,169.3329,-7.80019,-0.4042,-0.06817
2018.03.21 15:17:51,-9.78,-20.46,-17.88,-0.16999,1.47248,8.55953,0.01857,-0.00285,0.02011,167.75856,-5.90412,-1.56174,1005.35645
2018.03.21 15:17:51,-7.98,-19.14,-17.52,-0.33759,1.23066,9.62259,-0.03579,0.03564,-0.07824,166.08862,-6.02027,-1.72872,1005.35181
2018.03.21 15:17:51,-7.44,-18.72,-17.7,-0.18915,1.91781,9.70878,0.01552,-0.04561,-0.02937,165.12018,-6.55852,-1.73457,0.01552
2018.03.21 15:17:51,-7.86,-18.54,-15.84,-0.40224,1.68078,9.76385,0.11631,-0.16045,-0.08801,164.50002,-8.03544,-1.11168,0.11631
2018.03.21 15:17:51,-6.96,-18.48,-15.48,0.18915,0.49561,11.73674,-0.34062,-0.08409,-0.24317,164.10864,-7.67905,-0.41211,-0.34062
2018.03.21 15:17:51,-5.1,-18.72,-16.86,1.18995,0.32083,8.13814,0.17251,0.05457,-0.06602,164.42958,-7.5015,-0.3789,0.17251
2018.03.21 15:17:51,-4.14,-18.54,-16.62,-0.44055,0.28731,10.46298,-0.25815,0.06618,-0.25966,165.85591,-5.82264,-0.74357,-0.25815
2018.03.21 15:17:51,-2.88,-18.54,-17.34,-0.0431,0.76617,9.51006,0.00941,-0.01262,0.00423,165.69365,-5.48273,-0.66756,0.00941
2018.03.21 15:17:52,-1.62,-18.66,-16.56,0.06943,0.90025,8.86839,-0.03946,0.02097,0.04699,165.80644,-5.49649,-0.47717,-0.03946
2018.03.21 15:17:52,-1.56,-18.66,-16.62,-0.03352,1.44375,9.55076,0.05156,0.0619,0.12701,166.05554,-5.38953,-0.5981,0.05156
2018.03.21 15:17:52,-0.66,-18.18,-16.38,0.67758,1.57543,10.68565,0.02835,-0.01201,0.21559,165.89932,-6.10211,-0.13772,1005.35962
2018.03.21 15:17:52,0.12,-18.6,-16.26,0.09817,-0.23224,10.94902,-0.14453,-0.03217,0.0195,166.77769,-5.56212,0.28621,1005.36011
2018.03.21 15:17:52,1.32,-18.72,-16.02,-0.30168,-0.13169,8.43982,0.22382,0.00509,0.15695,167.84068,-4.45802,-0.21863,1005.36743
2018.03.21 15:17:52,2.88,-18.84,-15.84,-0.80208,-0.22027,10.29538,-0.20195,-0.01507,-0.00554,169.65443,-1.81439,-1.20066,-0.20195
2018.03.21 15:17:52,3.3,-19.26,-15.42,-0.01437,1.0032,8.97374,-0.06267,-0.05355,0.18444,170.7542,-1.19326,-2.17021,-0.06267
2018.03.21 15:17:52,4.2,-19.86,-15.96,-0.86673,0.2514,9.47654,-0.00464,0.05824,-0.03059,172.48671,-1.66626,-2.26058,1005.36157
2018.03.21 15:17:52,3.84,-20.58,-15.96,0.07901,1.26178,9.7878,-0.12926,-0.03034,0.21681,173.26424,-1.45718,-2.62329,-0.12926
2018.03.21 15:17:53,4.62,-21.24,-16.14,-0.42618,0.53153,9.3257,0.0033,-0.06882,-0.06296,175.02463,-2.60367,-1.9194,0.0033
2018.03.21 15:17:53,3.78,-20.88,-15.36,0.17957,0.88588,11.16929,-0.23005,-0.16962,-0.07274,176.86734,-1.84339,-0.53981,-0.23005
2018.03.21 15:17:53,4.68,-21.24,-16.62,0.01437,-0.3328,10.19243,-0.09688,-0.18489,-0.09962,178.76053,-1.29368,0.28034,-0.09688
2018.03.21 15:17:53,4.56,-21.54,-16.14,0.37351,0.06704,9.00247,0.02346,-0.01384,-0.20652,181.06914,-1.28034,0.79991,0.02346
2018.03.21 15:17:53,5.46,-22.02,-16.2,0.15323,0.0838,9.34485,-0.00342,0.0564,-0.12466,183.20421,-0.92126,1.25754,-0.00342
2018.03.21 15:17:53,5.34,-21.54,-16.38,0.44534,0.63927,10.07032,-0.03763,-0.07676,0.04088,184.24913,-0.40607,1.83833,-0.03763
2018.03.21 15:17:53,5.82,-22.08,-15.66,0.61293,1.08221,8.95219,0.05034,-0.00651,0.08914,184.8576,-1.96291,2.3901,0.05034
2018.03.21 15:17:53,5.28,-22.74,-15.78,0.39745,1.26657,9.73991,0.06683,0.05091,0.04027,186.61765,-3.97043,2.9161,1005.36792
2018.03.21 15:17:53,6.12,-22.44,-15,0.36872,0.63927,10.73353,0.07844,0.03686,0.06654,188.01523,-5.50335,2.46095,1005.36816
2018.03.21 15:17:53,5.58,-23.82,-14.94,0.2514,-0.28731,10.23313,-0.12926,0.02281,0.1936,187.63551,-6.18092,1.82399,1005.36426
2018.03.21 15:17:54,5.94,-22.92,-14.22,-0.21788,0.33759,8.39912,0.24032,0.14865,0.31516,187.32484,-5.33866,1.53827,0.24032
2018.03.21 15:17:54,6.9,-22.86,-14.34,0.05746,-0.47407,9.52443,0.11142,0.13582,0.23086,187.4131,-4.67807,1.08468,0.11142
2018.03.21 15:17:54,7.56,-22.56,-13.56,-0.12929,0.3328,8.48052,0.08516,0.04235,0.05982,188.04541,-4.07254,1.09023,1005.36499
2018.03.21 15:17:54,8.22,-21.9,-13.32,0.46928,1.33122,9.00008,-0.06695,0.17736,-0.13688,190.35681,-2.63738,0.3219,-0.06695
2018.03.21 15:17:54,10.32,-21.6,-13.62,-0.39745,1.32164,9.7016,0.01735,-0.03156,-0.42765,194.39749,-1.82277,-0.08447,0.01735
2018.03.21 15:17:54,10.8,-19.86,-13.62,-0.56505,2.08541,10.92268,0.06072,-0.16473,0.13068,197.6133,-2.22994,-0.27234,0.06072
2018.03.21 15:17:54,11.46,-19.56,-13.08,-0.38548,0.68476,10.01286,0.13219,-0.22032,0.01706,198.53734,-3.50732,0.16995,0.13219
2018.03.21 15:17:54,13.2,-18.48,-13.38,-0.13169,-0.50759,10.32651,-0.16591,-0.09204,-0.12833,200.65411,-3.04981,0.511,-0.16591
2018.03.21 15:17:54,14.28,-19.2,-13.68,1.2115,0.22985,9.81413,0.04789,-0.07615,0.09708,202.27501,-2.1024,0.7488,0.04789
2018.03.21 15:17:55,15.54,-18.6,-13.38,0.18915,-0.10774,9.23232,0.04667,-0.18672,-0.12833,204.88594,-1.44675,2.19791,0.04667
2018.03.21 15:17:55,15.72,-18.78,-12.84,0.45012,0.84997,8.64573,-0.04007,0.03502,-0.03486,206.72469,-1.73249,2.40267,1005.36401
2018.03.21 15:17:55,16.86,-17.76,-13.5,0.7111,1.29051,10.00089,-0.00831,-0.07493,0.10625,207.98325,-2.53189,2.62657,1005.36914
2018.03.21 15:17:55,17.22,-18.36,-12.96,-0.42139,0.01676,11.06394,0.2281,-0.01079,-0.09839,209.43256,-4.84273,2.83837,1005.36621
2018.03.21 15:17:55,17.46,-19.26,-12.6,0.5004,-0.38308,11.70082,-0.13231,0.12421,0.20032,209.55658,-4.98529,2.40468,1005.37085
2018.03.21 15:17:55,18.3,-19.26,-12.84,0.28731,1.00081,9.42865,0.11265,-0.13235,0.34448,210.09004,-4.45469,2.92914,0.11265
2018.03.21 15:17:55,19.14,-19.02,-12.84,-1.00081,-0.15323,9.11261,0.00574,0.14437,-0.15154,212.01694,-4.52089,1.94962,0.00574
2018.03.21 15:17:55,20.22,-19.32,-12.84,0.06704,0.95771,8.58587,-0.01319,0.04785,0.12274,212.8694,-4.1123,0.73814,-0.01319
2018.03.21 15:17:55,20.64,-19.98,-13.62,-0.2945,1.14925,9.59146,-0.14758,-0.06271,0.02317,214.3212,-3.86689,0.47382,-0.14758
2018.03.21 15:17:56,21.96,-19.8,-13.68,-0.20591,0.97926,10.29778,-0.01686,-0.04866,-0.01043,215.92574,-4.64412,0.15899,-0.01686
2018.03.21 15:17:56,22.32,-19.98,-12.48,0.05507,1.32882,9.96497,0.21344,-0.06271,0.1991,216.99393,-5.80492,0.08573,0.21344
2018.03.21 15:17:56,21.78,-22.2,-13.2,-0.05986,0.09577,11.66251,-0.11948,-0.17511,-0.11306,218.20511,-5.05709,0.55844,-0.11948
2018.03.21 15:17:56,22.02,-23.22,-14.46,0.86673,-0.36154,8.70319,0.26414,0.01364,-0.02204,219.39114,-5.64207,0.78642,0.26414
2018.03.21 15:17:56,22.98,-24.78,-15,0.27774,0.73983,9.55076,-0.02846,-0.06577,-0.16803,221.34128,-4.90509,0.80591,-0.02846
2018.03.21 15:17:56,22.68,-26.64,-15.18,-0.11732,0.79969,8.73431,0.05706,-0.01507,-0.22973,222.83549,-5.12434,0.52614,1005.36304
2018.03.21 15:17:56,22.2,-27.66,-15.48,0.07662,1.47727,9.40711,-0.02052,0.12116,0.00851,223.29367,-4.83805,0.06803,1005.36279
2018.03.21 15:17:56,19.8,-29.16,-15.48,0.2107,1.45093,11.08549,0.14991,0.02036,0.14106,222.44302,-6.07232,-0.19516,0.14991
2018.03.21 15:17:56,19.2,-31.8,-15.36,0.59378,1.14925,10.89395,0.26109,0.04297,0.31211,220.37941,-7.63407,0.01903,1005.34692
2018.03.21 15:17:57,16.68,-34.56,-16.68,-0.45491,0.13647,10.02004,0.07233,0.01792,0.00851,219.11911,-7.28013,0.1299,1005.35449
2018.03.21 15:17:57,14.64,-35.88,-17.28,-0.79729,0.00479,8.59066,-0.0022,-0.01323,-0.12161,217.41336,-7.90741,-0.07519,-0.0022
2018.03.21 15:17:57,11.52,-36.96,-17.34,-0.52435,0.52674,9.09346,-0.08161,0.04846,0.19116,215.30058,-5.76642,-1.05415,-0.08161
2018.03.21 15:17:57,10.44,-37.86,-17.7,0.01676,1.51558,9.37598,-0.10421,-0.02423,0.02622,212.53706,-4.99366,-1.261,-0.10421
2018.03.21 15:17:57,7.68,-38.82,-18.84,0.03113,1.83401,9.7854,-0.09627,0.0564,0.00912,210.40518,-6.06511,-1.2042,-0.09627
2018.03.21 15:17:57,6.18,-38.4,-19.44,-0.56744,1.47727,10.50368,0.0259,-0.01384,-0.06174,208.66234,-6.92041,-1.03717,0.0259
2018.03.21 15:17:57,3.9,-39.24,-19.92,0.53632,1.01757,11.61702,-0.17568,-0.07249,-0.06968,206.18871,-7.36311,-0.22134,-0.17568
2018.03.21 15:17:57,2.16,-38.64,-21.48,0.60575,-0.65364,9.39753,0.18473,-0.03339,-0.14116,205.07632,-6.51395,0.25871,0.18473
2018.03.21 15:17:57,1.8,-39.06,-21.3,0.22985,0.43576,9.88357,-0.00525,0.06435,-0.2114,203.99443,-5.5053,0.29433,-0.00525
2018.03.21 15:17:57,1.98,-39.42,-22.26,-0.09338,0.80687,8.66249,0.11631,0.09672,-0.11,202.4628,-5.35366,-0.00051,0.11631
2018.03.21 15:17:58,1.44,-39.66,-21.78,-0.00479,0.90025,9.23232,-0.04801,0.07534,-0.06113,201.14558,-5.15648,-0.45728,-0.04801
2018.03.21 15:17:58,1.98,-40.14,-22.62,-0.08859,1.63768,9.86202,-0.00708,0.00754,-0.05014,199.27582,-5.45955,-0.35416,1005.35986
2018.03.21 15:17:58,1.08,-41.22,-22.32,0.21788,1.58501,10.10384,0.11692,-0.12808,0.06471,197.25421,-6.84117,0.12239,1005.3623
2018.03.21 15:17:58,0.42,-41.04,-22.44,0.01676,-0.09098,12.05996,-0.13537,0.01975,0.02561,194.89134,-6.77807,0.14257,1005.36279
2018.03.21 15:17:58,0.48,-42.18,-21.48,0.22985,0.5004,7.9466,0.48527,-0.08287,0.30233,192.60826,-7.9198,0.35088,1005.36182
2018.03.21 15:17:58,0.06,-42.06,-21.78,-0.59378,-0.14126,10.23553,-0.20195,0.06129,-0.0202,191.53882,-6.92415,0.02394,-0.20195
2018.03.21 15:17:58,-0.54,-42.72,-22.26,-0.02634,1.28573,8.71516,0.06011,0.06374,0.15878,189.80145,-5.91782,-0.60795,1005.35742
2018.03.21 15:17:58,-0.96,-42.12,-21.96,-0.06704,1.5491,9.64414,-0.13109,0.00265,0.02867,188.17265,-5.48763,-0.55372,1005.3606
2018.03.21 15:17:58,-0.54,-42.3,-22.62,-0.29689,1.38629,9.90751,-0.05473,-0.01568,-0.05136,187.32863,-6.25227,-0.5203,-0.05473
2018.03.21 15:17:59,-0.42,-42.78,-22.08,0.72547,1.73824,11.07352,0.10593,-0.10059,0.06532,186.68285,-7.19219,-0.46799,0.10593
2018.03.21 15:17:59,1.02,-42.54,-22.02,-0.4166,0.28492,10.54439,-0.06084,-0.23681,-0.20469,186.67346,-7.34031,0.08089,-0.06084
2018.03.21 15:17:59,1.32,-42.72,-22.68,0.08619,-0.4166,8.94022,0.01613,0.12971,-0.2334,187.07358,-6.1868,0.18593,0.01613
2018.03.21 15:17:59,1.92,-42.78,-22.2,0.47407,1.01757,9.7854,-0.16469,-0.02362,-0.05563,187.11806,-4.78048,0.41163,-0.16469
2018.03.21 15:17:59,2.52,-42.42,-21.72,0.22746,0.78772,9.40471,0.01918,0.00326,-0.08618,187.01282,-4.64264,0.47717,1005.3645
2018.03.21 15:17:59,3.36,-42.9,-21.24,0.30407,1.15404,9.30655,-0.0193,0.02464,0.03722,186.53699,-4.84799,0.6109,1005.36646
2018.03.21 15:17:59,4.38,-43.32,-21.18,-0.01915,1.59938,10.73114,0.06255,-0.03828,0.11052,185.94194,-5.90832,0.72778,1005.36133
2018.03.21 15:17:59,3.12,-43.5,-20.46,0.29928,0.60336,10.47016,0.01674,0.07229,0.08914,184.49539,-7.82975,0.98788,0.01674
2018.03.21 15:17:59,3.54,-44.34,-19.32,-0.59617,0.40703,9.31852,-0.06573,0.00021,0.08425,184.06911,-7.01377,0.90581,1005.3623
2018.03.21 15:18:00,2.22,-44.1,-19.14,0.61772,0.84757,8.74868,0.2,0.09306,0.37442,182.26517,-7.50446,0.72051,1005.36987
2018.03.21 15:18:00,3.48,-44.04,-19.62,-0.47407,1.13728,8.52601,-0.03824,0.11749,0.02622,182.55211,-6.21561,-0.20448,-0.03824
2018.03.21 15:18:00,2.16,-44.52,-18.72,-0.32802,1.16841,9.52682,-0.06573,-0.04744,0.12763,181.38295,-5.94076,0.01809,-0.06573
2018.03.21 15:18:00,2.16,-43.8,-18.42,-0.66321,1.89148,9.26584,-0.0193,0.04907,0.32738,180.33624,-5.78427,-0.33539,-0.0193
2018.03.21 15:18:00,0.96,-44.7,-18.18,-0.80448,0.96968,10.39594,0.07599,-0.15007,0.56501,178.27235,-6.18603,0.10737,0.07599
2018.03.21 15:18:00,-1.32,-45.3,-17.22,0.25619,1.10855,10.31693,0.08577,-0.2869,0.85211,174.14822,-6.5436,1.63117,0.08577
2018.03.21 15:18:00,-7.86,-45.42,-18.06,0.33999,0.46449,9.77104,0.04606,-0.46344,0.93763,168.38924,-5.40889,4.55558,0.04606
2018.03.21 15:18:00,-11.04,-46.44,-16.98,-0.0407,-0.24661,9.09824,0.02529,0.04846,0.75987,163.8345,-5.91503,4.24848,0.02529
2018.03.21 15:18:00,-14.82,-45.9,-16.92,-0.07422,1.09897,9.77582,-0.0474,0.18285,1.07019,158.53961,-4.61945,3.90236,-0.0474
2018.03.21 15:18:00,-20.58,-44.58,-18.06,0.21788,0.35675,9.7016,-0.03579,0.07901,1.15144,151.532,-3.93765,2.89688,1005.35229
2018.03.21 15:18:01,-27.54,-41.52,-17.34,0.1676,0.05507,9.41189,0.15663,0.21645,1.51857,143.10728,-4.19959,2.06107,1005.35132
2018.03.21 15:18:01,-32.64,-37.86,-17.88,0.03591,-0.33759,9.96018,0.06927,0.16331,1.72198,133.34822,-4.30029,1.07262,1005.35254
2018.03.21 15:18:01,-38.34,-31.14,-19.14,1.09897,-0.41182,11.38957,-0.12193,0.03502,1.52712,123.22004,-3.43908,1.1972,-0.12193
2018.03.21 15:18:01,-43.38,-24.78,-19.2,0.67997,0.47167,9.97934,0.18351,0.14865,1.44709,114.71577,-3.36492,0.82671,1005.36768
2018.03.21 15:18:01,-44.88,-19.74,-20.52,-0.55787,0.77814,8.93783,-0.10116,0.31419,0.78675,109.48225,-2.77807,-0.84379,1005.36694
2018.03.21 15:18:01,-45.66,-15.06,-23.88,-0.12211,0.67758,9.7423,-0.205,0.10405,0.66885,105.05058,-2.1176,-2.21945,-0.205
2018.03.21 15:18:01,-45.24,-11.46,-25.26,-0.52913,0.73265,9.51245,-0.08955,0.13215,0.37564,102.42638,-1.48426,-2.80794,-0.08955
2018.03.21 15:18:01,-45.78,-8.1,-23.88,-0.15802,1.31446,10.99451,0.11448,-0.04256,0.32371,100.18078,-1.61209,-2.8048,0.11448
2018.03.21 15:18:01,-45.84,-5.64,-24.78,0.28971,1.18038,10.75269,0.23421,-0.06943,0.38236,98.05176,-3.26185,-1.98618,0.23421
2018.03.21 15:18:02,-46.38,-4.38,-23.28,-1.05827,0.35914,10.06074,-0.1036,-0.11342,-0.02143,97.65562,-2.81447,-1.12344,-0.1036
2018.03.21 15:18:02,-45.96,-3.9,-23.64,-0.12211,-0.82842,9.06712,0.29041,0.24638,-0.07213,97.45213,-2.75985,-1.59805,0.29041
2018.03.21 15:18:02,-43.32,-3.42,-24.66,0.43336,0.85476,8.94022,0.19267,-0.09142,-0.0367,96.25479,-3.53789,-1.01394,0.19267
2018.03.21 15:18:02,-43.38,-4.68,-24.84,-0.56026,0.12211,8.86839,0.01491,0.12604,-0.21996,97.22827,-4.01815,-1.14447,0.01491
2018.03.21 15:18:02,-42.9,-5.04,-24.6,0.26816,1.22108,8.97614,-0.07367,-0.06149,-0.01226,97.27876,-3.6207,-1.32468,1005.37305
2018.03.21 15:18:02,-42,-4.38,-25.38,-0.41421,1.47966,10.23553,0.00391,0.00387,0.01828,96.7487,-5.05818,-0.84663,1005.36816
2018.03.21 15:18:02,-41.64,-2.76,-24.84,0.49083,1.44375,11.13817,0.02896,0.05152,0.39335,94.65076,-6.3143,-1.03543,1005.36255
2018.03.21 15:18:02,-39.72,-2.52,-25.56,-0.28013,-0.70631,12.19165,0.15602,0.02953,0.1038,93.44734,-5.68248,-0.9312,0.15602
2018.03.21 15:18:02,-38.58,-2.88,-24.84,-0.66561,-0.18436,8.55235,-0.08711,-0.02056,-0.14177,92.36603,-6.4869,-0.90888,-0.08711
2018.03.21 15:18:03,-37.74,-3.12,-25.26,-0.57941,0.46928,9.20599,-0.11337,0.03564,-0.02631,92.56383,-4.79778,-1.63116,1005.36816
2018.03.21 15:18:03,-36.78,-3.54,-26.16,-0.2107,1.07264,8.93783,-0.0303,-0.05172,0.12335,91.9678,-4.11586,-2.07496,-0.0303
2018.03.21 15:18:03,-36.3,-4.14,-25.98,-0.47407,1.51797,9.58428,-0.09322,0.00143,0.03844,92.16096,-4.16807,-2.33256,-0.09322
2018.03.21 15:18:03,-35.7,-4.56,-24.96,-0.60096,1.27615,10.78621,0.23665,-0.09692,0.02195,92.1459,-5.81574,-1.84778,0.23665
2018.03.21 15:18:03,-35.04,-5.52,-25.56,0.5842,0.89067,11.27464,-0.32962,-0.2191,0.01034,91.486,-7.27587,-1.35877,-0.32962
2018.03.21 15:18:03,-35.1,-6.3,-23.4,0.61293,-0.16281,9.64414,-0.2215,-0.24475,-0.08434,92.17733,-6.03647,-0.0585,-0.2215
2018.03.21 15:18:03,-35.4,-7.8,-23.52,0.22985,0.10295,9.09824,0.02896,-0.00163,-0.19858,92.92913,-6.17304,0.12661,0.02896
2018.03.21 15:18:03,-33.78,-7.98,-23.7,0.07422,0.8763,9.1605,0.02285,0.11566,-0.08923,94.0237,-5.40715,0.05236,0.02285
2018.03.21 15:18:03,-33.9,-8.88,-23.82,0.22506,1.20911,9.58189,0.02957,0.06374,-0.05686,95.0842,-5.36959,-0.3581,0.02957
2018.03.21 15:18:03,-32.94,-9.78,-23.22,0.20112,1.86993,9.77582,0.00819,-0.01873,-0.02387,96.96412,-5.90961,-0.30147,1005.35034
2018.03.21 15:18:04,-32.64,-10.98,-22.5,-0.27774,1.18517,9.76864,0.2617,-0.1183,0.00545,97.5258,-7.70955,0.14906,1005.34692
2018.03.21 15:18:04,-33.42,-10.74,-21.48,-0.73983,-0.68237,11.67209,-0.20378,0.01059,-0.01837,97.54309,-7.07673,0.17377,1005.35132
2018.03.21 15:18:04,-33.18,-11.76,-21.9,0.54589,0.7925,7.70717,0.3014,0.0167,0.3622,96.95728,-7.39018,0.20149,0.3014
2018.03.21 15:18:04,-33.06,-11.94,-22.2,-0.36872,-0.10295,9.80695,-0.02785,0.06251,0.12396,97.44612,-6.50712,0.1813,-0.02785
2018.03.21 15:18:04,-33.54,-11.82,-21.18,0.13647,1.36713,8.50925,0.0033,0.12116,0.13923,97.54784,-5.81671,-0.56982,1005.36108
2018.03.21 15:18:04,-34.02,-11.64,-21.66,-0.02873,1.42938,9.88836,-0.19645,0.05274,-0.15032,98.72261,-5.67515,-0.94701,-0.19645
2018.03.21 15:18:04,-34.56,-12.9,-21.24,-0.60815,1.2115,9.84526,-0.06512,0.01059,-0.20285,100.84518,-6.13924,-1.65246,-0.06512
2018.03.21 15:18:04,-35.04,-13.86,-21.96,-0.34238,1.43178,10.02004,0.03384,-0.01507,-0.0202,102.30907,-6.17525,-2.04665,0.03384
2018.03.21 15:18:04,-35.64,-13.32,-21.72,-1.35277,1.02475,10.67607,-0.23066,0.06801,-0.09045,103.30685,-5.48499,-2.84281,-0.23066
2018.03.21 15:18:05,-36.3,-12.9,-20.94,-0.34478,-0.42139,9.28021,-0.11093,0.04663,-0.20346,104.56251,-4.65675,-3.04316,-0.11093
2018.03.21 15:18:05,-36.96,-13.14,-20.82,0.52435,0.51956,9.80695,-0.14147,-0.02973,-0.13199,105.58523,-3.49449,-2.51935,-0.14147
2018.03.21 15:18:05,-36.84,-13.44,-21.12,-0.17478,0.23224,9.08148,0.17129,0.0393,-0.22179,107.25951,-3.70881,-1.86212,0.17129
2018.03.21 15:18:05,-37.92,-13.38,-20.16,-0.30647,1.15883,8.8253,0.0821,-0.034,-0.17964,108.21111,-4.34649,-1.49855,1005.36694
2018.03.21 15:18:05,-37.26,-13.14,-20.34,-0.31604,1.34319,9.21796,0.0424,-0.02362,0.00179,108.64032,-5.02503,-1.40894,0.0424
2018.03.21 15:18:05,-37.98,-11.4,-19.38,0.1269,1.47248,10.4534,0.01369,-0.05538,0.20032,107.28609,-5.90786,-1.03711,1005.36743
2018.03.21 15:18:05,-38.22,-8.82,-21.24,0.52435,0.20591,12.48854,-0.15186,-0.0957,0.37625,104.55112,-5.98398,-0.06571,1005.3606
2018.03.21 15:18:05,-37.98,-8.4,-20.52,-0.07183,0.41182,9.43105,0.15235,0.01548,0.20887,103.14973,-5.7056,0.37867,0.15235
2018.03.21 15:18:05,-37.02,-7.68,-20.28,-0.68716,-0.38787,9.44541,-0.05168,0.01242,-0.11794,102.88777,-4.78152,-0.28735,-0.05168
2018.03.21 15:18:06,-35.76,-7.74,-21.3,-0.30647,1.00799,8.76544,-0.08894,0.00509,0.00362,102.66237,-2.8808,-1.53899,1005.37109
2018.03.21 15:18:06,-34.62,-6.6,-21.42,-0.45012,0.90504,9.22754,-0.04557,0.04297,-0.09473,102.49937,-3.37445,-1.43754,-0.04557
2018.03.21 15:18:06,-33.9,-6.6,-22.14,-0.36154,1.52036,9.46696,-0.06573,0.04602,-0.06235,102.72799,-4.11006,-2.05319,-0.06573
2018.03.21 15:18:06,-32.58,-7.62,-23.04,-0.60336,1.59219,10.50847,0.15907,-0.08165,0.06471,102.27132,-5.81054,-1.69057,0.15907
2018.03.21 15:18:06,-30.96,-8.64,-22.56,0.45012,1.33122,11.44703,-0.19218,-0.07493,-0.09229,101.18379,-7.12006,-0.54427,-0.19218
2018.03.21 15:18:06,-31.14,-8.34,-21.78,-0.20351,-0.99841,11.36083,-0.15064,-0.18855,-0.1998,102.00816,-6.12572,0.12028,-0.15064
2018.03.21 15:18:06,-30.06,-9.78,-22.02,0.48604,0.3352,9.71118,-0.02052,0.07901,-0.11306,102.50667,-5.15807,-0.21873,-0.02052
2018.03.21 15:18:06,-29.22,-10.14,-22.14,-0.14845,0.58899,9.22993,0.10715,0.05335,-0.07396,103.42204,-4.08326,0.27678,0.10715
2018.03.21 15:18:06,-27.54,-11.28,-22.5,0.22746,0.83321,8.78699,0.11875,0.04358,-0.05441,103.91266,-4.71455,-0.10628,0.11875
2018.03.21 15:18:06,-27.3,-11.7,-21.84,0.22506,1.59938,9.58428,-0.00708,0.08695,-0.03364,104.74998,-5.14196,-0.09504,1005.36475
2018.03.21 15:18:07,-27.18,-12.18,-20.4,0.05267,1.43656,10.19482,0.14685,-0.12747,0.02928,105.37042,-6.98003,0.71862,1005.36743
2018.03.21 15:18:07,-27.54,-12.6,-19.44,1.02475,1.20911,11.97137,-0.2832,0.02708,0.02134,104.78654,-6.71636,1.22014,1005.37231
2018.03.21 15:18:07,-26.7,-13.02,-18.48,-0.26337,0.84997,8.56672,0.2,0.01792,0.12091,105.87495,-6.10271,1.27413,0.2
2018.03.21 15:18:07,-24.72,-13.98,-19.02,-0.47646,-0.07901,8.89952,0.0424,-0.00651,0.01278,106.46633,-5.3617,0.56307,1005.37158
2018.03.21 15:18:07,-25.08,-14.16,-19.14,-0.21309,0.82602,9.12458,-0.02663,0.0674,0.07631,107.1487,-3.23789,-0.55588,1005.36963
2018.03.21 15:18:07,-25.5,-13.86,-18.12,-0.23943,1.05827,9.48133,-0.07978,0.07107,0.01645,107.74306,-3.77796,-0.94339,-0.07978
2018.03.21 15:18:07,-25.08,-15.06,-18.36,0.20112,1.80528,9.81413,-0.02358,0.00387,0.04577,108.534,-4.64169,-1.18718,-0.02358
2018.03.21 15:18:07,-25.14,-15,-17.34,-0.249,1.60895,10.11821,0.07294,-0.07676,0.01828,109.55119,-6.50619,-0.72309,0.07294
2018.03.21 15:18:07,-26.4,-15.9,-17.82,0.46449,0.53153,11.09268,0.02102,-0.04805,0.0702,110.16147,-6.8434,-0.32965,0.02102
2018.03.21 15:18:08,-25.98,-16.5,-17.82,1.12291,-0.50998,9.9123,0.05828,-0.22215,-0.03731,111.26968,-6.04912,1.14247,0.05828
2018.03.21 15:18:08,-27,-16.92,-16.92,0.21309,0.13647,9.96737,-0.13476,0.00509,-0.23767,113.67446,-4.6724,1.13072,-0.13476
2018.03.21 15:18:08,-26.82,-17.46,-17.34,0.38548,1.14925,8.57629,0.08882,-0.00774,-0.07457,114.72526,-4.80861,1.81508,0.08882
2018.03.21 15:18:08,-27.96,-17.34,-17.7,0.39027,0.98405,8.56432,0.06927,0.07962,0.02805,115.72603,-5.15081,1.30618,0.06927
2018.03.21 15:18:08,-28.08,-18.24,-16.86,0.16999,1.67599,9.69442,-0.00892,0.06251,-0.03242,116.34605,-5.67,1.14847,1005.35327
2018.03.21 15:18:08,-28.2,-17.64,-18,-0.09098,2.06626,9.57949,0.18656,0.07656,0.13618,116.09615,-7.64192,0.98214,1005.34912
2018.03.21 15:18:08,-28.56,-18.06,-18.3,0.09338,-0.43576,13.24273,-0.38277,0.04602,-0.0367,115.62051,-7.34969,0.76351,1005.3584
2018.03.21 15:18:08,-29.46,-18.06,-18.36,0.54589,0.78772,8.37757,0.30262,0.0338,0.22414,115.26618,-7.79465,0.52819,0.30262
2018.03.21 15:18:08,-30,-18.42,-18.3,-0.71589,-0.14605,9.67526,-0.12987,-0.04317,0.01645,115.75732,-7.11073,0.33446,-0.12987
2018.03.21 15:18:09,-30.24,-18,-18.6,-0.24422,1.13489,8.25546,-0.02358,0.09855,0.16611,115.32321,-5.54879,-0.66028,1005.35962
2018.03.21 15:18:09,-31.56,-16.98,-19.38,0.00239,1.22587,9.285,-0.23677,0.02586,0.02867,114.89462,-4.98939,-0.50955,-0.23677
2018.03.21 15:18:09,-31.74,-16.98,-19.74,-0.07662,1.56825,9.71836,-0.1708,0.06923,-0.09412,115.28993,-5.00509,-0.50809,-0.1708
2018.03.21 15:18:09,-34.32,-16.44,-19.08,-0.31365,1.17559,10.63537,0.19145,-0.05966,0.07204,115.34312,-5.96631,-0.36874,0.19145
2018.03.21 15:18:09,-34.5,-16.08,-20.22,-0.01676,0.60336,10.66649,-0.11399,-0.0957,-0.03792,115.19833,-5.84936,0.04242,-0.11399
2018.03.21 15:18:09,-35.4,-14.76,-19.26,0.77814,-1.01517,9.7423,0.13341,-0.03217,-0.10267,115.55295,-5.40039,0.48098,0.13341
2018.03.21 15:18:09,-36.36,-13.14,-20.7,0.15802,0.41182,9.7854,-0.00586,0.00692,-0.10817,115.55313,-4.52828,0.01324,-0.00586
2018.03.21 15:18:09,-36.3,-12.48,-20.1,0.09338,0.78053,8.61221,0.10531,0.14254,-0.06968,114.95613,-4.68444,-0.11785,0.10531
2018.03.21 15:18:09,-35.64,-11.1,-20.46,0.11014,0.96729,9.3257,-0.06634,-0.02851,0.02561,114.18544,-4.67385,-0.38803,1005.36377
2018.03.21 15:18:09,-35.16,-7.44,-20.76,0.13408,1.94655,10.30735,0.09249,0.08939,0.05066,112.42393,-5.7428,-0.09007,0.09249
2018.03.21 15:18:10,-33.84,-6.36,-21.3,0.27295,1.99683,10.89874,0.13036,0.0503,0.26568,109.44181,-7.45135,-0.29762,1005.35083
2018.03.21 15:18:10,-30.84,-3.84,-20.82,-0.02873,-0.73983,10.73114,-0.11643,0.13643,-0.03425,107.53657,-6.5264,-1.10128,1005.34717
2018.03.21 15:18:10,-27.54,-1.44,-21.36,-0.46449,-0.05746,8.77981,0.04667,-0.13663,0.16061,105.06552,-5.74322,-0.61762,0.04667
2018.03.21 15:18:10,-25.5,-2.52,-20.04,-0.68716,0.28492,9.40711,-0.06389,-0.1067,0.09281,104.12595,-2.70508,-1.61789,-0.06389
2018.03.21 15:18:10,-24,-3.06,-20.22,-0.02634,0.98644,8.87318,-0.07061,0.03502,0.04394,102.51119,-2.27841,-2.11568,-0.07061
2018.03.21 15:18:10,-23.16,-5.4,-19.86,-0.12211,1.34319,9.48851,-0.07245,0.00815,-0.10328,102.38661,-3.00002,-1.84135,-0.07245
2018.03.21 15:18:10,-21.78,-6.66,-20.22,-0.62251,1.25939,10.15412,0.01674,-0.00407,-0.19858,103.06276,-4.64397,-1.72838,0.01674
2018.03.21 15:18:10,-22.86,-8.7,-20.76,-0.35435,1.24502,10.4558,0.17495,-0.03767,0.09953,103.22111,-6.2687,-1.96654,0.17495
2018.03.21 15:18:10,-24.12,-11.04,-22.02,0.14845,0.20112,11.43266,-0.00708,-0.315,0.17772,102.98267,-5.14005,-1.34306,-0.00708
2018.03.21 15:18:11,-26.04,-12.18,-22.14,0.07183,-0.17239,8.8253,0.00635,-0.00163,-0.20713,104.21005,-5.72145,-0.89469,0.00635
2018.03.21 15:18:11,-26.04,-14.4,-23.94,0.15323,0.89306,9.42147,0.03079,-0.10853,-0.12833,105.99744,-5.14887,-0.5719,0.03079
2018.03.21 15:18:11,-27.42,-15.6,-23.94,-0.1676,0.89546,9.06472,0.05583,0.02769,-0.1436,107.72332,-5.77784,-0.85036,1005.34448
2018.03.21 15:18:11,-29.04,-16.14,-23.7,-0.05746,1.59219,9.39274,-0.09505,-0.00651,-0.01898,108.76583,-5.96502,-0.94052,1005.3501
2018.03.21 15:18:11,-31.14,-16.14,-24.72,-0.33999,1.68078,10.76945,0.15541,-0.00041,0.24797,109.06296,-6.60837,-1.16482,0.15541
2018.03.21 15:18:11,-32.7,-16.2,-25.26,0.41182,1.60656,10.98733,0.07233,0.05518,0.32066,107.58142,-7.63014,-1.26645,1005.35449
2018.03.21 15:18:11,-34.5,-14.88,-25.98,-0.47646,-0.34478,10.25707,-0.14147,-0.09448,-0.04403,107.86015,-6.54405,-0.9577,1005.35815
2018.03.21 15:18:11,-37.86,-15.66,-26.52,-0.76377,-0.46688,9.3688,-0.07611,-0.10242,-0.14604,107.83999,-5.24354,-0.69195,-0.07611
2018.03.21 15:18:11,-38.82,-14.88,-26.4,-0.16999,0.86194,8.42066,0.11814,0.00448,0.16489,107.73541,-2.63,-1.76023,0.11814
2018.03.21 15:18:12,-41.52,-14.94,-27.12,-0.03352,1.10137,9.1581,0.00941,-0.02362,0.06959,107.3354,-3.1329,-1.55432,1005.34863
2018.03.21 15:18:12,-42.9,-13.86,-26.7,-0.53153,1.36474,9.25627,-0.06267,0.03747,-0.11183,107.72544,-3.76369,-1.71284,-0.06267
2018.03.21 15:18:12,-44.34,-12.48,-28.02,-0.23224,1.4198,9.97215,0.13647,-0.07737,0.02989,107.44884,-5.33771,-1.73893,0.13647
2018.03.21 15:18:12,-45.9,-11.16,-26.94,0.40224,1.18277,10.76227,0.0033,-0.10914,0.08731,106.22506,-6.92499,-1.16341,0.0033
2018.03.21 15:18:12,-47.64,-9.66,-25.08,0.01197,-0.74701,10.41031,0.08393,0.00021,-0.13871,106.04552,-6.08325,-0.10769,0.08393
2018.03.21 15:18:12,-47.76,-9.12,-25.56,0.35675,0.13887,9.00247,0.03995,0.18835,-0.1326,105.90546,-5.35894,-0.63051,0.03995
2018.03.21 15:18:12,-46.02,-9.06,-26.94,0.19872,0.56265,8.95219,-0.03091,0.08634,-0.16254,106.11566,-4.54914,-0.94772,-0.03091
2018.03.21 15:18:12,-45.12,-8.7,-27.36,0.23943,1.09179,9.23472,-0.03579,0.01487,-0.07946,105.48343,-4.11875,-1.16823,1005.36353
2018.03.21 15:18:12,-45.36,-8.58,-27.06,0.01197,1.65205,9.90033,-0.05412,0.02403,-0.08801,105.16431,-4.72367,-0.44072,1005.36621
2018.03.21 15:18:12,-45.66,-7.98,-26.22,-0.25858,1.68796,10.77903,0.15541,-0.08532,0.09891,103.99168,-7.00004,0.16885,1005.3584
2018.03.21 15:18:13,-44.7,-6.06,-23.76,0.70631,1.53234,10.82452,-0.02174,0.08267,0.32494,101.26122,-8.55118,1.15813,1005.354
2018.03.21 15:18:13,-42.96,-4.26,-24.12,-0.32802,0.05507,9.4502,0.04423,0.05518,0.06471,99.98879,-7.66469,0.7763,1005.35742
2018.03.21 15:18:13,-41.34,-3.42,-23.88,-0.8787,-0.47646,8.90431,-0.04618,-0.05599,0.0586,98.59106,-6.39843,0.04504,-0.04618
2018.03.21 15:18:13,-40.62,-2.88,-24.06,-0.06225,0.85715,8.89952,-0.11032,0.00021,0.25041,96.98344,-2.79416,-1.41516,-0.11032
2018.03.21 15:18:13,-39.18,-1.8,-23.58,0.05507,1.11334,9.3664,-0.18362,0.0222,0.05127,95.79943,-2.36649,-1.16681,1005.36523
2018.03.21 15:18:13,-38.28,-0.78,-23.4,-0.37351,1.24263,9.70878,-0.19951,0.07412,-0.11183,95.74754,-1.88168,-1.31948,-0.19951
2018.03.21 15:18:13,-37.2,-1.32,-24.48,-0.43336,1.50121,10.30975,0.05278,0.00265,-0.03853,95.4898,-3.94807,-1.25441,0.05278
2018.03.21 15:18:13,-36.78,-3.18,-23.52,0.50998,1.34798,11.1669,-0.04984,-0.04805,0.10075,94.43391,-6.15121,-0.55565,-0.04984
2018.03.21 15:18:13,-34.74,-4.56,-23.82,0.05746,-0.33759,11.06155,-0.13109,-0.08348,-0.16376,94.88839,-5.51887,0.01156,-0.13109
2018.03.21 15:18:14,-34.62,-6.06,-24.3,0.39027,-0.3328,9.07909,0.02346,0.08023,-0.26944,96.01822,-5.33333,-0.16839,0.02346
2018.03.21 15:18:14,-33.72,-8.1,-25.2,-0.08859,0.66321,9.03839,0.11509,0.0393,-0.07824,97.62942,-4.44599,-0.36812,0.11509
2018.03.21 15:18:14,-32.58,-9.24,-24.72,-0.17478,0.94813,8.84924,-0.02602,0.02464,-0.04586,98.4213,-4.81888,-0.79632,-0.02602
2018.03.21 15:18:14,-33.24,-10.56,-25.32,0.02155,1.21869,9.34485,-0.02358,0.04113,0.05493,98.69549,-4.81662,-0.95529,-0.02358
2018.03.21 15:18:14,-33.24,-11.28,-25.74,-0.36154,1.43656,10.58988,0.07477,0.06984,0.05188,98.62128,-5.87331,-0.8117,0.07477
2018.03.21 15:18:14,-34.14,-11.82,-26.34,0.06225,1.46769,10.96817,-0.13842,-0.0169,0.22659,97.70551,-7.07423,-0.84867,-0.13842
2018.03.21 15:18:14,-34.56,-11.52,-26.46,-0.28731,-0.78532,11.22436,-0.12376,-0.04011,-0.01165,97.97469,-6.17728,-0.7128,-0.12376
2018.03.21 15:18:14,-35.52,-11.64,-26.16,-0.64645,-0.1269,8.7822,0.06622,0.04541,0.0079,98.26215,-5.36335,-0.90093,0.06622
2018.03.21 15:18:14,-36.54,-13.56,-28.56,-0.44534,0.53392,9.17726,-0.0077,-0.03156,0.10319,99.16776,-2.84327,-1.85059,-0.0077
2018.03.21 15:18:14,-37.02,-11.46,-27.78,-0.01197,0.90982,9.34725,-0.09199,-0.1128,0.04272,99.27099,-2.92333,-1.82703,1005.37354
2018.03.21 15:18:15,-37.38,-12.06,-28.98,-0.23224,1.48684,9.41189,-0.04862,0.09672,-0.04281,99.97394,-3.53261,-1.83744,1005.37817
2018.03.21 15:18:15,-39.18,-11.58,-29.88,-0.52435,1.48924,10.10145,0.06561,-0.00774,-0.02265,100.52052,-5.55483,-1.84597,1005.37207
2018.03.21 15:18:15,-39.72,-10.8,-29.22,0.84278,1.33601,10.74072,0.01063,-0.12441,0.17466,99.85392,-6.83893,-1.22383,1005.37378
2018.03.21 15:18:15,-40.2,-10.74,-29.58,-0.83321,-0.43097,10.4151,-0.17752,-0.13296,-0.45209,101.82739,-5.26451,-0.09082,-0.17752
2018.03.21 15:18:15,-40.56,-11.46,-29.76,-0.62491,-0.24182,9.50288,-0.01991,-0.01201,-0.2053,103.13777,-4.17495,-0.3752,1005.36646
2018.03.21 15:18:15,-40.5,-10.08,-30.36,0.09817,0.69195,9.18444,0.02957,0.04663,0.06837,102.81344,-3.65406,-0.87071,1005.36914
2018.03.21 15:18:15,-39.9,-8.58,-30.12,0.11253,0.69913,9.00247,0.03201,0.03991,-0.05014,102.73961,-3.98768,-0.96763,0.03201
2018.03.21 15:18:15,-39.9,-8.58,-30.84,0.72068,1.40783,9.14374,0.00452,-0.05294,-0.03242,102.14561,-4.68802,0.11858,0.00452
2018.03.21 15:18:15,-40.38,-8.7,-31.26,-0.26098,1.4629,10.32651,0.09249,-0.01568,0.04088,101.79716,-5.91441,0.72616,0.09249
2018.03.21 15:18:16,-39.9,-6.9,-32.34,0.13408,1.25221,11.42548,0.05339,0.08756,0.30172,100.18338,-6.56333,0.13405,0.05339
2018.03.21 15:18:16,-38.88,-5.34,-33.36,0.03831,-0.36154,9.30415,0.11326,0.01548,0.036,99.47842,-5.43555,-0.19685,0.11326
2018.03.21 15:18:16,-37.86,-4.44,-34.02,-1.35277,-0.30886,8.97374,-0.18057,-0.00651,-0.24256,99.59584,-2.31156,-1.33919,-0.18057
2018.03.21 15:18:16,-36.3,-3.66,-33.96,-0.43097,0.56505,8.95459,-0.04923,0.1065,0.11602,98.68989,-0.81361,-2.65867,-0.04923
2018.03.21 15:18:16,-35.04,-2.28,-34.2,-0.39027,0.86433,9.12698,-0.07489,0.00326,0.06226,97.67876,-0.9409,-2.75277,1005.35693
2018.03.21 15:18:16,-34.08,-1.56,-34.44,-0.39027,1.36234,10.01765,-0.13292,0.04174,0.01278,96.9582,-2.09129,-2.67207,1005.3501
2018.03.21 15:18:16,-33.72,-1.74,-35.16,-0.17478,1.06066,10.12539,0.14746,-0.03156,0.08364,95.98933,-4.2318,-2.47902,1005.35522
2018.03.21 15:18:16,-32.64,-1.38,-35.34,-0.26337,0.23703,12.08151,-0.38399,-0.13541,-0.12222,95.32016,-4.09497,-1.07776,1005.35181
2018.03.21 15:18:16,-32.4,-2.16,-33.84,-0.25858,-1.05348,10.22116,0.10287,-0.00529,-0.03364,95.55595,-3.44798,-0.58242,0.10287
2018.03.21 15:18:17,-31.26,-3.12,-34.26,-0.11732,-0.15323,9.26345,0.02774,-0.05538,-0.05075,96.07758,-2.65128,-1.29276,0.02774
2018.03.21 15:18:17,-30.84,-3.36,-34.62,-0.1676,0.64885,8.84445,0.10654,0.06435,-0.11733,96.35857,-2.42636,-1.09612,1005.35962
2018.03.21 15:18:17,-29.4,-4.86,-35.4,-0.33041,0.42139,8.93304,0.03873,0.04358,-0.11611,97.07227,-2.82586,-1.54443,0.03873
2018.03.21 15:18:17,-28.92,-5.34,-35.88,-0.23224,1.34798,9.45499,0.00819,0.09061,0.05066,96.79642,-3.29342,-1.827,0.00819
2018.03.21 15:18:17,-29.76,-5.52,-35.1,-0.32562,1.25699,10.26186,0.05583,0.02586,0.16122,96.08512,-4.50087,-1.77907,0.05583
2018.03.21 15:18:17,-27.9,-4.86,-35.76,0.11971,0.34478,12.3808,-0.07123,-0.03522,-0.18514,95.31123,-4.62191,-1.36535,-0.28258
2018.03.21 15:18:17,-27.24,-5.94,-35.34,-0.29689,-0.14605,8.28419,0.19511,-0.15312,0.09036,95.46993,-4.8649,-0.96038,0.19511
2018.03.21 15:18:17,-27.24,-6.18,-34.62,-0.89306,-0.72307,9.69442,-0.12742,-0.1012,-0.07701,96.14608,-0.94622,-1.98927,-0.12742
2018.03.21 15:18:17,-27.78,-5.7,-35.22,-0.15563,0.60336,8.78459,0.02468,0.01731,0.18016,95.6892,0.10299,-2.79563,0.02468
2018.03.21 15:18:17,-28.14,-5.76,-34.92,-0.40463,0.68476,9.22993,-0.09749,0.05763,0.02072,95.81945,-0.36349,-2.70432,-0.09749
2018.03.21 15:18:18,-28.32,-6,-35.52,-0.11014,1.18517,9.88836,-0.10421,-0.00346,0.02867,96.18001,-1.89871,-2.71081,1005.3562
2018.03.21 15:18:18,-28.5,-5.7,-35.1,-0.23703,0.98884,10.14694,0.03079,-0.02484,-0.08862,96.90424,-3.25053,-2.22231,1005.36182
2018.03.21 15:18:18,-28.38,-5.22,-34.56,0.26576,0.18675,12.2539,-0.32901,-0.25025,-0.11244,97.01914,-3.11626,-0.56872,1005.36694
2018.03.21 15:18:18,-29.04,-6.36,-34.26,-0.5435,-1.37192,9.66808,0.36554,0.28609,0.025,98.18768,-3.34778,-0.66521,0.36554
2018.03.21 15:18:18,-28.38,-6.42,-34.68,0.26576,0.0431,9.89554,0.01857,0.13521,-0.06296,98.3116,-2.47713,-1.76401,1005.36841
2018.03.21 15:18:18,-28.2,-6.78,-35.34,-0.00479,0.72786,8.29377,0.14075,0.06435,-0.01104,98.30681,-2.86716,-2.04757,1005.375
2018.03.21 15:18:18,-27.9,-7.5,-35.22,-0.23464,0.78772,9.04318,-0.00036,-0.10853,-0.05014,99.00994,-2.98078,-1.59797,-0.00036
2018.03.21 15:18:18,-28.74,-7.44,-34.74,-0.34956,1.16601,9.55316,-0.00708,0.0167,0.0867,98.97913,-3.65974,-1.24679,-0.00708
2018.03.21 15:18:18,-28.5,-7.56,-34.68,0.55308,1.15165,10.82212,0.13097,-0.12441,0.37564,97.5005,-4.56609,-1.05289,0.13097
2018.03.21 15:18:19,-28.62,-6.42,-35.1,0.39984,-0.3328,12.0456,-0.20745,-0.04072,0.07509,96.67523,-4.06016,-0.50563,-0.20745
2018.03.21 15:18:19,-30.36,-7.02,-34.2,-0.25619,-0.01197,7.79097,0.29713,0.07962,0.17161,96.53543,-4.57482,0.53638,0.29713
2018.03.21 15:18:19,-29.4,-6.42,-33.24,-0.59378,-0.64167,9.85244,-0.16591,0.10466,0.01828,96.78942,-3.11603,-0.07689,-0.16591
2018.03.21 15:18:19,-30.48,-6.12,-32.76,0.39027,0.94574,8.47094,0.04912,-0.03706,0.16061,95.99973,-1.93075,-0.66292,0.04912
2018.03.21 15:18:19,-30.66,-5.52,-32.52,-0.19872,1.08461,9.37598,-0.08589,0.03625,-0.02204,96.24635,-2.49655,-0.32959,-0.08589
2018.03.21 15:18:19,-29.7,-5.94,-32.16,-0.11014,1.26897,10.50368,-0.07794,0.2079,-0.09412,96.92983,-3.54879,-1.12441,-0.07794
2018.03.21 15:18:19,-30.48,-6.48,-31.62,0.42139,1.81007,10.37679,0.38143,-0.10181,0.19665,96.71301,-5.98134,-1.02722,1005.35059
2018.03.21 15:18:19,-30.3,-6.06,-29.94,0.34717,0.05986,11.83729,-0.20195,-0.12197,-0.17964,96.72484,-5.85745,-0.25342,1005.34717
2018.03.21 15:18:19,-30.36,-6.3,-29.82,0.52913,-0.24182,7.89392,0.19389,0.1346,-0.1552,97.90248,-5.8406,0.05337,0.19389
2018.03.21 15:18:20,-30.84,-7.08,-28.98,0.38069,0.30886,9.65372,-0.12376,-0.06821,-0.17903,98.82553,-4.79487,0.45538,1005.3501
2018.03.21 15:18:20,-29.4,-7.8,-27.96,0.18675,1.10615,8.54517,0.10043,0.10466,-0.08007,100.05684,-4.90341,-0.28207,1005.35425
2018.03.21 15:18:20,-28.92,-7.86,-28.44,-0.10535,1.22587,9.21556,-0.02541,0.08634,-0.05563,100.74119,-4.77619,-1.069,-0.02541
2018.03.21 15:18:20,-28.56,-8.04,-28.14,-0.43336,1.50839,9.81413,0.09982,0.0955,0.07082,100.83709,-5.76253,-1.49252,0.09982
2018.03.21 15:18:20,-28.92,-6.72,-28.14,0.51237,1.98725,10.41988,-0.11582,-0.01323,0.31394,98.97191,-7.17971,-1.40387,-0.11582
2018.03.21 15:18:20,-29.46,-6.3,-28.38,-0.67997,-0.76377,10.51087,-0.20928,-0.08715,-0.11977,98.6743,-6.12668,-1.06684,-0.20928
2018.03.21 15:18:20,-28.8,-6.84,-28.68,-0.84757,-0.36872,8.73431,0.08149,0.0955,0.0531,97.87614,-5.93219,-1.51641,0.08149
2018.03.21 15:18:20,-27.6,-6,-28.86,-0.53392,0.11253,9.62498,0.01307,-0.08532,0.12763,97.49686,-2.39004,-2.51808,0.01307
2018.03.21 15:18:20,-27.3,-5.76,-29.04,0.0838,0.95292,9.38316,-0.02785,-0.09265,0.08914,96.81229,-2.58549,-2.31246,-0.02785
2018.03.21 15:18:20,-27.84,-5.34,-28.86,-0.59139,1.03672,8.86361,-0.10238,0.04052,-0.09839,97.30644,-3.19004,-2.03161,-0.10238
2018.03.21 15:18:21,-27.36,-5.22,-28.98,0.07901,1.83641,9.87638,-0.08711,-0.02545,-0.05563,97.65398,-4.18036,-2.24628,1005.34937
2018.03.21 15:18:21,-27.18,-5.76,-29.58,-0.50998,1.8819,10.49411,0.05461,-0.05538,-0.22729,98.49389,-6.4789,-1.75224,1005.34717
2018.03.21 15:18:21,-27.84,-5.64,-30.06,-0.28492,1.06785,11.45182,-0.18301,-0.09265,-0.22423,98.43799,-6.11844,-0.80557,1005.35449
2018.03.21 15:18:21,-25.98,-6.9,-29.7,0.71828,-0.76377,9.04796,0.35455,0.25127,-0.01532,99.70865,-6.08437,-0.77945,0.35455
2018.03.21 15:18:21,-24.54,-7.62,-31.08,0.1269,0.38069,8.96177,-0.06206,0.01975,-0.19491,100.4912,-5.38317,-0.97806,-0.06206
2018.03.21 15:18:21,-24.48,-8.22,-30.06,-0.44055,0.7518,9.00247,0.08088,0.11688,-0.12405,101.5247,-5.27617,-1.47128,1005.35449
2018.03.21 15:18:21,-23.88,-8.76,-31.2,-0.14366,1.13967,8.93304,-0.00953,0.02647,-0.01287,101.93759,-5.24897,-1.94041,-0.00953
2018.03.21 15:18:21,-23.34,-9.3,-31.02,-0.74223,1.42459,9.50767,-0.1036,0.02586,-0.14726,102.6431,-5.50358,-1.69874,-0.1036
2018.03.21 15:18:21,-22.98,-8.94,-31.26,0.10295,1.95373,10.93944,0.08699,0.01487,0.19299,102.10952,-6.31124,-1.70722,1005.34985
2018.03.21 15:18:22,-21.36,-8.94,-30.48,-0.28492,0.48843,11.43745,-0.00831,0.02953,0.2834,100.85659,-7.41259,-1.30045,-0.00831
2018.03.21 15:18:22,-21.36,-9.3,-30.96,-0.56505,-0.54111,9.68005,0.03079,0.0057,0.07937,101.12295,-5.69691,-1.44809,0.03079
2018.03.21 15:18:22,-21,-9.96,-30.66,-0.4621,-0.14126,9.29457,-0.08222,-0.03889,0.02867,101.56884,-1.5095,-1.84976,-0.08222
2018.03.21 15:18:22,-20.34,-10.02,-30.18,-0.53632,0.33759,9.58428,-0.00831,0.00021,0.03111,102.39833,-0.5937,-2.06663,-0.00831
2018.03.21 15:18:22,-19.86,-10.32,-30.6,-0.31604,0.69434,8.99768,-0.10421,0.07229,-0.05624,103.38249,-1.26541,-2.3369,-0.10421
2018.03.21 15:18:22,-20.22,-10.44,-29.88,-0.46449,1.50839,9.88596,-0.12987,0.06374,-0.04158,104.64676,-1.86234,-3.07925,1005.35742
2018.03.21 15:18:22,-19.5,-10.62,-28.74,-0.59378,1.50121,10.02962,0.03079,0.03869,-0.08068,105.65002,-4.65446,-3.00928,1005.35693
2018.03.21 15:18:22,-20.22,-11.34,-28.14,-0.53153,1.40544,10.27862,0.1383,-0.09998,0.0305,106.64618,-6.12625,-3.10638,1005.35596
2018.03.21 15:18:22,-18.9,-13.02,-28.26,-0.45491,0.81884,11.42069,0.0033,-0.12624,-0.25905,107.92029,-6.41635,-2.42055,0.0033
2018.03.21 15:18:23,-18.6,-14.52,-26.52,-0.35675,-0.86673,8.60742,0.33928,0.1462,-0.10267,110.44355,-6.40163,-2.52422,0.33928
2018.03.21 15:18:23,-19.02,-16.38,-26.28,-0.60815,0.73983,9.7854,-0.01564,-0.02728,0.014,111.86414,-5.01413,-2.5234,1005.3623
2018.03.21 15:18:23,-19.74,-16.44,-25.32,-0.7925,1.15165,9.17247,0.0424,0.02097,0.19482,112.02238,-4.98568,-2.47999,0.0424
2018.03.21 15:18:23,-20.46,-15.54,-24.78,0.09338,0.82124,10.00328,0.02529,-0.02301,0.39091,111.20798,-5.26483,-2.78325,0.02529
2018.03.21 15:18:23,-21.18,-15.12,-24,-0.32323,0.97447,9.39753,-0.00342,0.08267,0.3005,110.05592,-5.62647,-2.8117,-0.00342
2018.03.21 15:18:23,-21.84,-13.98,-23.88,-0.2107,1.52276,9.68724,-0.0419,0.01853,0.35975,108.96851,-5.67633,-2.81551,-0.0419
2018.03.21 15:18:23,-22.26,-14.52,-24,-0.88109,0.97926,9.52203,-0.00098,-0.02973,0.40496,107.41397,-5.94542,-2.4264,-0.00098
2018.03.21 15:18:23,-24.06,-12.24,-22.98,-1.2977,0.59617,9.72554,-0.02174,-0.28934,1.03171,103.24348,-4.86559,-0.96117,-0.02174
2018.03.21 15:18:23,-26.1,-8.52,-22.38,-0.87391,0.71349,8.94262,0.23237,0.02525,1.72687,94.46652,-4.89973,-0.63477,0.23237
2018.03.21 15:18:24,-26.04,-4.74,-23.46,-1.52994,-0.05746,9.59386,0.18412,0.27204,1.48741,86.62905,-5.77311,-1.49,0.18412
2018.03.21 15:18:24,-23.58,-0.48,-25.08,-1.49403,0.86433,10.07271,0.05278,0.4046,1.55461,77.97512,-5.7985,-3.57784,0.05278
2018.03.21 15:18:24,-22.68,2.64,-25.86,-1.07742,0.55547,9.23232,0.02346,0.42048,1.62547,68.78429,-6.39684,-5.66801,1005.35205
2018.03.21 15:18:24,-20.16,7.26,-27.12,-0.71589,0.95292,9.63456,-0.13292,0.23539,1.54422,60.14838,-6.25878,-6.28924,1005.34863
2018.03.21 15:18:24,-17.7,10.08,-27.78,-0.58181,0.92898,9.64893,-0.24349,0.30503,1.21985,51.98782,-5.84759,-6.94498,-0.24349
2018.03.21 15:18:24,-14.4,12.6,-29.34,0.44534,1.20671,9.11261,-0.23616,-0.01873,0.96451,45.28213,-5.23208,-7.29702,-0.23616
2018.03.21 15:18:24,-13.5,13.86,-28.38,0.0431,1.13728,11.13098,-0.35039,-0.16351,0.56012,41.27313,-4.3853,-4.98077,1005.32837
2018.03.21 15:18:24,-13.32,15.66,-27.6,0.64645,0.30168,11.35126,-0.11948,-0.58867,0.56867,37.63477,-4.08514,-1.13605,-0.11948
2018.03.21 15:18:24,-14.28,17.52,-26.82,-0.74462,-1.31925,11.40154,-0.08466,-0.43168,0.11602,37.18044,-1.74698,0.89903,-0.08466
2018.03.21 15:18:24,-13.56,16.74,-27.18,0.27295,-0.43097,8.04716,0.34722,0.10711,0.24797,35.98418,-2.3843,0.663,1005.35156
2018.03.21 15:18:25,-13.62,16.14,-27.18,0.6273,0.42379,9.43344,0.00635,-0.11036,0.19726,34.84963,-1.88069,1.27039,0.00635
2018.03.21 15:18:25,-13.32,16.98,-27.96,0.84278,0.38787,9.19162,0.08393,0.14009,0.04882,34.36616,-2.39524,0.80951,0.08393
2018.03.21 15:18:25,-13.62,15.72,-28.26,0.53153,1.17798,9.37119,0.04117,-0.0505,0.12091,34.00091,-3.24603,1.91535,0.04117
2018.03.21 15:18:25,-12.9,14.82,-28.68,0.19872,1.4629,9.51485,0.1102,0.18713,0.01706,33.70002,-5.21782,1.66753,0.1102
2018.03.21 15:18:25,-12.42,15.12,-28.92,-0.12211,1.56586,10.14215,0.2281,0.29586,0.49048,32.25401,-6.66086,0.7996,0.2281
2018.03.21 15:18:25,-10.5,14.34,-29.7,-0.10056,-0.87391,12.97458,-0.18362,0.15109,0.23025,30.46026,-6.50464,0.03264,-0.18362
2018.03.21 15:18:25,-9.96,14.52,-30.42,0.36393,0.5028,8.61699,0.23115,0.10222,0.35303,29.11522,-6.83469,-0.30065,1005.35205
2018.03.21 15:18:25,-10.08,13.8,-29.22,-1.06066,0.11493,9.50767,-0.1543,0.1291,-0.1552,30.21781,-5.77213,-1.57903,1005.35205
2018.03.21 15:18:25,-10.2,13.26,-29.52,-0.42858,0.93377,8.27461,-0.12865,-0.0505,0.08242,30.54158,-5.18023,-2.60294,-0.12865
2018.03.21 15:18:26,-9.78,14.1,-29.52,-0.48604,1.34558,9.22275,-0.16347,0.03991,-0.05686,31.14556,-4.33545,-2.80813,1005.34888
2018.03.21 15:18:26,-10.44,13.68,-28.62,-0.98644,0.96968,10.15651,-0.05107,0.01548,-0.12955,32.34674,-4.8316,-3.19056,1005.35498
2018.03.21 15:18:26,-10.44,13.38,-28.26,-0.1245,1.42459,10.81254,0.15052,-0.09753,0.11785,32.56715,-5.84866,-3.01761,0.15052
2018.03.21 15:18:26,-10.8,12.84,-29.28,-0.65843,-0.93856,11.17647,0.09432,-0.20077,-0.11367,34.12381,-5.53419,-2.28785,0.09432
2018.03.21 15:18:26,-10.44,11.88,-28.56,0.0407,-0.5842,8.05434,0.11936,0.12543,-0.15643,34.98243,-5.5126,-2.56713,0.11936
2018.03.21 15:18:26,-10.68,11.64,-30.18,-0.53632,1.11334,9.20838,-0.07123,-0.10181,0.07082,35.70117,-4.57079,-2.15445,-0.07123
2018.03.21 15:18:26,-10.86,10.74,-29.28,0.05986,0.95532,8.9905,0.0931,0.0955,-0.00982,36.49744,-5.17412,-2.48186,0.0931
2018.03.21 15:18:26,-9.78,11.22,-29.16,0.02873,1.35755,9.10064,-0.00036,0.00021,0.07204,36.6503,-5.42536,-2.22916,-0.00036
2018.03.21 15:18:26,-10.02,10.62,-29.16,-0.27295,1.74782,10.29059,0.0485,0.04174,0.10686,36.39349,-6.28081,-1.91181,0.0485
2018.03.21 15:18:27,-9.06,10.56,-30,0.5028,1.60656,11.42787,-0.21539,-0.04317,0.06776,35.23111,-7.44838,-1.372,-0.21539
2018.03.21 15:18:27,-9.78,12.3,-29.34,-1.2977,-0.94334,10.90592,-0.23555,-0.10486,-0.31647,35.98556,-6.30992,-0.69957,1005.35815
2018.03.21 15:18:27,-8.82,11.28,-29.94,-0.9601,-0.42618,8.18603,0.25498,-0.034,0.04821,35.53759,-6.80068,-0.82629,1005.35889
2018.03.21 15:18:27,-9.12,11.94,-29.64,-0.39984,0.97686,9.18204,-0.09627,0.05885,0.10747,35.25058,-4.71412,-1.67078,1005.36035
2018.03.21 15:18:27,-8.88,12,-29.34,-0.24661,1.27136,8.53559,0.0088,0.02953,-0.00738,34.55552,-4.85792,-2.01317,0.0088
2018.03.21 15:18:27,-9.18,11.88,-29.16,-0.84039,1.42699,9.79019,-0.15369,0.02403,-0.07885,35.11533,-4.76298,-2.39748,-0.15369
2018.03.21 15:18:27,-8.4,12.12,-29.16,-0.76856,1.66402,10.12299,-0.11887,0.01181,-0.01471,35.1411,-6.24441,-3.0108,1005.35449
2018.03.21 15:18:27,-8.52,12.3,-29.16,-0.13887,1.78373,10.54199,0.25376,-0.07004,0.19726,34.53286,-8.02844,-3.20909,0.25376
2018.03.21 15:18:27,-9,13.14,-28.8,-0.32323,0.14126,12.17728,-0.35589,-0.11342,-0.02387,33.78078,-7.19807,-1.99075,-0.35589
2018.03.21 15:18:27,-9.84,13.02,-27.9,0.37111,-0.42379,7.76942,0.21833,0.20057,-0.10023,34.13583,-6.90688,-1.75368,0.21833
2018.03.21 15:18:28,-10.44,13.2,-28.32,0.12929,0.74941,9.63935,-0.17874,0.0448,-0.09412,34.77377,-5.34095,-1.62954,-0.17874
2018.03.21 15:18:28,-8.58,12.3,-29.88,-0.48604,0.25379,9.43823,-0.07428,0.11505,-0.22484,35.71493,-5.06961,-2.11975,-0.07428
2018.03.21 15:18:28,-9.12,12.54,-28.62,-0.73265,0.8787,9.86681,-0.10421,0.02525,-0.08312,36.20771,-4.50122,-2.43669,-0.10421
2018.03.21 15:18:28,-9.36,11.76,-28.2,-0.06704,1.45572,9.97934,0.13403,0.02831,0.12824,35.52024,-5.56063,-2.76034,0.13403
2018.03.21 15:18:28,-8.52,11.7,-28.26,-0.05028,1.97049,9.73752,0.14502,0.02281,0.29378,34.03327,-6.90362,-2.70731,0.14502
2018.03.21 15:18:28,-8.52,11.52,-28.56,-1.01996,-1.07742,12.30418,-0.26853,-0.16106,-0.00738,33.52758,-5.74419,-1.9217,1005.35498
2018.03.21 15:18:28,-8.46,12,-27.66,-0.23943,0.20112,8.08547,0.32584,-0.10914,0.30417,32.75945,-5.93232,-1.62928,1005.35205
2018.03.21 15:18:28,-6.96,10.56,-28.92,-0.68716,-0.16281,9.54837,-0.05962,0.00509,0.02561,32.36795,-5.14499,-1.78759,1005.35474
2018.03.21 15:18:28,-6.9,11.34,-28.32,0.06943,1.15165,8.56193,0.17618,-0.02301,0.14778,31.75521,-3.81588,-2.71488,0.17618
2018.03.21 15:18:29,-6.48,11.34,-28.2,-0.60815,1.05588,8.89234,-0.0584,0.01731,-0.12649,32.18142,-4.48702,-2.31002,-0.0584
2018.03.21 15:18:29,-7.08,10.62,-28.62,-0.42139,1.85317,9.93145,-0.09444,-0.07676,0.00057,32.37572,-5.30962,-2.29728,1005.34302
2018.03.21 15:18:29,-6.42,11.88,-28.44,-0.36632,2.10217,10.39834,0.12059,-0.1409,0.05127,31.95103,-7.15364,-1.63066,0.12059
2018.03.21 15:18:29,-6.9,11.34,-28.2,0.33999,0.53871,12.46699,-0.23249,-0.14823,-0.23828,31.67946,-7.41764,-0.81572,-0.23249
2018.03.21 15:18:29,-6.9,11.28,-27.6,0.71828,-0.56984,9.49091,0.13097,0.03747,-0.16376,32.10107,-7.28813,-0.17467,0.13097
2018.03.21 15:18:29,-7.44,11.1,-28.14,0.26576,0.94095,9.79019,0.02896,0.02281,-0.13077,32.34908,-6.21815,-0.10952,0.02896
2018.03.21 15:18:29,-7.14,11.28,-28.08,-0.05746,0.99123,8.866,0.10837,0.08817,-0.1155,32.30634,-6.21653,-0.14841,0.10837
2018.03.21 15:18:29,-6.48,11.52,-28.14,0.48364,1.41502,8.43503,0.03384,0.04663,0.036,31.78489,-6.41044,-0.38433,0.03384
2018.03.21 15:18:29,-5.94,11.1,-28.44,0.16999,1.89148,9.56513,-0.06206,0.06374,-0.03303,31.42481,-6.45215,0.03267,-0.06206
2018.03.21 15:18:29,-5.94,12.72,-28.08,-0.38308,1.86514,9.98891,0.12242,0.08145,0.19054,30.09729,-7.86413,0.18885,0.12242
2018.03.21 15:18:30,-4.98,13.38,-28.44,-0.2107,0.419,12.27784,-0.23494,-0.01751,0.19116,28.00185,-8.24,-0.24881,1005.35547
2018.03.21 15:18:30,-6,13.62,-28.86,-0.74223,0.22985,8.95219,-0.02358,0.02647,0.08792,26.26129,-7.85152,-0.14674,1005.36743
2018.03.21 15:18:30,-5.1,14.7,-28.86,-0.56265,-0.54829,9.55555,-0.1934,0.04235,0.0476,24.86921,-4.59452,-1.10732,1005.36963
2018.03.21 15:18:30,-3.9,13.98,-28.44,0.35196,1.18517,8.56672,-0.04251,0.07107,0.39885,22.96412,-2.26576,-2.49446,-0.04251
2018.03.21 15:18:30,-3.66,15.48,-28.5,0.1245,1.06785,9.55555,-0.21905,0.08634,0.03966,21.67033,-1.74351,-2.31186,-0.21905
2018.03.21 15:18:30,-3.84,16.8,-27.54,0.01676,1.57783,9.86681,-0.1427,0.04724,-0.04708,21.13931,-2.53284,-2.11234,-0.1427
2018.03.21 15:18:30,-3.96,16.86,-27.48,-0.73025,1.07264,10.4534,0.01002,0.01303,-0.18453,21.16294,-5.1962,-1.48714,0.01002
2018.03.21 15:18:30,-4.2,15.72,-28.8,-0.15084,0.96968,11.50928,0.02224,-0.2307,0.07082,19.95467,-5.98678,-0.4208,0.02224
2018.03.21 15:18:30,-5.1,17.28,-28.74,0.11971,-0.89546,11.55477,-0.0193,-0.05905,0.05371,19.03682,-4.7024,0.57727,-0.0193
2018.03.21 15:18:31,-4.74,16.92,-29.64,0.0407,-0.23943,8.74629,-0.07367,0.0619,-0.2615,19.02658,-5.13495,-0.47787,-0.07367
2018.03.21 15:18:31,-5.1,16.86,-29.1,-0.0431,0.78293,9.21317,0.08332,0.03625,-0.14177,19.66939,-4.10171,-0.39109,0.08332
2018.03.21 15:18:31,-3.9,16.86,-29.28,0.09338,0.59139,8.88276,0.04423,-0.04133,-0.10572,19.74251,-4.19293,-0.35563,0.04423
2018.03.21 15:18:31,-4.62,16.56,-30.18,-0.04549,1.42938,9.49569,-0.04129,0.02342,-0.13749,19.44526,-4.10373,-0.06998,1005.34863
2018.03.21 15:18:31,-4.14,17.28,-30.72,-0.59139,1.29291,10.4534,0.07783,0.03258,0.08975,18.99461,-5.34584,-0.52232,1005.34888
2018.03.21 15:18:31,-3.24,17.76,-31.38,0.06943,0.84518,11.10704,0.13708,0.01792,0.3903,16.75821,-6.17099,-0.91761,1005.35205
2018.03.21 15:18:31,-3.36,18.18,-31.26,-0.80926,-0.1245,10.56833,-0.25204,-0.06638,-0.02387,15.36208,-4.74637,-0.51737,1005.34204
2018.03.21 15:18:31,-2.7,18.18,-31.44,-0.59857,-0.72307,9.12937,-0.02113,-0.01262,0.01584,14.24047,-4.52837,-0.56619,1005.34619
2018.03.21 15:18:31,-2.52,19.62,-31.2,-0.26576,0.7518,9.43344,-0.03396,0.00815,0.20826,13.7558,-2.64338,-1.2669,-0.03396
2018.03.21 15:18:32,-1.44,19.14,-31.8,-0.22027,0.93616,9.27781,-0.01258,-0.02851,0.036,11.73719,-3.08789,-1.35035,-0.01258
2018.03.21 15:18:32,-2.28,20.04,-32.1,-0.83321,1.19953,9.12698,-0.02969,0.09672,0.02561,11.52884,-3.68686,-2.03922,-0.02969
2018.03.21 15:18:32,-1.56,19.2,-32.34,-0.00718,1.58022,10.10384,0.02651,-0.01079,0.02805,11.13006,-5.13823,-2.28006,0.02651
2018.03.21 15:18:32,-2.34,19.68,-33.12,0.55787,1.38868,10.59945,0.24032,-0.18977,0.18383,10.80639,-6.81843,-1.57119,0.24032
2018.03.21 15:18:32,-3,21,-33.06,-0.01437,-0.46449,11.35126,-0.24777,-0.23315,-0.22729,10.96563,-5.31361,-0.60064,-0.24777
2018.03.21 15:18:32,-4.02,21.42,-32.28,0.59378,-0.56265,8.47813,0.1609,0.02831,-0.20774,11.7991,-4.90649,-0.1502,0.1609
2018.03.21 15:18:32,-5.58,20.28,-32.76,-0.20591,0.56984,9.51485,0.00147,-0.03828,-0.13382,12.6614,-4.21671,0.24855,0.00147
2018.03.21 15:18:32,-5.22,20.52,-33.96,-0.00479,0.39266,8.88037,0.17556,0.11077,-0.06419,13.51287,-4.99236,-0.47286,0.17556
2018.03.21 15:18:32,-6,20.04,-34.74,0.20112,1.25939,8.85882,0.00391,0.06312,0.04882,13.70751,-4.88297,-0.9195,0.00391
2018.03.21 15:18:33,-6,19.98,-33.42,0.08141,1.79571,9.71118,0.03812,0.09245,-0.09167,14.08864,-5.69608,-0.60202,0.03812
2018.03.21 15:18:33,-7.44,19.74,-33.78,0.23464,2.24344,10.68325,0.08027,-0.05661,0.05677,14.10518,-7.56741,0.02704,1005.34717
2018.03.21 15:18:33,-7.56,19.5,-32.88,0.08859,0.21309,11.6673,-0.04374,-0.06699,-0.10939,14.36608,-7.92256,0.53053,1005.34424
2018.03.21 15:18:33,-6.66,18.72,-34.8,-0.35196,0.10774,7.50605,0.41808,-0.01629,0.24064,14.47584,-6.86327,-0.35231,1005.35059
2018.03.21 15:18:33,-7.14,17.7,-34.98,-0.5866,-0.1676,9.63456,-0.20134,0.02769,0.03294,14.36558,-5.78929,-0.74953,-0.20134
2018.03.21 15:18:33,-6.6,18.42,-34.98,-0.11732,1.23545,8.66249,-0.01869,0.06435,0.26263,13.95707,-4.3975,-1.42918,-0.01869
2018.03.21 15:18:33,-5.52,18.06,-34.92,-0.33041,1.17319,9.13655,-0.08894,-0.04194,0.14656,13.50075,-4.16935,-1.15073,1005.35205
2018.03.21 15:18:33,-6,18.78,-34.02,-0.1269,1.9657,9.9099,-0.04923,0.0448,0.02989,13.89002,-5.49791,-1.37232,-0.04923
2018.03.21 15:18:33,-5.88,18.12,-34.8,-0.67758,1.36474,9.90751,0.15052,0.04724,-0.15582,14.88243,-7.35905,-1.35232,0.15052
2018.03.21 15:18:33,-6.72,17.22,-34.38,-0.10774,0.79969,11.29619,-0.11643,-0.11464,-0.0874,14.85661,-7.28523,-0.62195,-0.11643
2018.03.21 15:18:34,-6.96,16.98,-34.92,0.86673,-0.88349,11.12859,0.28613,0.05946,0.05799,15.27374,-6.47071,-0.0423,0.28613
2018.03.21 15:18:34,-6.3,16.56,-35.1,0.01197,0.1676,9.11261,0.10776,0.24638,-0.23645,16.28442,-6.1587,-0.57711,0.10776
2018.03.21 15:18:34,-6.48,16.26,-35.76,-0.01915,0.65364,9.4933,-0.03518,-0.08104,-0.10267,17.24128,-5.31224,-0.09957,-0.03518
2018.03.21 15:18:34,-6.42,16.14,-36.06,-0.05507,0.6273,8.71037,0.02224,0.05885,-0.13138,18.22251,-5.27265,-0.30725,0.02224
2018.03.21 15:18:34,-6.78,16.86,-35.16,0.37351,1.44854,9.45978,-0.13842,-0.04622,0.03294,18.33043,-4.89689,-0.18654,1005.35303
2018.03.21 15:18:34,-6.48,16.8,-35.34,0.3783,1.55388,10.52523,-0.13109,-0.06943,0.07265,17.81428,-5.38169,0.65866,1005.35132
2018.03.21 15:18:34,-5.94,17.22,-34.74,0.1245,1.20671,11.23633,-0.07123,0.05885,0.06837,17.03236,-5.97942,0.68009,1005.35303
2018.03.21 15:18:34,-5.16,17.16,-34.08,-0.89546,-0.28731,10.70241,-0.16713,-0.03522,-0.05136,16.44962,-5.24291,0.03338,1005.35059
2018.03.21 15:18:34,-3.84,16.74,-34.68,-0.44773,-0.15802,9.1988,0.06317,0.0845,0.16855,15.06834,-4.81762,-1.3088,0.06317
2018.03.21 15:18:35,-3.12,17.76,-35.4,-0.52435,-0.04549,10.20919,0.12303,0.08573,0.10625,14.03843,-4.17347,-1.24206,0.12303
2018.03.21 15:18:35,-3.06,16.02,-35.34,-0.27295,0.43576,9.36401,0.09188,-0.01934,0.01156,13.5195,-3.6986,-1.45536,1005.354
