Time,Mag_x,Mag_y,Mag_z,Acc_x,Acc_y,Acc_z,Gyro_x,Gyro_y,Gyro_z,Orn_x,Orn_y,Orn_z,Pressure
2018.12.19 12:26:08,35.44922,6.02417,-32.91626,0.12477,0.43433,10.06801,0.00073,-0.01852,0.10492,280.98447,-1.76685,0.69338,0.00073
2018.12.19 12:26:08,33.94928,4.0741,-32.61566,0.15829,0.65698,9.72086,0.07637,0.01662,0.14008,280.28833,-2.17728,0.69724,0.07637
2018.12.19 12:26:08,34.10034,5.1239,-33.0658,-0.25351,0.59354,10.21765,0.01033,0.01236,0.08255,279.79813,-2.4618,0.665,0.01033
2018.12.19 12:26:08,33.94928,3.02429,-33.66547,0.00148,1.4399,9.35214,0.12111,0.00703,0.09532,279.29886,-2.92273,0.67403,0.12111
2018.12.19 12:26:09,33.94928,4.0741,-34.4162,-0.01289,1.24716,10.27032,-0.0685,-0.17194,-0.04955,279.44958,-3.07055,1.39225,-0.0685
2018.12.19 12:26:09,33.79974,3.62396,-35.31494,0.04576,1.66255,9.22046,0.04335,-0.02386,-0.04848,279.93097,-3.36262,1.65511,0.04335
2018.12.19 12:26:09,34.10034,3.17383,-33.0658,0.07689,1.38362,9.88007,0.08276,-0.00255,-0.1337,280.73965,-4.08308,1.34501,0.08276
2018.12.19 12:26:09,32.2998,5.1239,-32.7652,0.06493,1.40877,10.07159,0.04654,-0.08244,-0.12837,281.47012,-4.58622,1.90822,0.04654
2018.12.19 12:26:09,31.99921,6.02417,-32.61566,0.05415,0.55643,10.47502,-0.093,0.07307,-0.33717,283.319,-4.31134,2.2265,-0.093
2018.12.19 12:26:09,33.79974,5.1239,-32.46613,0.58087,0.5696,9.84894,0.05826,0.4129,-0.22958,284.47131,-4.38978,0.29303,0.05826
2018.12.19 12:26:09,34.99908,7.52411,-30.81512,0.26006,0.64023,9.33539,0.14243,0.15192,-0.2381,285.90643,-4.93815,-1.24613,0.14243
2018.12.19 12:26:09,34.99908,7.07397,-28.56598,-0.30737,1.1095,8.914,0.05293,0.22221,-0.1646,287.56213,-4.55982,-1.89507,0.05293
2018.12.19 12:26:09,35.44922,7.52411,-29.31519,-0.45821,1.23878,9.34616,-0.10046,0.07735,-0.10493,288.20905,-4.55605,-2.00951,-0.10046
2018.12.19 12:26:09,35.60028,7.97424,-29.46625,-0.01529,0.97781,10.48579,0.06679,-0.02919,0.20079,287.76508,-4.75659,-1.96233,0.06679
2018.12.19 12:26:10,36.19995,6.77338,-29.31519,-0.63538,0.23441,12.49573,-0.18143,-0.06328,0.2679,285.62466,-5.4391,-0.53084,-0.18143
2018.12.19 12:26:10,34.84955,5.87311,-29.16565,-1.13457,0.27991,9.56642,0.04228,-0.33066,0.30412,284.31369,-4.6447,0.81187,0.04228
2018.12.19 12:26:10,34.84955,1.37329,-30.66559,0.51862,0.62227,9.13786,0.03589,-0.40523,0.43941,281.48077,-5.91181,1.34509,0.03589
2018.12.19 12:26:10,33.34961,3.92303,-30.66559,0.24089,0.38165,9.34256,-0.31885,-0.30722,0.11557,280.73697,-4.05375,3.0083,-0.31885
2018.12.19 12:26:10,33.49915,3.02429,-30.06592,0.54018,1.08794,9.31743,0.17012,0.19666,0.2892,279.23126,-3.4724,2.9825,0.17012
2018.12.19 12:26:10,34.39941,3.92303,-29.91638,0.21455,1.22801,9.6143,0.07744,0.21477,-0.26579,280.01251,-4.05527,1.52808,0.07744
2018.12.19 12:26:10,34.10034,5.1239,-28.71552,0.10802,1.10231,10.17934,0.03909,0.07947,-0.32864,281.50177,-4.31277,0.46302,0.03909
2018.12.19 12:26:10,36.19995,8.27332,-29.31519,-0.80177,-0.76996,12.08992,-0.47118,-0.02066,-0.55554,283.96976,-2.79272,0.5135,-0.47118
2018.12.19 12:26:10,35.60028,5.87311,-29.16565,1.62714,0.4427,7.48706,0.54295,-0.24544,0.11983,284.12347,-4.27927,1.61209,0.54295
2018.12.19 12:26:11,34.39941,7.22351,-29.46625,0.04576,0.15181,9.7843,-0.16864,0.12848,-0.269,284.89185,-4.46081,1.58309,-0.16864
2018.12.19 12:26:11,35.15015,6.92291,-29.16565,0.55453,0.9455,9.84175,-0.00565,0.09651,0.14008,284.73187,-3.98082,0.47576,-0.00565
2018.12.19 12:26:11,36.34949,5.87311,-28.41492,1.30751,1.46742,10.3589,0.0295,-0.06647,0.08788,284.30444,-4.25031,0.67082,0.0295
2018.12.19 12:26:11,36.19995,5.57404,-27.06604,0.26483,1.46024,10.08476,0.23616,0.23181,-0.02185,284.15308,-5.46961,0.85197,0.23616
2018.12.19 12:26:11,36.65009,4.67377,-28.11584,0.60602,1.11787,9.6179,0.24469,0.21049,0.11024,283.42862,-6.97479,0.62651,0.24469
2018.12.19 12:26:11,37.39929,4.37317,-27.66571,-1.15851,-0.5054,12.92191,-0.42537,0.17215,-0.16566,283.45139,-5.90423,-0.58689,-0.42537
2018.12.19 12:26:11,36.65009,3.17383,-27.36511,-0.48933,0.50017,8.87929,0.15627,0.15724,0.26257,281.84735,-5.7649,-1.14299,0.15627
2018.12.19 12:26:11,36.49902,3.02429,-27.06604,-0.52884,0.66417,10.00456,0.04016,-0.18898,0.12408,280.44073,-5.80071,0.37486,0.04016
2018.12.19 12:26:11,36.65009,-0.87585,-27.36511,0.57249,1.79424,7.87253,0.24255,-0.19217,0.13475,279.6832,-6.73731,1.2692,0.24255
2018.12.19 12:26:11,36.49902,1.97296,-26.76544,0.36778,1.63861,9.60713,-0.13881,-0.07393,-0.21359,280.50409,-6.44206,1.33689,-0.13881
2018.12.19 12:26:12,37.39929,1.67389,-25.5661,-0.36484,1.02689,11.12505,-0.1207,0.04858,-0.27751,281.83218,-5.98882,1.08081,-0.1207
2018.12.19 12:26:12,35.89935,4.67377,-27.36511,1.03816,0.83894,11.12625,-0.15585,0.05177,-0.15181,282.65796,-5.52513,1.09209,-0.15585
2018.12.19 12:26:12,37.39929,5.87311,-24.81537,-0.08711,0.44391,10.35651,-0.03868,-0.01534,-0.15395,284.56647,-3.55926,0.3014,-0.03868
2018.12.19 12:26:12,36.49902,4.0741,-26.01624,0.29956,0.4068,8.2532,0.1861,-0.12825,-0.01971,284.60565,-4.22134,0.99535,0.1861
2018.12.19 12:26:12,36.65009,4.67377,-26.61591,0.74608,0.69409,8.5058,0.12006,-0.06966,-0.05807,284.72092,-4.55001,0.78241,0.12006
2018.12.19 12:26:12,36.19995,4.0741,-23.16589,0.67545,1.29623,8.89485,0.18184,0.34898,-0.02718,284.55078,-5.64701,-0.8652,0.18184
2018.12.19 12:26:12,35.60028,0.62408,-25.11597,1.2309,1.20287,10.29666,0.16479,-0.05688,0.28175,283.7688,-4.86477,-0.1938,0.16479
2018.12.19 12:26:12,36.19995,0.02441,-25.2655,0.97113,0.67375,11.00294,0.06039,-0.15169,0.15817,282.59726,-5.52798,1.40498,0.06039
2018.12.19 12:26:12,35.15015,3.17383,-24.81537,-0.77185,-0.37611,12.22878,-0.35399,0.55351,-0.23384,282.85953,-4.60449,-0.34148,-0.35399
2018.12.19 12:26:13,37.69989,2.72369,-24.66583,-1.6218,0.80663,6.99625,0.3331,0.50452,0.18268,283.07159,-3.86574,-2.32658,0.3331
2018.12.19 12:26:13,36.19995,-0.72632,-24.2157,-0.46181,0.48221,9.85971,-0.09726,-0.32639,0.37762,281.23212,-4.11758,-2.0349,-0.09726
2018.12.19 12:26:13,33.79974,-1.92566,-24.81537,-0.4211,1.07837,8.92119,0.1339,-0.24223,0.28069,278.84436,-3.92691,0.12149,0.1339
2018.12.19 12:26:13,31.99921,-5.0766,-26.76544,0.41687,1.13223,9.9507,0.11366,-0.12718,0.2253,277.20105,-4.29887,0.304,0.11366
2018.12.19 12:26:13,31.84967,-3.4256,-25.5661,0.60242,1.75952,9.44313,0.29689,-0.01427,-0.02504,276.80789,-5.68888,0.61365,0.29689
2018.12.19 12:26:13,33.20007,-5.52673,-24.2157,0.6479,1.12984,9.27911,0.04868,-0.01427,-0.34357,278.50018,-6.2568,0.3019,0.04868
2018.12.19 12:26:13,31.84967,0.32349,-24.36523,0.67784,0.71803,9.85612,-0.16864,-0.04942,-0.28923,281.42847,-3.03112,-0.11821,-0.16864
2018.12.19 12:26:13,33.34961,-0.87585,-23.01636,-0.24513,0.11829,8.63867,-0.0195,0.18706,-0.18697,281.72549,-3.32222,-0.9784,-0.0195
2018.12.19 12:26:13,31.99921,0.77362,-24.2157,-0.0943,0.04886,9.40601,-0.06531,-0.05582,0.07509,281.69186,-2.09445,-0.29517,-0.06531
2018.12.19 12:26:14,31.84967,-2.37579,-24.06616,0.02063,0.51453,9.52094,0.005,0.06456,0.12729,280.52704,-2.49558,-0.30315,0.005
2018.12.19 12:26:14,31.25,-2.82593,-23.16589,0.52701,1.40279,9.68852,-0.01843,0.0667,0.24553,278.39203,-2.71375,-0.6443,-0.01843
2018.12.19 12:26:14,31.84967,-4.92706,-23.31543,0.35701,0.74437,11.6817,0.13922,-0.30615,0.18375,276.11407,-3.48308,0.29817,0.13922
2018.12.19 12:26:14,31.70013,-2.82593,-23.46497,-0.31815,-0.15944,12.3437,-0.01631,0.4715,0.02821,275.38187,-3.88815,-0.67732,-0.01631
2018.12.19 12:26:14,31.54907,-3.87573,-22.56622,-1.00169,0.43433,8.78113,0.23509,0.30106,0.10599,275.50214,-3.16995,-1.58904,0.23509
2018.12.19 12:26:14,30.49927,-3.57666,-23.46497,-0.42349,0.19012,9.7807,0.08383,-0.18259,0.24553,274.27161,-3.88926,-1.74865,0.08383
2018.12.19 12:26:14,30.04913,-5.97687,-23.01636,-0.05119,0.93591,8.26637,0.18077,0.05177,0.14433,272.68414,-4.39753,-0.90503,0.18077
2018.12.19 12:26:14,31.10046,-4.92706,-23.31543,-0.39117,1.24118,9.43474,-0.05998,-0.00148,-0.11028,272.95648,-4.53059,-1.4589,-0.05998
2018.12.19 12:26:14,29.75006,-4.02679,-22.41516,-0.53242,0.92035,10.37567,0.01459,-0.075,-0.0847,273.17804,-4.55192,-1.30833,0.01459
2018.12.19 12:26:14,28.84979,-3.87573,-23.61603,0.43123,0.9407,10.69051,-0.093,-0.10269,-0.06873,273.67285,-4.09044,-0.65353,-0.093
2018.12.19 12:26:15,29.44946,-1.77612,-24.2157,-0.49532,0.28468,10.52171,-0.01843,0.17961,-0.08577,274.81104,-1.75926,-0.68219,-0.01843
2018.12.19 12:26:15,28.84979,-0.87585,-24.06616,-0.01888,-0.20493,10.42714,0.06465,-0.1208,-0.08684,274.85095,-2.29574,-1.07821,0.06465
2018.12.19 12:26:15,29.29993,-2.37579,-23.31543,0.41208,0.55643,8.41481,0.28197,0.12741,0.00266,275.23477,-2.90227,-1.44517,0.28197
2018.12.19 12:26:15,28.84979,-0.42572,-23.31543,0.26364,0.87965,8.96069,0.14561,0.04645,-0.07724,275.34845,-3.90958,-1.93049,0.14561
2018.12.19 12:26:15,30.79987,0.32349,-23.01636,-0.00331,1.20406,9.55923,0.14561,-0.01001,0.06656,275.06729,-4.57408,-2.10898,0.14561
2018.12.19 12:26:15,31.70013,-1.02692,-22.71576,-0.51088,0.84613,10.60431,0.09767,-0.09097,0.13475,274.26248,-5.3431,-1.86747,0.09767
2018.12.19 12:26:15,29.599,-1.17645,-21.81549,-0.62581,-0.14746,12.19406,-0.21338,0.24353,0.18694,273.02612,-4.98048,-2.26993,-0.21338
2018.12.19 12:26:15,29.599,-1.17645,-23.01636,-0.49892,1.06879,7.48227,0.34056,0.25844,0.40958,272.17053,-3.68412,-2.56881,0.34056
2018.12.19 12:26:15,30.04913,-1.92566,-23.61603,-0.94304,-0.08762,11.81937,-0.23788,-0.25288,0.00159,271.18469,-3.16806,-1.62168,-0.23788
2018.12.19 12:26:16,30.34973,-1.92566,-25.11597,-0.35286,0.9838,8.0054,0.2905,0.17001,0.11557,270.66534,-3.94108,-1.95368,0.2905
2018.12.19 12:26:16,30.34973,-0.12665,-23.01636,-1.03043,1.1514,9.75436,-0.08661,0.00064,-0.17845,271.48584,-4.33169,-2.04677,-0.08661
2018.12.19 12:26:16,28.70026,-1.77612,-23.46497,-0.68925,1.32018,10.11949,0.02098,-0.02599,-0.0538,271.97113,-4.52782,-2.06391,0.02098
2018.12.19 12:26:16,28.25012,-0.72632,-26.01624,0.50307,1.15019,10.60191,0.06358,-0.15915,0.01437,272.05243,-4.84773,-1.4493,0.06358
2018.12.19 12:26:16,28.70026,1.52435,-24.66583,-1.35484,-0.38808,12.46939,-0.60007,0.26483,-0.52892,274.93356,-2.41647,-1.93048,-0.60007
2018.12.19 12:26:16,28.09906,2.4231,-24.06616,0.42166,0.05244,9.75197,0.11899,0.05391,0.08148,275.26694,-2.05602,-2.42914,0.11899
2018.12.19 12:26:16,28.25012,3.7735,-27.06604,-0.08951,0.69888,8.36334,0.09448,0.11569,0.02182,275.27393,-2.50238,-2.46254,0.09448
2018.12.19 12:26:16,28.25012,2.72369,-26.46637,-0.00212,0.86888,8.8757,0.11899,0.06242,0.08041,274.9046,-3.26134,-2.87212,0.11899
2018.12.19 12:26:16,30.34973,3.17383,-25.5661,0.14154,1.25195,9.38806,-0.01311,0.00278,-0.05275,275.51248,-3.40982,-2.78933,-0.01311
2018.12.19 12:26:16,28.70026,3.02429,-25.71564,-0.49292,1.2699,10.31821,0.02098,-0.0228,-0.00055,275.90387,-4.15654,-2.78517,0.02098
2018.12.19 12:26:17,29.75006,3.02429,-27.06604,-0.03204,1.28786,10.83775,-0.00032,-0.07179,0.1422,275.60065,-4.30772,-2.49367,-0.00032
2018.12.19 12:26:17,28.99933,3.7735,-26.46637,-0.99811,-0.11514,11.16934,-0.3199,-0.27739,-0.08896,275.83124,-2.3224,-2.24483,-0.3199
2018.12.19 12:26:17,27.94952,3.02429,-27.51617,-0.63419,0.29785,8.68776,0.17545,-0.07925,0.16457,274.26904,-3.99724,-2.58139,0.17545
2018.12.19 12:26:17,27.94952,2.72369,-27.06604,-0.52046,0.44151,9.31503,-0.04933,-0.10695,-0.01334,274.34558,-3.6589,-1.99706,-0.04933
2018.12.19 12:26:17,28.84979,0.62408,-27.36511,-0.37801,0.89522,9.47305,0.03589,0.0571,0.05379,273.74692,-4.51719,-2.30842,0.03589
2018.12.19 12:26:17,27.79999,1.37329,-26.61591,-0.7491,1.15378,9.47185,0.04868,0.06989,-0.01439,274.11304,-4.75007,-2.832,0.04868
2018.12.19 12:26:17,27.65045,2.27356,-27.51617,-0.56715,0.95387,10.22482,0.04335,-0.07605,-0.02078,274.50519,-4.97124,-2.78828,0.04335
2018.12.19 12:26:17,27.20032,2.72369,-27.51617,-0.23436,-0.38808,12.01929,-0.43069,0.01556,-0.3116,275.6691,-4.26899,-2.47042,-0.43069
2018.12.19 12:26:17,27.04926,3.92303,-27.36511,0.23849,0.50735,9.7867,-0.20166,0.15297,0.00584,276.57538,-2.5053,-3.01451,-0.20166
2018.12.19 12:26:18,27.94952,5.27344,-27.81525,-0.02486,0.52171,9.88725,0.01991,0.11995,-0.09856,276.14838,-2.66709,-2.6292,0.01991
2018.12.19 12:26:18,28.25012,5.27344,-28.26538,0.14513,1.00655,9.06125,0.19888,0.16469,-0.05701,277.24008,-3.42926,-3.56562,0.19888
2018.12.19 12:26:18,27.20032,3.7735,-26.01624,-0.39236,1.20526,9.26357,0.1339,0.08586,-0.1337,278.28339,-4.04424,-3.92674,0.1339
2018.12.19 12:26:18,27.34985,4.37317,-28.71552,-0.38399,1.26033,9.82381,0.18077,0.02408,0.00159,279.00482,-5.1773,-4.24964,0.18077
2018.12.19 12:26:18,27.34985,4.37317,-28.41492,-0.69763,1.56439,9.64304,0.201,-0.19749,0.11343,279.3096,-6.16787,-3.46766,0.201
2018.12.19 12:26:18,26.59912,6.4743,-26.61591,-2.14972,-0.6299,12.95422,-0.62032,-0.19749,-0.1859,279.0293,-5.3881,-3.88273,-0.62032
2018.12.19 12:26:18,27.20032,4.0741,-27.51617,-0.39357,0.78748,7.40446,0.22232,0.09225,0.48415,278.09918,-4.07948,-2.94697,0.22232
2018.12.19 12:26:18,27.79999,2.87323,-30.21545,-0.97177,0.00816,11.73917,-0.24747,-0.23479,0.22316,275.87762,-3.80524,-2.15464,-0.24747
2018.12.19 12:26:18,27.79999,3.62396,-29.91638,-0.46539,1.20168,8.35616,0.10939,0.17429,0.15605,274.60593,-4.35877,-2.60419,0.10939
2018.12.19 12:26:18,27.34985,1.67389,-28.71552,-0.59468,1.31061,9.66339,-0.05145,-0.01959,0.01863,274.65808,-4.35711,-2.52969,-0.05145
2018.12.19 12:26:19,26.15051,2.27356,-29.61578,-0.56476,1.46863,9.40601,0.02737,-0.00043,-0.05913,275.55051,-4.42269,-2.8653,0.02737
2018.12.19 12:26:19,25.54932,4.37317,-30.21545,-0.01289,1.08675,10.22005,0.00287,-0.15594,-0.05275,276.328,-4.46042,-2.42056,0.00287
2018.12.19 12:26:19,24.94965,5.57404,-29.61578,-0.12183,-0.23126,11.94507,-0.3476,-0.09309,-0.48311,278.48566,-3.29817,-1.34947,-0.3476
2018.12.19 12:26:19,24.04938,4.67377,-30.96619,0.62157,0.33258,8.96667,0.14987,-0.11121,0.01331,280.07861,-2.61634,-1.59444,0.14987
2018.12.19 12:26:19,25.39978,7.07397,-30.81512,-0.59349,0.27512,9.64424,-0.08554,0.13167,-0.24768,281.21051,-2.39659,-1.6828,-0.08554
2018.12.19 12:26:19,24.80011,7.97424,-30.96619,0.13316,1.11069,8.56445,0.13283,0.14764,-0.0538,281.99323,-3.1659,-2.71235,0.13283
2018.12.19 12:26:19,27.34985,8.72345,-29.16565,-0.5025,1.21843,9.76036,-0.03654,0.03793,-0.07512,283.20416,-3.11606,-3.11115,-0.03654
2018.12.19 12:26:19,24.94965,7.82318,-31.11572,-0.40076,1.81697,10.14223,0.08597,-0.0132,-0.00694,284.10345,-3.57269,-3.04731,0.08597
2018.12.19 12:26:19,26.59912,6.17371,-30.21545,-0.30977,1.53326,11.12505,0.06146,0.10397,0.13475,284.44708,-4.47702,-3.16453,0.06146
2018.12.19 12:26:20,25.84991,8.42438,-30.21545,-1.47455,-0.62511,12.18329,-0.11537,-0.11653,-0.03571,284.81665,-3.5128,-4.04761,-0.11537
2018.12.19 12:26:20,25.54932,5.1239,-30.96619,-0.5444,0.17575,8.08322,0.34908,0.186,0.35205,283.48251,-4.8797,-4.36761,0.34908
2018.12.19 12:26:20,25.09918,7.22351,-31.26526,-1.0029,0.05963,9.69931,-0.19101,-0.1666,-0.00055,283.03851,-4.11724,-3.20799,-0.19101
2018.12.19 12:26:20,25.70038,4.8233,-30.81512,-0.35048,1.25554,8.65303,0.05293,0.08479,0.1731,282.35629,-4.36311,-3.10395,0.05293
2018.12.19 12:26:20,25.70038,6.02417,-31.56586,-0.60187,1.37524,10.26195,-0.12497,-0.00575,-0.02078,282.44302,-3.98899,-2.96246,-0.12497
2018.12.19 12:26:20,24.94965,6.32324,-31.86493,-0.74432,0.84853,10.78986,0.00287,-0.18152,-0.02399,283.38306,-4.20811,-2.25697,0.00287
2018.12.19 12:26:20,24.20044,6.32324,-31.56586,0.00388,-0.03374,11.17772,-0.13242,-0.17406,-0.12198,284.02066,-4.02999,-0.99087,-0.13242
2018.12.19 12:26:20,24.04938,9.17358,-32.46613,-0.38638,0.06084,9.54727,-0.1207,0.07095,-0.11028,286.4592,-1.70162,-1.02896,-0.1207
2018.12.19 12:26:20,23.89984,8.27332,-32.61566,0.52461,-0.1295,9.70769,0.05293,-0.13145,0.00905,286.00916,-2.0802,-0.60167,0.05293
2018.12.19 12:26:21,25.39978,9.32312,-31.11572,0.08766,0.75516,8.13829,0.13496,0.22435,-0.09322,287.33423,-2.2618,-1.51994,0.13496
2018.12.19 12:26:21,24.80011,7.97424,-33.0658,-0.27745,0.9814,9.77232,-0.09087,0.07307,-0.13477,288.56177,-2.22932,-2.21762,-0.09087
2018.12.19 12:26:21,24.94965,8.27332,-31.56586,-0.65334,1.58115,9.88365,0.02844,0.09651,-0.01334,289.10034,-2.35328,-2.65391,0.02844
2018.12.19 12:26:21,26.15051,8.57391,-31.86493,-0.68446,0.99696,11.12265,0.07744,-0.06007,0.17522,289.13251,-2.96485,-2.76719,0.07744
2018.12.19 12:26:21,26.15051,8.27332,-31.11572,-0.57193,-0.28273,13.15773,-0.08768,0.21902,0.18054,288.13177,-3.16756,-3.12288,-0.08768
2018.12.19 12:26:21,25.54932,6.92291,-32.01599,-0.68565,0.35532,7.10757,0.5174,0.2627,0.32329,287.71048,-3.37628,-3.21593,0.5174
2018.12.19 12:26:21,24.64905,6.02417,-32.61566,-0.4223,-0.01938,9.7807,-0.0504,-0.31361,0.19653,286.52203,-4.14785,-2.99711,-0.0504
2018.12.19 12:26:21,25.39978,5.27344,-32.91626,-0.52644,1.09393,8.64346,0.06358,0.03473,0.13687,285.28137,-4.09462,-2.11865,0.06358
2018.12.19 12:26:21,26.15051,4.0741,-32.91626,-0.32533,1.1897,9.82021,-0.02164,-0.03238,0.04846,285.19363,-4.08953,-1.9438,-0.02164
2018.12.19 12:26:21,25.09918,2.87323,-33.0658,-0.71918,1.09033,10.30144,0.11259,0.03366,0.02396,285.01654,-4.98826,-2.47063,0.11259
2018.12.19 12:26:22,26.15051,4.0741,-34.4162,1.29913,0.6953,11.15259,0.01352,-0.1389,-0.03783,285.21906,-5.18702,-1.88205,0.01352
2018.12.19 12:26:22,24.80011,5.87311,-34.56573,-1.64334,-0.1355,9.76276,-0.23788,0.08693,-0.60455,289.16455,-2.42147,-2.4619,-0.23788
2018.12.19 12:26:22,25.84991,7.22351,-34.56573,0.28877,0.1123,9.79626,-0.04294,-0.04091,-0.02611,289.01804,-2.229,-2.0688,0.01778
2018.12.19 12:26:22,27.20032,4.52423,-32.91626,-0.14935,0.96823,8.73085,0.12857,0.09758,0.03354,288.9527,-2.56419,-2.35051,0.12857
2018.12.19 12:26:22,25.84991,6.92291,-31.71539,-0.32175,0.98859,9.42397,0.02312,0.0145,-0.04315,289.13193,-3.30237,-2.79579,0.02312
2018.12.19 12:26:22,26.15051,6.02417,-32.61566,-0.39236,1.42552,9.30305,0.08702,0.06456,0.03247,289.1163,-3.5728,-2.88981,0.08702
2018.12.19 12:26:22,25.39978,4.8233,-35.16541,-0.53603,1.18251,10.58395,0.02524,-0.13145,0.13368,288.72675,-4.46666,-2.76041,0.02524
2018.12.19 12:26:22,26.59912,7.22351,-33.51593,-0.6713,-0.37611,12.94464,-0.3721,0.28934,0.00584,288.26251,-3.29262,-3.54562,-0.3721
2018.12.19 12:26:22,26.59912,7.22351,-33.51593,-0.84009,0.47383,7.64029,0.32671,0.27974,0.31052,287.73465,-3.05786,-3.56007,0.32671
2018.12.19 12:26:23,26.44958,5.27344,-32.91626,-0.8365,-0.04332,11.48059,-0.12497,-0.271,0.12622,285.84885,-2.97292,-1.98755,-0.12497
2018.12.19 12:26:23,25.09918,3.17383,-33.815,-0.64377,1.05443,8.24602,0.34589,0.06456,0.21783,284.94568,-4.2154,-1.92222,0.34589
2018.12.19 12:26:23,24.80011,3.62396,-33.815,-0.39236,1.26392,9.63585,0.06998,-0.0963,0.03461,284.8699,-5.03982,-1.39205,0.06998
2018.12.19 12:26:23,26.15051,4.52423,-32.91626,-0.55876,1.20766,10.05244,0.04442,0.0667,-0.10493,285.13837,-5.88346,-1.56141,0.04442
2018.12.19 12:26:23,24.94965,4.0741,-32.91626,1.13513,0.76114,11.8876,-0.10579,-0.10162,0.00052,285.62604,-5.48812,-1.32516,-0.10579
2018.12.19 12:26:23,27.65045,7.52411,-31.86493,-0.87361,0.37207,10.159,-0.2496,0.21796,-0.34782,287.85236,-2.54539,-2.02505,-0.2496
2018.12.19 12:26:23,26.44958,8.27332,-34.1156,-0.21519,0.10274,9.54129,-0.06956,-0.03452,-0.3148,289.1571,-2.03364,-1.89977,-0.06956
2018.12.19 12:26:23,27.04926,7.67365,-31.71539,-0.41512,0.53488,8.4615,0.03482,0.14232,-0.15395,290.11203,-2.00931,-2.08902,0.03482
2018.12.19 12:26:23,26.44958,7.52411,-32.16553,-0.05479,0.70009,9.68015,0.06358,0.0667,0.17842,288.80072,-3.37948,-2.36182,0.06358
2018.12.19 12:26:24,25.54932,5.87311,-33.51593,0.02063,1.6003,9.04329,0.13815,0.02834,0.18481,287.95239,-4.06556,-2.02988,0.13815
2018.12.19 12:26:24,26.15051,4.8233,-32.91626,-0.52046,0.88803,10.92154,0.04442,-0.17299,0.12196,287.41028,-4.8408,-1.53456,0.04442
2018.12.19 12:26:24,28.25012,6.02417,-31.86493,-0.77544,0.6067,11.07716,-0.41684,0.30211,-0.03783,286.55368,-3.69675,-2.08323,-0.41684
2018.12.19 12:26:24,28.25012,7.52411,-32.16553,-0.32294,0.55643,8.86732,-0.08342,-0.27846,0.1145,286.70865,-2.23263,-1.1788,-0.08342
2018.12.19 12:26:24,26.15051,5.57404,-30.81512,-0.49771,-0.18338,10.61029,-0.15372,-0.17087,0.08467,285.15012,-2.7898,-1.44703,-0.15372
2018.12.19 12:26:24,26.59912,5.42297,-31.71539,0.07449,0.88683,8.27116,0.22765,0.09651,0.21783,283.65759,-3.6358,-1.47614,0.22765
2018.12.19 12:26:24,27.34985,5.87311,-30.66559,-0.08472,1.16934,9.0385,0.01566,-0.00043,-0.05701,283.78339,-4.01162,-1.54943,0.01566
2018.12.19 12:26:24,27.34985,4.37317,-30.21545,-0.77306,1.07118,10.20448,0.06891,0.0507,-0.16141,285.18552,-4.16001,-1.94357,0.06891
2018.12.19 12:26:24,27.20032,6.02417,-29.31519,0.75925,1.02449,10.99098,-0.04507,0.15936,-0.03357,285.52246,-4.68276,-2.32551,-0.04507
2018.12.19 12:26:24,29.29993,9.17358,-29.16565,-2.45857,-0.59039,12.10667,-0.69275,0.06349,-0.71321,288.34714,-1.83866,-3.23569,-0.69275
2018.12.19 12:26:25,27.94952,9.32312,-29.01611,0.88853,0.45708,8.25201,0.31926,-0.10269,0.1145,287.99313,-2.40476,-2.42166,0.31926
2018.12.19 12:26:25,26.44958,8.57391,-27.06604,-0.80177,0.44868,8.80986,-0.02057,0.0667,-0.30521,289.14215,-2.58225,-2.42854,-0.02057
2018.12.19 12:26:25,26.44958,9.32312,-29.61578,-0.01408,0.97183,10.17096,-0.05252,0.04645,-0.13797,289.93616,-2.98475,-2.68951,-0.05252
2018.12.19 12:26:25,26.89972,7.82318,-29.31519,-0.45103,1.49855,8.72247,0.04761,0.17961,-0.08577,291.2081,-3.48292,-2.91736,0.04761
2018.12.19 12:26:25,26.30005,8.72345,-28.71552,-1.06993,1.07597,11.61945,-0.06531,-0.13678,0.14966,290.86548,-3.66588,-2.68264,-0.06531
2018.12.19 12:26:25,26.59912,7.67365,-26.91498,0.36899,1.44946,9.78908,0.15414,0.21477,0.30519,288.80859,-4.25976,-2.47026,0.15414
2018.12.19 12:26:25,25.09918,8.72345,-28.11584,0.22174,-0.23366,11.12265,-0.21977,-0.50749,-0.15395,289.32666,-3.64008,-1.80825,-0.21977
2018.12.19 12:26:25,25.84991,6.4743,-28.11584,0.23012,0.10274,9.53769,0.16373,-0.18364,0.10918,288.86676,-3.6564,-0.86749,0.16373
2018.12.19 12:26:25,26.59912,6.92291,-29.91638,0.29836,0.4894,9.32101,0.03696,-0.06221,0.041,288.55942,-3.76137,-0.1858,0.03696
2018.12.19 12:26:26,24.80011,6.17371,-26.61591,-0.25591,1.23399,8.76915,0.07851,0.07735,0.01756,288.16275,-4.34099,-0.31776,0.07851
2018.12.19 12:26:26,24.94965,6.32324,-27.51617,-0.7527,1.11308,10.26793,-0.08661,0.01236,-0.02292,288.7475,-3.90088,-0.83645,-0.08661
2018.12.19 12:26:26,24.80011,6.17371,-27.66571,-0.15775,1.12865,10.58157,0.04549,-0.08565,0.0687,288.61539,-4.32042,-0.6608,0.04549
2018.12.19 12:26:26,23.14911,9.02405,-29.01611,-0.22717,-0.08881,11.91753,-0.29541,-0.04303,-0.14969,288.76199,-3.74032,-0.20158,-0.29541
2018.12.19 12:26:26,23.89984,8.27332,-27.06604,0.8203,0.20209,10.57797,0.13283,-0.03557,0.15817,289.85489,-1.82804,-0.25366,0.13283
2018.12.19 12:26:26,23.89984,7.07397,-26.46637,0.25885,0.72163,8.33221,0.2319,0.19878,-0.01866,289.77307,-2.83453,-0.54424,0.2319
2018.12.19 12:26:26,24.20044,7.52411,-27.81525,0.31392,0.79227,8.60515,0.15201,0.17961,-0.03464,289.80902,-3.86081,-1.42001,0.15201
2018.12.19 12:26:26,24.80011,6.92291,-27.36511,-0.12422,1.01132,9.7388,0.01245,0.00703,-0.01334,290.30008,-3.84754,-1.6219,0.01245
2018.12.19 12:26:26,24.64905,6.77338,-26.46637,-0.07753,1.34532,10.00217,0.1062,0.04538,0.06763,290.20709,-4.39281,-1.76888,0.1062
2018.12.19 12:26:26,24.94965,7.52411,-26.76544,0.20618,1.22681,9.83698,-0.13029,0.10718,0.12622,289.89325,-3.96845,-2.01965,-0.13029
2018.12.19 12:26:27,23.44971,9.62372,-25.71564,-0.90472,-0.46709,11.37285,-0.15692,-0.28592,-0.01334,290.4017,-1.41144,-2.52049,-0.15692
2018.12.19 12:26:27,26.15051,7.52411,-26.46637,-1.00888,0.159,9.06364,0.23509,0.26695,0.14966,289.28116,-2.85601,-3.28812,0.23509
2018.12.19 12:26:27,24.80011,7.97424,-26.91498,-0.79939,0.46664,9.42278,0.07104,-0.10269,0.11876,288.79443,-2.7791,-2.1471,0.07104
2018.12.19 12:26:27,23.59924,7.67365,-27.36511,-0.02606,1.05682,8.89246,0.14775,-0.00468,0.15179,288.07248,-3.6464,-2.09617,0.14775
2018.12.19 12:26:27,25.70038,6.32324,-27.06604,-0.76945,1.05443,9.63945,0.01566,0.01343,-0.12944,288.60437,-4.13285,-1.97459,0.01566
2018.12.19 12:26:27,24.04938,8.72345,-27.66571,-1.18007,0.60072,10.70128,0.02844,-0.12506,-0.03571,289.61118,-4.25859,-1.76512,0.02844
2018.12.19 12:26:27,23.59924,9.47418,-28.11584,0.98788,0.04167,10.52051,-0.11005,-0.10802,-0.05275,289.677,-4.30403,-1.22152,-0.11005
2018.12.19 12:26:27,23.59924,11.42426,-29.46625,0.87297,-0.04691,10.26195,-0.1942,-0.00148,-0.17632,292.30637,-1.47165,0.09362,-0.1942
2018.12.19 12:26:27,23.14911,12.323,-28.56598,-0.30258,-0.00621,10.12906,-0.03868,0.13593,-0.20721,293.46072,-1.01296,0.17792,-0.03868
2018.12.19 12:26:28,24.64905,11.57379,-28.26538,0.21336,0.98738,8.43636,0.17331,0.10611,0.04633,293.62396,-1.80442,-0.28629,0.17331
2018.12.19 12:26:28,24.94965,10.82306,-27.81525,-0.23315,1.02689,10.01894,-0.03229,0.14552,0.0101,293.91736,-1.88647,-0.77412,-0.03229
2018.12.19 12:26:28,24.34998,12.47406,-29.46625,-0.0524,1.44588,9.72803,0.11792,0.07521,0.12729,293.67883,-2.9262,-1.53443,0.11792
2018.12.19 12:26:28,24.34998,11.42426,-28.41492,0.03619,1.08556,11.09392,-0.00885,0.01982,0.17522,293.36868,-3.15407,-1.57507,-0.00885
2018.12.19 12:26:28,25.84991,12.17346,-28.11584,-0.98613,-0.97826,12.81535,-0.22723,0.04858,-0.05594,293.20761,-1.7903,-2.09117,-0.22723
2018.12.19 12:26:28,27.04926,10.97412,-28.11584,-0.35286,0.0345,7.77556,0.30966,0.21477,0.27855,292.02692,-2.76007,-2.7396,0.30966
2018.12.19 12:26:28,24.80011,10.67352,-27.36511,-0.73714,-0.06845,10.19371,0.03056,-0.29657,0.15073,290.97321,-2.87923,-1.22415,0.03056
2018.12.19 12:26:28,26.89972,9.02405,-29.01611,-0.58151,0.97661,8.51418,0.07851,0.07202,0.02928,290.27917,-4.05297,-1.50333,0.07851
2018.12.19 12:26:28,28.70026,9.32312,-26.76544,-0.57433,1.13583,9.39644,-0.06212,0.19559,-0.00906,290.42911,-3.96405,-2.26229,-0.06212
2018.12.19 12:26:29,26.89972,10.07385,-27.06604,-0.81017,0.99457,10.45229,0.04549,0.02194,0.04419,290.59955,-4.25974,-3.17064,0.04549
2018.12.19 12:26:29,25.70038,9.62372,-29.01611,0.44321,0.82458,10.55524,0.01672,-0.17299,0.08681,290.56717,-4.43438,-2.40849,0.01672
2018.12.19 12:26:29,27.04926,11.72333,-28.71552,0.09604,0.06442,10.30383,-0.34973,-0.37752,-0.37978,292.96951,-1.96506,0.01203,-0.34973
2018.12.19 12:26:29,26.30005,11.42426,-28.71552,0.88493,0.20927,9.42517,0.10834,-0.20496,-0.00694,293.11743,-2.09495,0.05353,0.10834
2018.12.19 12:26:29,27.34985,12.17346,-28.41492,0.21576,0.89401,8.37291,0.04868,0.1828,-0.20508,294.29773,-2.5337,-0.92342,0.04868
2018.12.19 12:26:29,27.94952,11.87439,-27.51617,-0.77185,0.8174,9.63705,-0.11858,0.49919,-0.22531,295.65872,-2.41525,-3.62897,-0.11858
2018.12.19 12:26:29,29.44946,12.6236,-25.71564,-0.82333,1.22202,9.6562,0.11792,0.03687,-0.01013,296.04987,-2.80949,-3.99215,0.11792
2018.12.19 12:26:29,29.599,11.42426,-27.36511,0.00388,1.15019,9.7412,0.24469,-0.53519,0.17522,295.68112,-4.27378,-2.71072,0.24469
2018.12.19 12:26:29,27.94952,13.07373,-27.81525,-1.3297,-0.77235,14.21596,-0.54361,-0.12718,-0.0847,294.89709,-2.45899,-1.41952,-0.54361
2018.12.19 12:26:29,28.84979,10.67352,-27.66571,-0.23436,0.64861,6.99745,0.38104,0.22754,0.46391,293.50107,-3.02912,-1.14715,0.38104
2018.12.19 12:26:30,30.04913,10.67352,-28.11584,-0.65334,-0.19176,11.70685,-0.19527,-0.17194,0.13901,291.61554,-3.27491,-0.41023,-0.19527
2018.12.19 12:26:30,30.9494,9.02405,-29.01611,-0.0907,1.11906,8.14667,0.16052,0.20517,0.13794,290.75885,-3.74412,-0.67441,0.16052
2018.12.19 12:26:30,28.84979,8.42438,-29.91638,-0.20682,1.30103,10.00696,-0.06424,0.06349,-0.05275,290.53027,-4.15904,-1.19284,-0.06424
2018.12.19 12:26:30,30.49927,9.02405,-27.81525,-0.82452,1.35728,10.02132,0.10406,0.04326,-0.14009,291.53024,-4.66602,-1.85106,0.10406
2018.12.19 12:26:30,31.54907,6.4743,-29.46625,0.6144,1.26273,10.30144,0.14029,-0.21028,0.0719,291.69586,-5.21312,-1.31615,0.14029
2018.12.19 12:26:30,30.9494,9.62372,-29.31519,-0.92029,0.18173,11.0676,-0.39128,0.1093,-0.42451,292.73489,-3.96949,-1.09281,-0.39128
2018.12.19 12:26:30,30.79987,9.17358,-29.46625,0.51743,0.27032,10.20567,0.07957,-0.12186,-0.04103,293.18781,-3.80781,-0.94198,0.07957
2018.12.19 12:26:30,31.54907,9.92432,-28.71552,-0.5851,0.68692,8.60396,0.05081,0.22328,-0.19868,294.32037,-4.02886,-1.75297,0.05081
2018.12.19 12:26:30,32.74994,9.32312,-26.76544,-0.12662,0.99457,8.80507,0.03909,0.11356,0.0101,293.9942,-4.71575,-2.57264,0.03909
2018.12.19 12:26:31,32.44934,10.07385,-28.56598,-0.41393,1.26871,10.03928,-0.10258,0.10078,-0.01971,293.96564,-4.37135,-3.18998,-0.10258
2018.12.19 12:26:31,33.04901,9.92432,-27.36511,-0.60785,1.33215,10.28468,-0.01204,0.04752,0.08574,293.58914,-4.2901,-3.36753,-0.01204
2018.12.19 12:26:31,33.34961,9.17358,-29.16565,-0.47137,0.9838,10.84732,-0.17076,0.08586,0.21144,291.67841,-4.02684,-3.60949,-0.17076
2018.12.19 12:26:31,33.49915,8.57391,-28.26538,-0.51807,-0.02057,9.72684,-0.13881,-0.24756,0.06337,291.29575,-2.87626,-2.82758,-0.13881
2018.12.19 12:26:31,34.10034,8.72345,-29.46625,-0.67967,0.04288,9.4946,0.01884,-0.2007,0.09427,289.61682,-3.93805,-2.4891,0.01884
2018.12.19 12:26:31,33.04901,7.22351,-31.71539,-0.08113,0.71326,9.05766,0.03589,-0.22839,0.20398,288.79968,-3.73062,-1.28478,0.03589
2018.12.19 12:26:31,33.20007,7.52411,-33.36639,0.34624,1.19209,9.64664,-0.02589,-0.09737,0.11343,287.38525,-4.48402,-0.26865,-0.02589
2018.12.19 12:26:31,32.74994,7.82318,-32.16553,-0.02486,1.53207,9.4503,0.03163,0.01343,-0.07938,287.43533,-4.53527,0.16827,0.03163
2018.12.19 12:26:31,31.99921,6.32324,-34.1156,-0.06197,0.98978,10.67613,-0.02269,-0.16447,-0.17099,288.19012,-4.62267,0.71502,-0.02269
2018.12.19 12:26:31,32.74994,9.32312,-32.16553,0.62277,0.29308,11.13821,-0.28369,-0.05261,-0.36166,289.17059,-4.38199,1.03771,-0.28369
2018.12.19 12:26:32,33.04901,10.67352,-34.26514,0.6898,-0.05051,10.51811,0.054,-0.05795,-0.03676,291.03418,-2.85541,0.8404,0.054
2018.12.19 12:26:32,33.20007,9.62372,-33.66547,0.2421,0.71205,8.3777,0.06891,0.10291,-0.07831,291.37598,-3.01061,0.77857,0.06891
2018.12.19 12:26:32,32.2998,10.97412,-33.815,0.23491,0.76593,9.10674,-0.00246,0.04005,-0.08044,291.44772,-3.44754,0.60701,-0.00246
2018.12.19 12:26:32,33.34961,10.67352,-33.815,0.24928,1.09752,9.17737,-0.05998,0.07521,-0.09961,291.97043,-3.18529,0.37525,-0.05998
2018.12.19 12:26:32,33.20007,11.57379,-32.91626,0.21695,1.42313,10.25476,-0.02376,0.03793,-0.00267,291.77228,-3.49079,-0.09718,-0.02376
2018.12.19 12:26:32,33.94928,10.07385,-34.4162,0.41806,1.57037,10.28468,0.01778,0.15831,0.14113,291.56696,-3.70427,-0.75079,0.01778
2018.12.19 12:26:32,34.70001,12.323,-33.66547,-1.25189,-0.82742,14.03999,-0.41577,0.11783,-0.11028,291.54639,-2.56245,-1.27931,-0.41577
2018.12.19 12:26:32,34.99908,10.82306,-32.16553,-0.49771,0.33856,7.85217,0.33736,0.09972,0.30838,290.24701,-3.48624,-2.15128,0.33736
2018.12.19 12:26:32,34.99908,10.37292,-35.16541,-0.52525,0.24757,9.62508,-0.08128,-0.09097,-0.04636,289.65588,-3.2631,-0.85019,-0.08128
2018.12.19 12:26:33,34.39941,8.42438,-34.26514,-0.20203,0.87965,8.64705,0.08916,0.00171,0.03781,289.53021,-3.57394,-0.81765,0.08916
2018.12.19 12:26:33,36.49902,8.27332,-33.36639,-0.20323,1.20047,9.81902,0.05721,0.0049,-0.06447,289.6817,-3.62276,-0.87691,0.05721
2018.12.19 12:26:33,34.39941,7.67365,-34.26514,-1.00528,0.88205,10.47502,0.09874,0.06349,-0.15501,290.22989,-4.23612,-1.3813,0.09874
2018.12.19 12:26:33,36.19995,9.02405,-34.71527,0.96634,0.72643,11.06998,0.08597,-0.02386,0.09639,290.19479,-4.79767,-1.40294,0.08597
2018.12.19 12:26:33,34.39941,10.97412,-35.31494,-1.29379,-0.20851,11.14301,-0.36464,0.01556,-0.32545,291.56729,-2.66134,-1.35152,-0.36464
2018.12.19 12:26:33,33.34961,8.72345,-35.61554,0.24928,0.11829,9.68135,0.11259,-0.11334,0.01649,291.17609,-2.86049,-0.66169,0.11259
2018.12.19 12:26:33,35.15015,9.92432,-34.26514,-0.3385,0.59474,8.65424,0.0327,0.09012,-0.11346,292.12027,-3.11487,-1.31272,0.0327
2018.12.19 12:26:33,34.24988,9.32312,-34.71527,-0.10507,0.74437,9.21208,-0.06317,0.05498,-0.02504,292.09778,-2.75378,-1.32631,-0.06317
2018.12.19 12:26:33,35.74982,10.37292,-35.16541,0.07689,1.06999,9.52812,-0.04933,0.03899,0.03674,291.88315,-2.64035,-1.51664,-0.04933
2018.12.19 12:26:34,36.19995,9.62372,-36.21521,-0.16013,1.15019,11.11787,-0.12497,-0.04303,0.11343,290.93988,-2.36613,-1.37796,-0.12497
2018.12.19 12:26:34,35.44922,10.82306,-36.21521,0.07809,0.71205,11.4339,-0.04187,0.07414,0.23807,289.90015,-2.32851,-1.41969,-0.04187
2018.12.19 12:26:34,35.74982,9.02405,-35.91614,-0.37801,0.01175,8.9164,0.10406,-0.13145,0.04419,289.64359,-1.56121,-0.79767,0.10406
2018.12.19 12:26:34,34.84955,7.67365,-36.36627,-0.61743,0.07401,9.69571,-0.00352,-0.16873,0.14113,288.3866,-2.79562,-1.16453,-0.00352
2018.12.19 12:26:34,35.15015,7.22351,-37.56561,-0.10028,0.79227,8.41721,0.07744,-0.07393,0.13901,287.78897,-2.59045,-0.58286,0.07744
2018.12.19 12:26:34,34.99908,4.8233,-37.26501,-0.22359,0.96944,9.14745,0.00607,-0.13039,0.03354,286.75659,-3.59516,-0.78726,0.00607
2018.12.19 12:26:34,35.60028,4.67377,-37.56561,0.08049,1.26631,9.82381,0.07425,0.00278,0.03886,286.84286,-3.71735,-0.47238,0.07425
2018.12.19 12:26:34,34.39941,5.1239,-36.36627,-0.07155,1.04845,10.59474,0.054,-0.10695,-0.04315,286.96866,-3.967,-0.09268,0.054
2018.12.19 12:26:34,34.24988,6.32324,-38.46588,0.47913,0.26913,11.17413,-0.25919,-0.00894,-0.25728,287.21298,-3.65732,0.28148,-0.25919
2018.12.19 12:26:34,34.99908,6.77338,-38.01575,0.9807,0.35292,9.7412,-0.08022,0.0294,-0.15927,288.59338,-2.37189,-0.22452,-0.08022
2018.12.19 12:26:35,32.44934,7.07397,-37.26501,-0.32773,0.30145,8.86014,0.06891,0.10291,-0.21359,288.79517,-3.53589,0.17658,0.06891
2018.12.19 12:26:35,33.49915,5.57404,-38.01575,0.32948,0.99217,8.14546,0.13283,0.10184,-0.02611,289.15427,-3.89683,-0.46817,0.13283
2018.12.19 12:26:35,33.04901,9.17358,-38.16528,-0.39476,1.12625,9.99379,-0.1207,-0.01959,-0.06979,289.54001,-3.56168,-0.64647,-0.1207
2018.12.19 12:26:35,34.10034,7.22351,-37.56561,-0.11943,0.94189,11.2316,0.04016,-0.04303,0.15712,289.01974,-3.6711,-0.50445,0.04016
2018.12.19 12:26:35,33.20007,7.52411,-39.06555,0.04697,1.02689,10.35532,0.0018,0.0358,0.1209,287.94461,-3.88575,-0.04781,0.0018
2018.12.19 12:26:35,34.39941,7.97424,-39.36615,-0.76227,-0.15344,11.24954,-0.26984,-0.16127,-0.04208,287.96851,-2.65451,0.07478,-0.26984
2018.12.19 12:26:35,34.10034,6.4743,-37.86621,0.65988,0.50017,9.04927,0.01352,-0.17938,0.20825,286.05634,-3.44787,0.17885,0.01352
2018.12.19 12:26:35,33.04901,7.67365,-38.61542,-0.5863,0.17216,10.25835,-0.01418,-0.1911,0.05379,286.53448,-1.88211,0.16424,-0.01418
2018.12.19 12:26:35,34.39941,6.92291,-37.11548,-0.17809,0.73839,9.08759,0.12111,0.07735,0.1145,285.48462,-2.69442,0.59971,0.12111
2018.12.19 12:26:36,32.6004,5.87311,-37.86621,0.0314,0.96104,9.76753,0.05081,-0.075,0.03993,285.2572,-3.08646,1.19508,0.05081
2018.12.19 12:26:36,33.20007,5.57404,-37.71515,-0.7491,0.45108,10.54565,-0.04613,0.00064,-0.11453,285.62708,-3.19082,1.32049,-0.04613
2018.12.19 12:26:36,33.49915,10.37292,-37.26501,-0.41631,-0.63109,12.35567,-0.6757,0.44806,-0.41707,286.63275,-0.68424,0.28436,-0.6757
2018.12.19 12:26:36,34.39941,9.47418,-37.11548,1.53256,0.54207,8.94513,0.16479,-0.06328,0.07722,287.38193,0.24176,-0.08617,0.16479
2018.12.19 12:26:36,34.24988,12.323,-35.466,-0.45821,-0.01459,9.80225,0.00713,0.08907,-0.38191,288.41669,-0.21768,0.10319,0.00713
2018.12.19 12:26:36,34.39941,10.97412,-36.81641,0.35342,0.5313,9.3701,0.29794,-0.10802,0.00159,289.42468,-1.77112,0.31938,0.29794
2018.12.19 12:26:36,31.84967,6.92291,-36.36627,0.0338,0.46904,9.82858,0.18184,-0.10481,-0.03571,289.78497,-2.74478,1.05535,0.18184
2018.12.19 12:26:36,32.44934,7.07397,-37.26501,0.64552,1.06879,9.55086,0.09874,-0.04517,0.18907,288.3895,-4.06378,1.95235,0.09874
2018.12.19 12:26:36,33.04901,7.22351,-36.81641,0.40012,0.85571,10.74916,-0.01418,-0.04196,0.08894,287.93237,-4.07776,2.25965,-0.01418
2018.12.19 12:26:36,33.79974,8.42438,-35.01587,-0.78023,-0.69574,13.30498,-0.4552,0.41077,-0.22958,287.73834,-2.65756,0.40151,-0.4552
2018.12.19 12:26:37,33.34961,7.97424,-35.01587,-0.56953,0.71326,7.50502,0.3363,0.235,0.2157,287.24411,-3.82999,0.10142,0.3363
2018.12.19 12:26:37,33.49915,6.77338,-34.1156,-0.0907,0.54207,9.84775,-0.05252,-0.20815,0.30731,285.82138,-3.12667,1.126,-0.05252
2018.12.19 12:26:37,33.79974,7.22351,-34.56573,-0.04042,1.00055,8.73564,-0.03973,-0.03452,0.14966,284.76813,-3.15388,1.35956,-0.03973
2018.12.19 12:26:37,33.20007,5.27344,-34.4162,0.1176,1.09752,9.2037,-0.02589,0.02194,0.01224,284.72104,-2.90164,1.68593,-0.02589
2018.12.19 12:26:37,32.44934,7.07397,-34.1156,0.10083,0.71565,10.91437,-0.08554,-0.03131,-0.05061,284.974,-2.79037,1.63064,-0.08554
2018.12.19 12:26:37,31.25,7.07397,-35.16541,1.71573,-0.36295,11.62663,-0.15585,0.07947,0.02715,284.73981,-2.02879,1.91973,-0.15585
2018.12.19 12:26:37,33.79974,9.92432,-32.01599,-0.7886,-0.23605,10.6929,-0.47437,0.18919,-0.40002,286.05396,0.17225,1.29828,-0.47437
2018.12.19 12:26:37,33.34961,9.47418,-33.0658,0.64911,-0.07205,9.77831,0.17012,0.00597,0.03354,285.43396,-0.45942,0.99815,0.17012
2018.12.19 12:26:37,32.74994,9.62372,-32.16553,0.35941,0.53249,8.26158,0.29155,0.12102,0.00159,286.58224,-1.29161,0.40542,0.29155
2018.12.19 12:26:38,31.99921,10.37292,-32.91626,-0.07993,0.3589,9.50658,-0.06956,0.04005,-0.07617,286.91998,-2.0387,0.15991,-0.06956
2018.12.19 12:26:38,31.70013,11.12366,-31.86493,0.45996,0.6127,9.59874,-0.01843,-0.00362,0.1422,286.58685,-1.74372,0.32043,-0.01843
2018.12.19 12:26:38,31.70013,10.82306,-32.91626,0.12837,0.67615,10.92393,-0.04401,-0.03024,0.11343,285.96542,-1.48357,0.67544,-0.04401
2018.12.19 12:26:38,31.10046,10.22339,-30.21545,-0.35406,-0.13789,12.15575,-0.1452,0.27335,0.11024,285.52185,-1.33588,-0.30822,-0.1452
2018.12.19 12:26:38,31.25,10.82306,-30.81512,-0.02246,0.19611,8.18976,0.35228,0.27974,0.19972,285.74643,-0.47682,-0.69293,0.35228
2018.12.19 12:26:38,31.25,11.12366,-30.36499,-0.42349,-0.13908,9.84415,0.04228,-0.1485,-0.00694,285.49356,-1.34211,-0.57858,0.04228
2018.12.19 12:26:38,30.34973,10.67352,-30.96619,-0.1745,0.43552,8.69374,0.0114,0.10291,-0.01013,285.76019,-1.07021,-0.56292,0.0114
2018.12.19 12:26:38,29.75006,11.87439,-31.11572,-0.3385,0.72043,9.56403,-0.08875,-0.00043,-0.00587,286.03076,-0.78706,-0.68557,-0.08875
2018.12.19 12:26:38,28.84979,12.47406,-29.16565,-0.39716,0.9371,9.88007,0.07425,0.00917,-0.04315,286.59247,-0.75245,-0.86196,0.07425
2018.12.19 12:26:39,30.49927,11.12366,-30.06592,0.66946,1.0257,10.00456,0.26173,-0.19431,0.15285,286.91583,-1.99044,-0.34936,0.26173
2018.12.19 12:26:39,28.25012,14.57367,-29.61578,-1.26385,-1.37808,13.75029,-0.70979,0.05923,-0.66101,289.08398,-0.00706,-0.53798,-0.70979
2018.12.19 12:26:39,29.29993,13.52386,-29.91638,1.08965,-0.22528,8.88287,0.32671,0.22542,0.18054,289.53201,-0.25821,-0.95306,0.32671
2018.12.19 12:26:39,28.84979,14.27307,-29.16565,-0.36603,0.08357,8.90921,0.08809,0.17108,-0.17632,290.48996,-1.10382,-0.69488,0.08809
2018.12.19 12:26:39,27.79999,14.27307,-29.16565,0.2421,0.59714,9.76155,-0.03441,-0.03024,0.04526,290.98151,-1.38939,-1.0462,-0.03441
2018.12.19 12:26:39,27.34985,12.77313,-28.11584,0.01225,1.01492,9.56044,0.12857,-0.04303,0.11876,290.83142,-1.86789,-0.48556,0.12857
2018.12.19 12:26:39,27.65045,14.12354,-29.61578,0.68861,0.62706,10.66776,0.09662,-0.27739,0.15179,290.63477,-2.40772,0.38583,0.09662
2018.12.19 12:26:39,27.65045,14.12354,-28.56598,-1.46857,-1.34695,13.80296,-0.51698,-0.02492,-0.269,291.49097,-0.86864,-0.19087,-0.51698
2018.12.19 12:26:39,27.65045,13.37433,-28.56598,-0.1326,0.47144,7.36136,0.17224,0.17747,0.29027,290.58527,-1.11726,-0.6889,0.17224
2018.12.19 12:26:40,28.25012,13.07373,-27.06604,-0.45222,-0.28992,11.54045,-0.31032,-0.29443,0.0932,290.18994,0.08381,0.44056,-0.31032
2018.12.19 12:26:40,27.65045,12.6236,-27.06604,0.26723,0.68932,8.17419,0.29794,-0.02066,0.18054,289.02454,-1.26082,0.5803,0.29794
2018.12.19 12:26:40,27.79999,13.974,-27.66571,-0.20921,0.84732,9.79028,0.06786,0.07841,-0.0634,289.57428,-1.89901,0.27482,0.06786
2018.12.19 12:26:40,30.04913,10.97412,-27.36511,-0.42947,0.88683,10.17336,0.1062,0.07414,0.00798,289.96143,-2.36095,-0.21937,0.1062
2018.12.19 12:26:40,28.25012,10.82306,-27.06604,1.1842,0.78627,10.21405,0.14455,-0.10376,0.1358,289.65298,-3.41431,0.1705,0.14455
2018.12.19 12:26:40,28.54919,14.27307,-27.36511,-0.93945,-0.19655,11.1035,-0.19847,-0.01427,-0.30841,291.94263,-1.46049,0.39376,-0.46585
2018.12.19 12:26:40,29.75006,13.37433,-26.46637,-0.01529,-0.31984,9.50418,0.07211,-0.05901,-0.11986,292.29535,-1.76493,0.52626,0.07211
2018.12.19 12:26:40,29.29993,12.17346,-25.5661,0.21455,0.3649,9.06125,-0.02057,0.00171,0.07935,292.54343,-1.4249,0.23007,-0.02057
2018.12.19 12:26:40,29.599,13.52386,-26.91498,0.28758,0.72643,9.03731,-0.01631,0.09012,-0.05594,292.51929,-1.61185,-0.03075,-0.01631
2018.12.19 12:26:40,30.04913,12.47406,-25.86517,0.11041,1.17294,9.2504,0.054,0.05498,-0.01439,293.43225,-1.82654,-0.65683,0.054
2018.12.19 12:26:41,29.75006,12.323,-26.76544,0.23491,0.71205,11.30461,-0.03229,-0.10588,0.05591,293.41382,-1.99766,-0.24273,-0.03229
2018.12.19 12:26:41,28.09906,13.52386,-26.16577,0.34026,0.39243,10.79704,-0.15692,0.21049,0.09853,292.67368,-1.67885,-0.1384,-0.15692
2018.12.19 12:26:41,30.34973,13.22327,-25.5661,-0.35526,0.25716,7.66183,0.25853,0.186,0.28601,292.27954,-0.77667,-0.6909,0.25853
2018.12.19 12:26:41,29.44946,10.82306,-25.2655,0.19301,-0.27435,10.55643,-0.04507,-0.19643,0.21251,291.10303,-1.09585,-0.56881,-0.04507
2018.12.19 12:26:41,29.44946,10.37292,-26.01624,-0.12064,0.62108,8.52614,0.24788,0.05817,0.19653,289.91245,-1.66571,-0.24898,0.24788
2018.12.19 12:26:41,29.44946,10.37292,-26.76544,0.10921,0.88443,9.72086,0.02524,0.0294,-0.00481,289.83899,-2.14179,-0.18175,0.02524
2018.12.19 12:26:41,29.44946,9.02405,-26.01624,-0.28822,1.03886,9.39523,0.054,0.06989,-0.07724,290.31796,-2.34965,-0.53768,0.054
2018.12.19 12:26:41,29.44946,8.27332,-25.71564,0.1571,0.71803,10.17455,0.13283,-0.10481,0.09746,290.31128,-3.06523,-0.7802,0.13283
2018.12.19 12:26:41,29.75006,10.82306,-26.46637,-0.58032,-0.77715,12.86563,-0.40193,-0.26993,-0.25195,290.79169,-1.85454,0.11676,-0.40193
2018.12.19 12:26:42,29.75006,11.12366,-24.9649,1.10999,-0.08762,9.74719,0.14987,-0.05901,0.11983,291.16147,-1.21247,0.22926,0.14987
2018.12.19 12:26:42,29.75006,12.323,-27.06604,-0.00092,0.34454,8.78352,0.09767,0.14552,-0.16992,292.53619,-1.20176,0.3257,0.09767
2018.12.19 12:26:42,31.10046,11.42426,-25.11597,0.01225,0.51692,8.63148,0.12857,0.12527,0.09532,292.31281,-1.94001,-0.46413,0.12857
2018.12.19 12:26:42,30.04913,11.42426,-25.86517,0.442,1.06879,9.78549,-0.06531,0.06456,0.04951,291.68439,-1.66901,-0.83397,-0.06531
2018.12.19 12:26:42,31.84967,9.92432,-24.81537,-0.05719,1.09033,10.64023,0.05293,-0.13358,-0.02399,291.74683,-2.11844,-0.51443,0.05293
2018.12.19 12:26:42,30.9494,10.37292,-24.66583,0.8203,0.97542,11.18011,0.13071,-0.11546,0.16563,291.2149,-2.89559,0.31102,0.13071
2018.12.19 12:26:42,31.54907,9.92432,-26.61591,-0.97177,-0.82143,12.39517,-0.25493,-0.0377,-0.23703,291.77155,-1.38607,-0.11019,-0.25493
2018.12.19 12:26:42,31.70013,10.07385,-24.2157,-0.7132,0.16139,7.52776,0.30966,0.33301,0.21144,290.97522,-2.55326,-1.15856,0.30966
2018.12.19 12:26:42,31.54907,9.92432,-26.91498,-1.07831,-0.20253,10.57079,-0.35931,-0.25928,-0.10921,290.6188,-0.9038,0.47033,-0.35931
2018.12.19 12:26:43,31.84967,7.97424,-26.61591,-0.1721,0.85332,8.89725,0.09767,0.01768,0.08041,290.01834,-1.41965,0.06191,0.09767
2018.12.19 12:26:43,33.49915,9.62372,-26.46637,-0.23315,0.86169,10.12187,0.05186,-0.10909,-0.0325,290.04761,-1.76914,0.44987,0.05186
2018.12.19 12:26:43,32.6004,10.22339,-28.11584,-0.27745,0.85092,10.12666,0.19249,0.00385,-0.02824,290.22736,-3.4336,0.0605,0.19249
2018.12.19 12:26:43,33.79974,11.72333,-25.86517,0.1535,-0.52574,13.0069,-0.44774,-0.03238,-0.27539,290.7915,-2.53486,-0.3139,-0.44774
2018.12.19 12:26:43,33.20007,10.37292,-26.76544,0.12717,0.18892,9.48622,-0.01843,0.1306,-0.15288,291.81561,-1.41357,-0.74917,-0.01843
2018.12.19 12:26:43,32.6004,10.67352,-27.36511,-0.00212,-0.29112,9.61909,0.09023,-0.04623,-0.18483,292.23358,-2.45729,-0.32935,0.09023
2018.12.19 12:26:43,34.24988,8.57391,-27.06604,0.28877,0.49419,8.57402,0.12857,-0.06433,-0.02292,292.48505,-2.71389,-0.12589,0.12857
2018.12.19 12:26:43,34.84955,10.67352,-28.11584,0.04697,0.82817,9.28751,0.01459,0.02089,-0.06659,292.16312,-3.34036,-0.34228,0.01459
2018.12.19 12:26:43,34.70001,10.07385,-27.51617,0.24689,1.23878,9.42996,0.06572,0.04433,0.11343,291.78763,-3.55318,-0.79798,0.06572
2018.12.19 12:26:43,34.84955,9.17358,-28.11584,0.38934,1.07956,10.72762,0.04442,-0.11227,0.21997,290.75827,-3.83784,-0.53604,0.04442
2018.12.19 12:26:44,35.15015,9.17358,-27.36511,-0.49771,0.00456,12.37363,-0.38702,0.17854,0.06976,289.2012,-3.07662,-1.01747,-0.38702
2018.12.19 12:26:44,36.34949,7.22351,-26.91498,-0.7551,0.38165,8.18257,0.11153,0.34685,0.25085,288.00043,-2.20855,-1.22021,0.11153
2018.12.19 12:26:44,36.94916,6.77338,-27.81525,-0.48454,-0.28035,11.3118,-0.14095,-0.18152,0.14752,287.01822,-1.95227,-0.85198,-0.14095
2018.12.19 12:26:44,35.89935,5.42297,-27.36511,-0.22717,0.78627,8.47227,0.24681,0.12741,0.14966,286.00006,-2.37994,-0.61837,0.24681
2018.12.19 12:26:44,37.10022,6.92291,-29.46625,-0.19006,1.03528,9.37489,0.05933,-0.04303,0.03568,285.75806,-2.90685,-0.56414,0.05933
2018.12.19 12:26:44,36.94916,6.02417,-29.31519,-0.31696,1.22681,9.67416,0.11578,0.03154,-0.04636,285.68365,-3.53931,-0.45607,0.11578
2018.12.19 12:26:44,37.10022,4.37317,-29.91638,0.09843,1.16576,10.30383,0.10194,-0.08565,0.03568,285.4516,-4.59281,-0.37193,0.10194
2018.12.19 12:26:44,37.10022,6.4743,-30.66559,-0.94543,-0.10556,11.74396,-0.39767,0.04005,-0.32971,285.99091,-3.5948,-0.10373,-0.39767
2018.12.19 12:26:44,37.69989,7.07397,-31.11572,0.58685,0.30504,9.61311,0.08916,-0.09523,-0.06659,287.64587,-2.47187,-0.10429,0.08916
2018.12.19 12:26:45,37.39929,7.67365,-29.91638,-0.29541,0.13506,10.27989,0.04335,-0.02386,-0.22531,288.44983,-2.75223,0.17867,0.04335
2018.12.19 12:26:45,38.00049,7.07397,-31.56586,0.47792,1.07358,8.75121,0.13071,0.02301,0.06018,288.37054,-3.4147,-0.22551,0.13071
2018.12.19 12:26:45,37.24976,7.52411,-31.11572,0.00507,1.02449,10.03928,-0.07596,-0.04196,-0.12411,289.04962,-3.18451,0.20684,-0.07596
2018.12.19 12:26:45,39.50043,7.82318,-32.91626,0.26125,1.06999,10.18771,0.13922,-0.03664,0.03993,288.82928,-3.73842,0.34716,0.13922
2018.12.19 12:26:45,38.89923,7.22351,-33.0658,0.37257,1.14182,10.64502,0.09981,0.07095,0.14645,287.98389,-4.30609,0.69053,0.09981
2018.12.19 12:26:45,38.4491,5.57404,-30.36499,-0.29781,-0.48026,13.11942,-0.25386,0.17854,-0.00374,287.26996,-3.78033,-0.08323,-0.25386
2018.12.19 12:26:45,40.55023,5.27344,-30.81512,-0.61862,0.42595,7.81267,0.26067,0.35751,0.21465,286.70618,-3.36262,-0.97579,0.26067
2018.12.19 12:26:45,39.7995,4.52423,-31.86493,-0.15414,0.04886,10.23201,-0.23149,-0.15594,-0.05594,285.96536,-2.23361,-0.12958,-0.23149
2018.12.19 12:26:45,39.7995,6.77338,-31.86493,-0.37202,0.53009,8.57881,0.00713,-0.03131,-0.12411,286.27219,-2.02592,0.05958,0.00713
2018.12.19 12:26:45,39.50043,5.57404,-31.86493,-0.05359,0.98738,10.2368,-0.01524,-0.0686,0.01756,286.0751,-2.02309,0.75857,-0.01524
2018.12.19 12:26:46,40.55023,4.8233,-30.81512,0.01465,1.12984,10.02492,0.16052,-0.03345,-0.03357,285.811,-3.31702,0.35435,0.16052
2018.12.19 12:26:46,40.24963,5.27344,-32.16553,0.93402,0.59114,11.21124,0.0114,-0.17406,-0.18697,286.48212,-3.58455,1.10915,0.0114
2018.12.19 12:26:46,39.34937,6.4743,-32.7652,-1.66968,-0.56645,11.61107,-0.47969,0.04538,-0.48631,288.57544,-1.37062,1.65356,-0.47969
2018.12.19 12:26:46,38.60016,5.1239,-32.7652,1.37933,0.19371,9.77592,0.19995,-0.11974,0.33714,287.43887,-1.49852,1.64616,0.19995
2018.12.19 12:26:46,40.55023,6.77338,-32.61566,-0.45941,0.14104,9.42278,0.03909,0.16469,-0.16885,287.86945,-1.4411,1.02383,0.03909
2018.12.19 12:26:46,39.64996,5.1239,-29.91638,0.36539,0.56242,9.80824,-0.00139,-0.03452,0.09106,287.02454,-2.22259,0.52271,-0.00139
2018.12.19 12:26:46,38.89923,3.92303,-31.26526,0.53299,1.11308,9.64424,0.08383,0.10397,0.10811,286.24164,-2.532,0.16958,0.08383
2018.12.19 12:26:46,39.64996,0.92316,-30.21545,0.51263,1.4375,9.95908,0.10088,-0.0132,0.07722,285.2215,-3.55817,0.06681,0.10088
2018.12.19 12:26:46,39.64996,0.32349,-30.66559,0.45398,1.28307,9.91718,0.1062,0.04326,0.09959,284.05972,-4.19466,0.00316,0.1062
2018.12.19 12:26:47,39.19983,0.02441,-30.06592,-0.47137,-0.78073,12.37363,-0.48502,0.0571,-0.17525,283.37366,-2.59447,-0.58901,-0.48502
2018.12.19 12:26:47,41.1499,-0.42572,-28.41492,-0.52884,0.00337,9.00739,0.07318,0.12741,0.16884,282.06805,-2.51265,-1.46688,0.07318
2018.12.19 12:26:47,40.55023,0.02441,-30.06592,-0.55638,0.08357,10.44031,-0.06744,-0.13785,0.07402,281.02994,-2.27168,-0.76103,-0.06744
2018.12.19 12:26:47,38.74969,-2.82593,-29.61578,-0.47377,0.80423,8.88647,0.17545,0.01982,0.08041,280.21695,-3.08846,-0.56732,0.17545
2018.12.19 12:26:47,39.50043,-4.02679,-29.01611,-0.15414,1.1454,9.56523,-0.00671,-0.03877,0.01863,279.20413,-3.54977,-0.13582,-0.00671
2018.12.19 12:26:47,38.74969,-3.27606,-29.61578,-0.27386,1.29384,9.93753,-0.01524,-0.02173,-0.00906,278.28595,-3.5622,-0.0429,-0.01524
2018.12.19 12:26:47,36.34949,-4.62646,-29.91638,0.74008,1.2292,10.52411,0.09023,-0.0867,0.19333,277.25055,-4.15018,0.46413,0.09023
2018.12.19 12:26:47,35.89935,-3.87573,-30.21545,-0.63538,-0.0936,11.1861,-0.48929,-0.06221,-0.30521,277.4545,-2.37545,0.83167,-0.48929
2018.12.19 12:26:47,34.84955,-4.17633,-31.26526,1.00824,-0.22528,9.88725,0.16373,-0.19856,0.03568,277.10571,-2.5021,0.96697,0.16373
2018.12.19 12:26:48,35.74982,-3.57666,-30.81512,-0.09549,0.71924,8.33461,0.13176,0.08267,-0.1156,277.97882,-2.9629,1.09474,0.13176
2018.12.19 12:26:48,33.34961,-4.17633,-30.96619,0.35582,1.08556,9.21329,0.01566,-0.05475,0.04314,277.34436,-3.40688,1.14265,0.01566
2018.12.19 12:26:48,34.39941,-3.4256,-29.46625,0.53897,1.75952,9.43115,0.02524,0.07202,-0.02399,277.42761,-3.35891,1.0251,0.02524
2018.12.19 12:26:48,31.84967,-5.37567,-29.46625,0.04099,1.29146,11.23279,0.06253,-0.01427,0.05591,276.7478,-4.23429,0.74016,0.06253
2018.12.19 12:26:48,33.49915,-7.77588,-29.01611,0.4875,0.60431,12.22638,-0.01097,0.14445,0.21251,275.30096,-4.53735,0.43739,-0.01097
2018.12.19 12:26:48,33.20007,-5.52673,-28.56598,-0.299,0.05484,8.51897,0.12431,0.09439,-0.00906,274.85559,-3.70687,0.10323,0.12431
2018.12.19 12:26:48,30.2002,-4.776,-28.26538,0.59644,0.13026,9.41319,-0.03015,-0.15701,0.09106,273.991,-4.0219,-0.27115,-0.03015
2018.12.19 12:26:48,29.599,-4.17633,-28.71552,0.71016,0.79825,8.61592,0.21912,-0.1389,0.05804,274.12085,-2.99543,1.23278,0.21912
2018.12.19 12:26:48,32.2998,-5.97687,-27.66571,-0.20563,1.07837,9.05646,0.0753,0.01236,-0.01971,273.54758,-4.4029,0.92738,0.0753
2018.12.19 12:26:48,29.599,-5.97687,-28.71552,-0.10985,1.3513,9.19533,0.0753,0.09865,0.01756,273.45929,-4.65117,0.35073,0.0753
2018.12.19 12:26:49,29.29993,-5.67627,-28.71552,-0.51208,0.71924,10.39122,-0.00459,-0.03452,-0.03783,272.86694,-5.20147,-0.06409,-0.00459
2018.12.19 12:26:49,30.34973,-3.87573,-27.66571,-0.51926,-0.80707,13.91429,-0.52231,0.07841,-0.16141,272.94339,-3.77368,-0.03219,-0.52231
2018.12.19 12:26:49,30.04913,-1.62659,-28.41492,1.51581,0.52411,9.75557,0.04868,0.04858,0.23169,273.25546,-1.1678,-0.67926,0.04868
2018.12.19 12:26:49,28.54919,-2.67639,-27.36511,0.06612,0.46545,8.90802,0.14243,0.10397,-0.19443,273.60349,-2.02008,-0.37127,0.14243
2018.12.19 12:26:49,27.79999,-2.67639,-26.16577,-0.08591,0.55882,9.09117,0.20847,0.02621,-0.09856,273.9549,-3.16267,-0.40232,0.20847
2018.12.19 12:26:49,27.04926,-4.62646,-26.91498,-0.11464,0.98619,9.84175,0.05614,-0.04517,-0.05275,274.23206,-3.79244,-0.27564,0.05614
2018.12.19 12:26:49,25.39978,-5.52673,-26.46637,0.30194,1.14301,9.71725,0.25214,-0.15489,0.03674,273.86646,-4.74928,0.34394,0.25214
2018.12.19 12:26:49,25.54932,-4.62646,-27.36511,0.00746,0.38046,12.5484,-0.29221,0.15617,0.05165,273.0412,-4.22857,-0.08406,-0.29221
2018.12.19 12:26:49,23.89984,-4.776,-26.76544,-0.55876,0.62108,8.70691,0.18077,-0.12292,0.31371,272.39899,-2.26378,0.2128,0.18077
2018.12.19 12:26:50,22.85004,-5.97687,-27.66571,0.76402,0.11351,10.66656,0.01884,-0.12506,0.39467,270.27734,-3.06714,0.16159,0.01884
2018.12.19 12:26:50,21.64917,-7.02667,-25.71564,0.85381,0.69649,7.89766,0.35867,-0.03238,0.27322,268.69839,-3.10378,0.97803,0.35867
2018.12.19 12:26:50,21.94977,-6.57654,-25.2655,0.33307,0.89999,9.23483,0.11578,-0.06754,0.07509,267.8985,-3.96993,1.06333,0.11578
2018.12.19 12:26:50,19.25049,-6.72607,-24.06616,-0.21759,1.34651,9.4503,0.06358,0.01556,-0.07831,267.86337,-4.42346,1.10607,0.06358
2018.12.19 12:26:50,20.14923,-6.57654,-25.71564,0.05774,1.01611,11.17053,0.10727,-0.25821,0.10918,267.58859,-5.41782,1.2052,0.10727
2018.12.19 12:26:50,19.54956,-5.37567,-25.11597,1.11598,0.31102,11.17892,-0.12602,0.01982,-0.07938,267.2037,-5.42989,1.9336,-0.12602
2018.12.19 12:26:50,19.99969,-5.37567,-24.81537,0.278,0.39841,9.14983,-0.17397,0.17001,-0.14648,269.67545,-2.35886,1.37746,-0.17397
2018.12.19 12:26:50,19.25049,-4.17633,-24.81537,0.20139,0.42595,9.9088,-0.03015,0.07735,-0.15181,269.44244,-2.43135,1.71808,-0.03015
2018.12.19 12:26:50,19.25049,-5.37567,-23.01636,0.50784,1.13942,8.84218,0.16159,0.15724,-0.02718,269.63651,-3.10307,0.92994,0.16159
2018.12.19 12:26:50,20.75043,-4.92706,-23.61603,0.13914,1.04724,9.69212,0.01566,0.10611,-0.14755,269.6564,-3.7695,0.54628,0.01566
2018.12.19 12:26:51,18.49976,-4.62646,-24.06616,0.8167,1.74156,8.91879,0.16159,-0.11441,0.00478,269.77435,-4.38337,1.04963,0.16159
2018.12.19 12:26:51,17.44995,-4.776,-22.11609,0.47433,1.19568,11.13821,0.01778,-0.09309,0.16777,269.04465,-4.51799,1.30327,0.01778
2018.12.19 12:26:51,17.44995,-2.52686,-22.41516,-0.86044,-0.58321,13.26068,-0.27623,0.10397,-0.16246,268.58072,-3.47207,0.56182,-0.27623
2018.12.19 12:26:51,17.74902,-5.37567,-21.51642,0.12837,0.34694,7.98146,0.43217,0.21796,0.27216,267.63483,-4.44358,0.20515,0.43217
2018.12.19 12:26:51,18.04962,-5.37567,-21.81549,-0.03204,0.3206,9.66579,0.01672,-0.08244,0.02715,266.4216,-5.3927,0.69229,0.01672
2018.12.19 12:26:51,17.74902,-4.62646,-20.76569,-0.44385,1.13223,8.67339,0.0817,0.00064,-0.04955,266.39175,-5.94157,0.77609,0.0817
2018.12.19 12:26:51,17.44995,-4.32587,-21.36536,-0.90114,1.44946,9.72923,-0.0717,-0.02492,-0.03571,266.52017,-5.657,0.78613,-0.0717
2018.12.19 12:26:51,16.99982,-5.67627,-21.21582,-0.44026,1.38243,10.34813,0.02417,0.07095,0.14326,266.01611,-5.43796,0.22134,0.02417
2018.12.19 12:26:51,16.69922,-4.776,-20.91522,1.89529,1.21124,11.20287,-0.10046,-0.05475,0.12622,264.55374,-5.48581,1.16432,-0.10046
2018.12.19 12:26:52,16.99982,-4.92706,-19.71588,0.06253,0.51334,9.80585,-0.43388,-0.00894,-0.42239,266.1019,-3.23857,1.0444,-0.43388
2018.12.19 12:26:52,16.54968,-3.87573,-20.46509,0.5701,0.16258,9.29349,0.12538,-0.10056,-0.2381,266.13132,-4.27538,1.37309,0.12538
2018.12.19 12:26:52,16.54968,-1.92566,-21.21582,-0.32892,0.33496,8.90443,0.23616,0.17747,-0.22531,268.22247,-5.09722,0.6931,0.23616
2018.12.19 12:26:52,15.80048,-1.17645,-19.26575,0.14752,1.28427,8.84457,0.02098,0.07735,-0.14116,268.64111,-5.71239,0.1262,0.02098
2018.12.19 12:26:52,14.90021,-1.47705,-20.16602,0.10921,1.74396,10.07399,-0.08342,-0.0164,0.0197,269.17343,-5.08314,-0.10033,-0.08342
2018.12.19 12:26:52,16.24908,-1.17645,-20.76569,-0.02007,1.71762,11.13223,-0.01524,-0.09097,0.07722,269.04831,-5.22602,0.1502,-0.01524
2018.12.19 12:26:52,14.90021,-0.27618,-19.86542,-0.62341,0.50375,12.5927,-0.29646,0.21902,-0.13158,269.39584,-4.73407,-0.51479,-0.29646
2018.12.19 12:26:52,16.24908,-0.12665,-21.21582,-0.48454,0.43672,7.55769,0.33524,0.34366,0.34567,268.93878,-4.39389,-1.10004,0.33524
2018.12.19 12:26:52,13.24921,0.62408,-21.81549,0.16667,0.45468,9.41679,-0.02057,-0.26248,0.22423,267.74786,-4.65485,0.23383,-0.02057
2018.12.19 12:26:53,12.79907,0.32349,-21.51642,-0.31696,0.6091,9.9471,-0.05252,-0.17406,0.03142,267.65399,-4.52991,0.64583,-0.05252
2018.12.19 12:26:53,14.14948,1.22375,-21.36536,-0.01888,1.35728,9.576,-0.00565,0.0294,0.09106,267.40359,-4.61262,0.71543,-0.00565
2018.12.19 12:26:53,12.5,3.17383,-21.81549,-0.22836,1.37166,10.21526,0.14348,-0.01852,-0.008,268.52173,-5.1131,1.60787,0.14348
2018.12.19 12:26:53,12.35046,2.27356,-22.71576,1.28238,0.86409,10.77789,0.12325,-0.32106,-0.106,270.38074,-6.08264,2.63082,0.12325
2018.12.19 12:26:53,12.5,6.17371,-22.26563,0.51263,0.7348,10.57918,-0.56386,0.02301,-0.44051,272.69592,-3.93174,3.02764,-0.56386
2018.12.19 12:26:53,12.64954,5.57404,-23.46497,0.81311,0.44151,9.15701,0.04442,0.04433,0.05165,272.40329,-4.7604,2.47404,0.04442
2018.12.19 12:26:53,13.40027,6.77338,-22.71576,-0.38399,0.66177,8.8338,-0.13562,0.57376,-0.14969,273.125,-4.09659,0.52199,-0.13562
2018.12.19 12:26:53,13.8504,6.02417,-22.41516,0.4899,0.86888,10.47502,0.01991,0.06242,0.16031,273.74789,-4.35638,-1.12965,0.01991
2018.12.19 12:26:53,14.14948,6.32324,-23.46497,0.87895,1.44229,9.10075,0.217,-0.0164,0.34886,272.70532,-4.90896,0.20365,0.217
2018.12.19 12:26:53,13.8504,6.02417,-23.16589,0.47313,1.07118,10.25955,0.04549,-0.18578,0.06018,272.86099,-5.29844,0.98581,0.04549
2018.12.19 12:26:54,14.14948,9.62372,-23.16589,-0.50848,0.22484,11.58594,-0.56918,0.42781,-0.32652,274.58972,-3.73071,-0.45897,-0.56918
2018.12.19 12:26:54,14.90021,10.82306,-22.71576,-0.85445,0.58876,8.41002,0.18929,0.36389,0.18375,276.4115,-2.04879,-0.16415,0.18929
2018.12.19 12:26:54,13.5498,11.42426,-23.31543,-0.11584,0.28229,10.03569,-0.04933,-0.26993,0.26044,276.1644,-2.48409,-0.59945,-0.04933
2018.12.19 12:26:54,14.90021,11.12366,-24.9649,-0.09668,0.86768,8.69853,0.07744,-0.01534,0.20079,275.69653,-2.95674,-0.21888,0.07744
2018.12.19 12:26:54,14.74915,11.72333,-23.01636,-0.12781,0.97183,9.412,0.00287,-0.02599,0.05804,276.77423,-3.12702,-0.02731,0.00287
2018.12.19 12:26:54,15.64941,10.37292,-22.71576,0.09366,0.71086,10.37567,0.06786,-0.03984,0.02077,279.47314,-3.62302,-0.09462,0.06786
2018.12.19 12:26:54,15.04974,11.42426,-24.36523,0.84663,0.10751,11.69368,-0.29646,-0.07072,-0.23064,282.48605,-2.67618,0.71062,-0.29646
2018.12.19 12:26:54,16.99982,12.47406,-24.36523,1.20816,0.36369,9.27673,0.17757,0.14659,0.02502,285.0267,-0.96149,0.43907,0.17757
2018.12.19 12:26:54,16.99982,12.17346,-23.61603,0.20978,-0.16063,9.62508,0.15414,-0.00043,-0.30202,286.75903,-2.13089,0.60515,0.15414
2018.12.19 12:26:55,17.30042,13.974,-24.81537,0.24928,0.91795,7.98386,0.22765,0.15831,-0.13797,289.31345,-2.85955,-0.38505,0.22765
2018.12.19 12:26:55,17.74902,13.974,-24.81537,-0.04761,1.01253,10.01654,-0.05573,0.02408,-0.24023,291.46179,-3.04121,-0.53092,-0.05573
2018.12.19 12:26:55,17.74902,12.47406,-24.81537,-0.38878,1.46024,9.52692,0.12538,0.04433,-0.05275,293.04123,-3.48323,-0.68289,0.12538
2018.12.19 12:26:55,17.90009,13.82294,-24.66583,0.62875,1.17653,10.6869,-0.00992,0.02194,0.26471,294.08908,-4.0284,-0.11323,-0.00992
2018.12.19 12:26:55,18.94989,13.82294,-23.16589,-0.82094,-0.49223,12.64656,-0.50313,-0.06647,-0.1369,295.03488,-1.9642,-0.56762,-0.50313
2018.12.19 12:26:55,19.99969,12.47406,-25.11597,-0.03802,0.19611,8.22089,0.23616,0.06882,0.29347,293.69128,-3.83504,-0.58439,0.23616
2018.12.19 12:26:55,21.49963,10.22339,-25.86517,-0.46539,0.13625,10.09435,-0.12177,-0.28911,0.05591,293.58972,-3.31776,0.99528,-0.12177
2018.12.19 12:26:55,20.14923,11.12366,-25.2655,-0.0105,1.07837,8.59798,0.06358,0.03366,0.10066,293.06299,-4.2564,0.74409,0.06358
2018.12.19 12:26:55,20.14923,10.82306,-26.76544,-0.07993,1.26392,9.42038,-0.06531,0.03047,0.05058,293.05441,-4.15858,0.73939,-0.06531
2018.12.19 12:26:55,21.49963,11.42426,-26.16577,-0.36484,0.82338,10.83057,-0.03973,0.12634,-0.03783,294.20087,-4.2013,-0.05854,-0.03973
2018.12.19 12:26:56,22.0993,12.47406,-26.91498,0.26843,0.27032,11.85049,-0.34654,0.01024,-0.19443,295.09943,-3.31592,0.47897,-0.34654
2018.12.19 12:26:56,21.0495,12.77313,-24.81537,1.30751,0.33496,9.84654,0.09767,-0.03664,0.08681,296.75433,-1.70399,-0.2304,0.09767
2018.12.19 12:26:56,21.49963,12.17346,-25.86517,0.01823,-0.24802,9.95189,0.15201,-0.01215,-0.32013,297.40244,-2.64197,0.15495,0.15201
2018.12.19 12:26:56,23.14911,12.6236,-25.2655,0.20259,1.0257,7.91922,0.18396,0.11356,-0.06873,299.13171,-3.82775,-0.58457,0.18396
2018.12.19 12:26:56,22.54944,12.47406,-25.11597,-0.24991,1.03528,9.88725,-0.10686,-0.09309,-0.16353,299.99872,-3.65955,-0.36857,-0.10686
2018.12.19 12:26:56,21.94977,12.323,-25.2655,-0.22957,1.37285,9.97704,0.07744,0.10718,0.06337,300.51633,-3.85353,-1.04703,0.07744
2018.12.19 12:26:56,23.14911,11.87439,-26.01624,0.30673,1.14421,11.29504,-0.08768,-0.02173,0.28175,299.23386,-3.94339,-0.50287,-0.08768
2018.12.19 12:26:56,23.59924,12.47406,-25.11597,-0.96219,-0.64067,13.11942,-0.21124,-0.06433,0.06656,298.58093,-1.96909,-1.23244,-0.21124
2018.12.19 12:26:56,24.20044,10.82306,-25.2655,0.01823,0.0321,9.5748,0.16159,0.07521,0.30199,297.11816,-2.74112,-1.92301,0.16159
2018.12.19 12:26:57,24.20044,9.32312,-24.66583,-0.1338,0.41397,8.51297,0.2074,-0.09949,0.05486,296.33563,-3.08985,-0.5994,0.2074
2018.12.19 12:26:57,25.54932,8.72345,-24.06616,-0.30258,0.79825,8.72487,0.15947,-0.02705,0.02821,295.96024,-4.1567,-0.61167,0.15947
2018.12.19 12:26:57,23.59924,10.67352,-26.16577,-0.0883,1.20645,9.15941,0.10301,-0.0132,-0.01971,295.98303,-4.70534,-0.13552,0.10301
2018.12.19 12:26:57,24.04938,9.17358,-25.11597,-0.2128,1.03168,10.80782,0.06679,-0.12186,-0.09856,296.73523,-5.27569,-0.07747,0.06679
2018.12.19 12:26:57,22.3999,9.32312,-24.9649,0.46954,0.62347,12.10069,-0.18781,-0.02599,-0.22426,297.33636,-4.98262,0.12116,-0.18781
2018.12.19 12:26:57,22.54944,10.67352,-25.5661,0.48511,0.36969,10.36369,0.10194,-0.04091,-0.13477,299.96533,-3.77487,-0.57994,0.10194
2018.12.19 12:26:57,21.94977,10.82306,-25.2655,-0.01408,0.57559,8.28673,0.23404,0.0571,-0.1955,300.34286,-4.66441,0.2259,0.23404
2018.12.19 12:26:57,21.94977,9.62372,-25.71564,0.25047,1.37285,8.00182,0.1371,0.12848,-0.03038,300.965,-5.95494,-0.5908,0.1371
2018.12.19 12:26:57,22.85004,10.22339,-25.11597,-0.40434,1.3154,9.95547,-0.23042,0.09119,-0.11028,301.56525,-5.1362,-1.18468,-0.23042
2018.12.19 12:26:58,21.80023,10.67352,-24.36523,-0.18527,1.62784,10.32898,-0.04613,0.10291,0.11024,301.40384,-4.80146,-1.48038,-0.04613
2018.12.19 12:26:58,21.80023,10.67352,-23.61603,-0.19963,1.37645,11.57396,-0.07277,0.07735,0.13687,300.54623,-4.60502,-1.55856,-0.07277
2018.12.19 12:26:58,21.64917,11.12366,-22.71576,-1.39314,-0.56285,13.82332,-0.1665,-0.12932,0.00266,300.21707,-3.56801,-2.10448,-0.35719
2018.12.19 12:26:58,23.30017,8.42438,-24.36523,-0.15894,0.85211,6.60361,0.36612,0.25525,0.50652,297.94604,-4.75707,-2.76774,0.36612
2018.12.19 12:26:58,22.3999,9.62372,-25.2655,-0.12302,0.1949,10.08716,-0.09726,-0.25502,0.11771,296.83466,-3.62535,-0.59321,-0.09726
2018.12.19 12:26:58,23.30017,9.92432,-24.36523,-0.19604,0.91916,8.53691,0.10088,0.04433,0.09639,296.1394,-4.23882,-0.71475,0.10088
2018.12.19 12:26:58,21.0495,9.17358,-24.81537,-0.06317,1.26033,9.48024,-0.00992,-0.02066,-0.03357,296.17014,-4.18983,-0.13173,-0.00992
2018.12.19 12:26:58,21.64917,10.07385,-24.9649,-0.61862,0.9826,10.36728,0.10513,0.02301,-0.07617,296.6106,-4.6849,-0.2989,0.10513
2018.12.19 12:26:58,21.94977,11.57379,-22.71576,1.11238,0.68092,12.34848,-0.26237,-0.10269,-0.19336,297.49704,-4.24284,0.16245,-0.26237
2018.12.19 12:26:58,21.80023,13.22327,-23.01636,1.1866,0.61508,8.64586,0.21272,0.21263,0.01437,300.20679,-2.59778,-0.2139,0.21272
2018.12.19 12:26:59,21.0495,12.77313,-25.5661,0.18822,0.35413,9.17856,0.18929,-0.0867,-0.22426,300.40616,-3.98587,0.22544,0.18929
2018.12.19 12:26:59,20.89996,13.07373,-24.2157,0.4863,1.22322,7.839,0.1371,0.16364,-0.09749,302.21616,-4.35222,-0.52981,0.1371
2018.12.19 12:26:59,21.80023,12.77313,-23.31543,0.11041,1.38602,9.88007,-0.09514,0.00278,-0.07191,302.69177,-4.58589,-0.95196,-0.09514
2018.12.19 12:26:59,21.0495,13.52386,-24.36523,0.01584,1.78825,9.33539,0.11472,0.09651,0.07616,303.10876,-4.53381,-1.07791,0.11472
2018.12.19 12:26:59,22.54944,12.17346,-25.11597,0.27322,1.44109,10.99576,0.12325,0.09225,0.30945,301.95831,-5.65899,-1.34474,0.12325
2018.12.19 12:26:59,24.04938,13.974,-23.61603,-1.92227,-0.29471,11.72839,-0.29541,-0.10269,-0.07191,301.62375,-3.92594,-1.30971,-0.29541
2018.12.19 12:26:59,22.7005,11.87439,-25.71564,-0.28583,0.14223,9.34377,0.1552,-0.10056,0.35312,300.18079,-4.46165,-1.76394,0.1552
2018.12.19 12:26:59,23.59924,10.97412,-25.11597,-0.05838,0.5648,8.62431,0.18077,-0.08565,0.23488,298.82379,-4.64019,-0.52209,0.18077
2018.12.19 12:26:59,23.14911,12.6236,-25.71564,-0.31337,0.86528,8.82063,0.07318,-0.02173,0.11237,298.08789,-5.27995,-0.5466,0.07318
2018.12.19 12:27:00,24.04938,12.17346,-24.81537,-0.3385,1.28546,9.87408,-0.05785,-0.02066,0.06337,297.69781,-5.03066,-0.33982,-0.05785
2018.12.19 12:27:00,23.59924,11.72333,-26.61591,0.6479,1.3094,10.95865,-0.00139,-0.17087,0.04314,297.83224,-5.18668,0.31175,-0.00139
2018.12.19 12:27:00,22.7005,13.37433,-23.9151,0.13435,0.18173,12.83571,-0.39873,-0.09097,-0.42133,299.15845,-3.98889,0.98622,-0.39873
2018.12.19 12:27:00,22.0993,13.974,-25.11597,1.17703,0.65698,8.66859,0.32884,-0.04623,0.02928,301.20786,-3.50001,0.64911,0.32884
2018.12.19 12:27:00,23.59924,13.974,-26.16577,-0.36484,0.60312,8.7081,0.16052,0.12634,-0.25195,302.23752,-4.47153,0.9926,0.16052
2018.12.19 12:27:00,22.54944,15.0238,-25.86517,0.2397,1.29984,8.95471,0.14243,0.04219,-0.00374,302.98236,-5.66098,0.33278,0.14243
2018.12.19 12:27:00,23.30017,15.77301,-25.11597,-0.12901,1.65178,9.71725,-0.01524,0.07735,-0.04742,303.66022,-5.64743,-0.06174,-0.01524
2018.12.19 12:27:00,23.30017,14.72321,-26.91498,-0.18527,1.67572,10.69649,0.06891,0.01556,0.1209,303.59589,-6.19776,-0.14634,0.06891
2018.12.19 12:27:00,24.34998,14.27307,-24.36523,0.79396,1.30582,11.31538,-0.07277,0.04858,0.29666,302.08383,-6.37552,0.1831,-0.07277
2018.12.19 12:27:00,25.39978,14.57367,-25.2655,-0.53603,0.31821,9.1618,0.00287,-0.13251,0.07722,302.10071,-4.67044,0.54948,0.00287
2018.12.19 12:27:01,24.34998,15.0238,-24.36523,-0.24034,0.26074,10.16498,0.04228,-0.05475,0.33714,300.55136,-5.25745,-0.0335,0.04228
2018.12.19 12:27:01,25.70038,14.12354,-23.16589,0.47313,1.28906,8.01378,0.18716,0.03687,0.29987,298.82883,-5.00357,0.98369,0.18716
2018.12.19 12:27:01,24.20044,13.07373,-24.9649,0.02661,1.12506,9.21448,0.01566,-0.0899,0.06656,298.37967,-5.37047,0.92261,0.01566
2018.12.19 12:27:01,25.09918,13.22327,-24.36523,-0.07274,1.24596,10.19011,-0.01524,0.16682,-0.00481,298.47446,-5.2269,0.18225,-0.01524
2018.12.19 12:27:01,24.64905,14.57367,-22.41516,0.88614,0.61031,11.54523,-0.0685,-0.00043,-0.09642,299.16516,-5.29642,0.64891,-0.0685
2018.12.19 12:27:01,26.15051,14.57367,-23.16589,-0.48215,0.41876,10.84013,-0.22723,-0.01001,-0.28284,301.74942,-2.77849,-0.10555,-0.22723
2018.12.19 12:27:01,23.44971,13.82294,-23.16589,0.54735,0.39841,9.78191,0.12538,-0.01108,-0.27112,301.70828,-3.65004,0.8737,0.12538
2018.12.19 12:27:01,24.64905,15.17334,-22.71576,0.33067,1.05801,7.83183,0.22337,-0.04623,-0.26579,303.91541,-4.6253,1.15244,0.22337
2018.12.19 12:27:02,24.80011,15.77301,-23.31543,-0.00571,1.26871,8.90681,0.09235,0.09758,-0.23064,304.91254,-5.44195,0.38782,0.09235
2018.12.19 12:27:02,22.7005,15.92407,-22.41516,-0.27864,1.69727,9.72205,0.01245,0.07628,0.00798,305.83292,-5.22618,-0.19863,0.01245
2018.12.19 12:27:02,24.04938,14.72321,-23.01636,0.75925,1.53087,10.66896,0.05186,0.00385,0.22955,304.70032,-6.03934,-0.03579,0.05186
2018.12.19 12:27:02,25.09918,15.77301,-21.81549,-0.09549,-0.25281,13.09668,-0.38914,-0.06328,0.03035,303.73547,-4.62187,-0.22964,-0.38914
2018.12.19 12:27:02,24.94965,14.57367,-21.36536,-0.06557,0.7731,8.52136,0.17224,0.18813,0.29666,302.36478,-4.86628,-0.00335,0.17224
2018.12.19 12:27:02,26.15051,14.12354,-22.11609,-0.72876,0.15302,10.63902,-0.22191,-0.10588,-0.07724,302.08743,-4.03992,1.39401,-0.22191
2018.12.19 12:27:02,24.64905,15.17334,-21.36536,-0.56476,0.69409,8.70691,0.24362,-0.03984,0.16989,301.58975,-4.6558,1.88063,0.24362
2018.12.19 12:27:02,25.84991,11.42426,-21.81549,-0.03683,1.19209,9.06483,0.07637,0.08267,0.15712,300.54523,-5.41372,1.971,0.07637
2018.12.19 12:27:02,25.84991,11.72333,-20.76569,0.22533,1.21245,10.18054,-0.05466,0.04965,0.04314,299.84372,-5.81689,1.37938,-0.05466
2018.12.19 12:27:02,23.89984,13.82294,-22.11609,1.13872,0.6929,12.07555,-0.22403,-0.20815,-0.1156,300.22504,-4.94914,1.95539,-0.22403
2018.12.19 12:27:03,26.89972,14.12354,-21.36536,0.56291,0.09674,11.36687,-0.2677,-0.05688,-0.27644,302.82028,-2.14145,1.62636,-0.2677
2018.12.19 12:27:03,26.89972,13.37433,-21.66595,1.13513,0.31462,8.6662,0.2596,-0.00894,-0.16353,302.32999,-3.92962,2.21495,0.2596
2018.12.19 12:27:03,24.94965,14.12354,-21.66595,0.30434,1.16217,7.53375,0.11046,0.03261,-0.1955,303.38739,-4.34094,1.76606,0.11046
2018.12.19 12:27:03,25.84991,13.974,-20.01495,0.12956,1.25195,9.89922,-0.24854,0.0667,-0.11346,303.96823,-4.00575,1.65482,-0.24854
2018.12.19 12:27:03,26.30005,13.22327,-19.71588,0.52701,1.67453,9.58557,-0.08661,0.08907,0.06018,303.94882,-3.52036,1.32257,-0.08661
2018.12.19 12:27:03,27.04926,12.47406,-19.26575,0.23849,1.20047,11.60628,0.06891,-0.00894,0.25511,302.49762,-4.02249,1.46496,0.06891
2018.12.19 12:27:03,26.30005,10.67352,-18.66608,-0.54321,-0.04211,12.4646,-0.11111,0.11995,0.17203,300.13293,-4.5203,0.28883,-0.11111
2018.12.19 12:27:03,28.54919,9.47418,-19.71588,1.14709,0.72522,6.73288,0.44708,-0.12932,0.50226,298.49762,-5.21638,1.31082,0.44708
2018.12.19 12:27:03,27.20032,10.07385,-17.76581,0.45039,0.20567,11.44588,-0.38275,-0.34343,-0.16566,297.77402,-4.3267,2.33048,-0.38275
2018.12.19 12:27:04,27.20032,11.12366,-20.16602,0.08289,1.04005,8.95111,0.16905,-0.05688,-0.08896,298.05865,-4.96384,2.46749,0.16905
2018.12.19 12:27:04,27.34985,9.17358,-18.96515,0.10083,1.42313,9.09477,0.12006,0.11783,-0.13158,298.5838,-5.67209,2.21177,0.12006
2018.12.19 12:27:04,26.30005,7.67365,-20.46509,-0.10985,1.03528,10.80183,0.01991,0.05817,-0.13902,298.99915,-6.32847,2.02166,0.01991
2018.12.19 12:27:04,27.04926,9.92432,-20.76569,1.59721,0.57559,12.07196,-0.00246,-0.11974,-0.05594,299.12173,-6.41654,2.43179,-0.00246
2018.12.19 12:27:04,27.94952,10.82306,-19.56635,0.84903,0.86169,9.05406,-0.10472,-0.00682,-0.15607,300.84805,-4.45202,2.10699,-0.10472
2018.12.19 12:27:04,26.44958,11.57379,-18.81561,0.01704,0.39961,9.96147,-0.07382,-0.03345,-0.10707,300.92422,-4.40235,2.52852,-0.07382
2018.12.19 12:27:04,28.25012,11.12366,-18.36548,1.42123,1.07239,8.53812,0.09662,0.1125,0.09106,300.47586,-4.5043,2.06928,0.09662
2018.12.19 12:27:04,26.15051,11.57379,-20.16602,0.75685,0.95506,9.73402,0.00713,-0.04091,-0.06979,300.09137,-4.33313,2.12445,0.00713
2018.12.19 12:27:04,27.20032,11.12366,-19.56635,0.6946,1.28067,9.17258,0.22551,0.06349,0.10278,299.6987,-5.02489,1.56704,0.22551
2018.12.19 12:27:04,26.59912,9.17358,-20.01495,1.08844,1.28667,9.96506,0.08383,-0.11121,0.26578,297.73541,-6.25052,2.0514,0.08383
2018.12.19 12:27:05,25.84991,10.97412,-19.26575,-0.32892,-0.20493,12.28503,-0.5287,0.1306,-0.26047,297.39606,-4.25905,1.70151,-0.5287
2018.12.19 12:27:05,27.04926,10.97412,-20.46509,-0.40793,0.53847,8.68416,0.09023,0.27867,0.07722,297.21497,-4.1721,0.69835,0.09023
2018.12.19 12:27:05,26.59912,10.22339,-18.96515,-0.32294,0.35173,10.31342,-0.09833,-0.0963,0.1635,296.1843,-3.25815,1.25685,-0.09833
2018.12.19 12:27:05,27.94952,11.57379,-19.11621,0.06253,1.05682,8.94154,0.11046,0.01343,0.28708,294.70483,-3.84226,1.29639,0.11046
2018.12.19 12:27:05,26.59912,10.22339,-19.26575,0.00148,1.08675,9.6179,-0.0685,0.04645,-0.04103,294.62067,-3.55283,1.44685,-0.0685
2018.12.19 12:27:05,26.30005,11.42426,-18.66608,-0.69644,1.064,10.24638,-0.07489,0.18706,-0.11028,295.48233,-3.53798,0.12996,-0.07489
2018.12.19 12:27:05,25.84991,11.72333,-19.26575,1.19139,0.49419,12.12343,-0.11858,-0.1176,0.11237,295.30615,-3.13248,0.1618,-0.11858
2018.12.19 12:27:05,27.04926,12.77313,-16.716,-0.01888,0.45947,10.22244,-0.10898,0.17854,-0.07617,296.12292,-1.31485,-0.67352,-0.10898
2018.12.19 12:27:05,25.39978,12.323,-19.56635,0.30554,-0.00142,9.16779,0.12857,-0.14423,-0.09003,296.07785,-1.83961,0.16298,0.12857
2018.12.19 12:27:06,25.54932,14.72321,-17.91534,-0.38759,-0.2133,9.4946,-0.13029,-0.12399,-0.24342,297.905,-1.23433,0.65536,-0.13029
2018.12.19 12:27:06,26.30005,12.47406,-17.16614,-0.06557,0.5732,9.57361,0.0114,0.24458,0.07722,297.52423,-1.8638,0.39689,0.0114
2018.12.19 12:27:06,25.09918,11.42426,-17.46521,-0.17091,1.19209,9.64424,0.11792,0.08267,0.09959,297.17508,-2.20787,0.18308,0.11792
2018.12.19 12:27:06,24.94965,11.87439,-15.81573,0.04099,0.91556,10.93352,0.16905,-0.00043,0.03674,296.66479,-3.94648,-0.42419,0.16905
2018.12.19 12:27:06,25.70038,11.12366,-15.51514,-0.955,-0.30548,13.10985,-0.26237,0.10718,-0.15074,296.71396,-3.78079,-1.43028,-0.26237
2018.12.19 12:27:06,26.15051,11.12366,-15.51514,-0.37561,0.83775,7.24884,0.3576,0.11676,0.21997,296.30203,-4.19523,-1.45634,0.3576
2018.12.19 12:27:06,26.44958,11.12366,-15.21606,-0.55159,0.28589,11.00774,-0.20805,-0.25183,0.22635,294.72229,-4.03029,-0.45764,-0.20805
2018.12.19 12:27:06,25.39978,9.32312,-15.81573,0.05176,1.12267,8.96788,-0.04187,-0.08777,0.19865,292.62189,-4.37123,0.74463,-0.04187
2018.12.19 12:27:06,26.15051,9.62372,-16.26587,0.03978,1.24237,9.76395,-0.08875,0.19772,0.0101,292.42532,-3.77399,-0.26172,-0.08875
2018.12.19 12:27:07,25.70038,10.37292,-14.0152,-0.44026,1.22202,9.91599,0.03802,0.12422,-0.16034,293.51126,-4.0613,-1.05723,0.03802
2018.12.19 12:27:07,25.70038,10.82306,-15.21606,0.70178,1.17055,10.87964,0.02631,-0.11441,-0.07724,294.13068,-4.49901,-1.12665,0.02631
2018.12.19 12:27:07,26.89972,11.87439,-15.21606,-1.03641,-0.05051,10.52411,-0.47969,-0.05795,-0.60349,296.49493,-2.72691,-0.42897,-0.47969
2018.12.19 12:27:07,26.59912,12.17346,-13.56506,0.53658,0.0309,9.04329,0.09981,-0.01001,0.03568,296.98578,-2.55223,-0.20487,0.09981
2018.12.19 12:27:07,26.15051,13.07373,-15.51514,-0.38519,-0.15704,9.44791,-0.18036,-0.03238,-0.28391,297.88165,-2.00929,-0.02039,-0.18036
2018.12.19 12:27:07,26.30005,12.47406,-15.3656,0.37497,0.55763,9.64185,0.08916,-0.09416,0.19121,297.17188,-2.97811,-0.53206,0.08916
2018.12.19 12:27:07,27.04926,12.77313,-14.91547,0.44321,1.13104,9.67058,0.05933,0.04752,0.15392,295.97562,-2.97308,-0.36529,0.05933
2018.12.19 12:27:07,27.65045,11.87439,-16.26587,-0.5049,1.25554,10.44989,0.05186,0.02301,0.0719,295.63098,-3.43584,-0.5732,0.05186
2018.12.19 12:27:07,27.65045,12.6236,-14.76593,0.03259,0.76712,10.8174,-0.07703,0.19772,0.28601,294.21393,-3.63303,-0.89936,-0.07703
2018.12.19 12:27:07,28.09906,12.47406,-15.3656,-0.62221,-0.1714,10.78627,-0.40512,-0.12399,-0.13051,294.43857,-1.795,-1.20451,-0.40512
2018.12.19 12:27:08,27.65045,11.87439,-14.76593,-0.09908,-0.07445,10.28947,0.05507,-0.04517,0.20505,293.0347,-2.60962,-1.61134,0.05507
2018.12.19 12:27:08,29.29993,11.42426,-15.6662,-0.29062,0.60072,8.61713,0.19035,0.08907,0.02821,292.84308,-2.70325,-0.98481,0.19035
2018.12.19 12:27:08,28.84979,11.42426,-15.3656,-0.48215,0.84972,9.82739,0.01778,-0.07286,-0.03357,293.01718,-3.47562,-0.99544,0.01778
2018.12.19 12:27:08,30.2002,10.82306,-15.51514,-0.37561,1.26033,9.28751,0.08063,0.00703,-0.05487,293.26135,-3.85436,-0.88909,0.08063
2018.12.19 12:27:08,29.599,10.67352,-16.716,-0.1326,1.07118,10.10751,0.14775,-0.07605,0.09427,293.38943,-4.58398,-0.513,0.14775
2018.12.19 12:27:08,29.75006,12.6236,-15.21606,0.42764,0.05244,11.73198,-0.33694,0.1125,-0.18483,293.3735,-3.97668,-0.77979,-0.33694
2018.12.19 12:27:08,31.70013,12.6236,-14.46533,0.1176,0.12189,10.09555,0.01033,0.1338,-0.08044,295.37067,-2.06674,-1.90107,0.01033
2018.12.19 12:27:08,32.44934,13.37433,-14.76593,-0.12064,0.49777,9.59874,0.10406,0.01768,-0.00481,295.52676,-2.43859,-1.70665,0.10406
2018.12.19 12:27:08,31.99921,13.82294,-14.76593,0.21336,0.84853,8.81345,0.20953,0.05177,0.06444,295.10638,-3.44468,-1.75679,0.20953
2018.12.19 12:27:09,31.84967,13.22327,-15.3656,-0.13141,1.12865,9.17856,0.02098,0.02834,-0.04742,295.436,-3.7302,-1.67288,0.02098
2018.12.19 12:27:09,31.70013,12.323,-14.0152,-0.11345,1.26512,10.15181,0.09023,-0.00894,0.10066,294.96509,-4.26386,-1.69686,0.09023
2018.12.19 12:27:09,33.94928,9.62372,-15.51514,0.31273,1.09393,10.58516,0.13071,-0.12186,0.16777,293.81787,-5.03714,-0.98966,0.13071
2018.12.19 12:27:09,31.70013,10.82306,-14.46533,-0.62581,-0.61433,13.43904,-0.41365,-0.10909,-0.18164,293.43146,-3.60717,-1.36272,-0.41365
2018.12.19 12:27:09,34.10034,10.97412,-13.86566,-1.05676,0.5313,7.58163,0.19249,0.29466,0.06976,293.20044,-3.8923,-1.65103,0.19249
2018.12.19 12:27:09,32.2998,10.97412,-16.11633,-0.46181,0.26195,10.62585,-0.24321,-0.30296,0.05591,292.71045,-2.84775,-0.37563,-0.24321
2018.12.19 12:27:09,33.34961,9.47418,-15.3656,-0.15295,1.05083,8.70691,0.11472,0.0049,0.1358,291.68219,-3.42222,-0.02737,0.11472
2018.12.19 12:27:09,32.74994,7.82318,-13.71613,0.22295,1.21722,9.66458,-0.05252,0.07947,-0.00906,291.40146,-3.375,-0.00695,-0.05252
2018.12.19 12:27:09,33.04901,7.67365,-14.3158,-0.82932,1.02928,10.21765,0.11578,-0.10481,-0.15288,292.15097,-3.85103,-1.01164,0.11578
2018.12.19 12:27:10,34.10034,8.72345,-15.6662,0.26006,0.65221,11.68768,-0.01097,-0.04729,-0.01439,292.33484,-4.29335,-0.89692,-0.01097
2018.12.19 12:27:10,32.2998,9.92432,-13.86566,-0.96577,-0.04092,11.21364,-0.27942,0.13274,-0.35529,293.27457,-3.11312,-1.47969,-0.27942
2018.12.19 12:27:10,32.6004,8.42438,-15.6662,0.91965,0.43433,8.51178,0.29155,-0.10269,0.02928,293.25095,-3.75555,-1.00638,0.29155
2018.12.19 12:27:10,32.6004,8.42438,-15.6662,0.1595,0.76114,8.28313,0.11046,-0.00575,-0.04955,293.87994,-4.03579,-0.82785,0.11046
2018.12.19 12:27:10,30.9494,8.57391,-15.21606,-0.16731,0.96823,9.43713,-0.02589,0.0081,-0.03357,293.76517,-4.24604,-1.04054,-0.02589
2018.12.19 12:27:10,32.2998,9.17358,-14.61639,0.01704,1.34053,9.7388,-0.10365,0.04219,-0.00694,293.4332,-3.77182,-1.23055,-0.10365
2018.12.19 12:27:10,31.10046,7.67365,-14.61639,-0.10387,1.41116,10.77789,0.02098,-0.05049,0.08574,292.65781,-4.12246,-1.1348,0.02098
2018.12.19 12:27:10,30.9494,6.02417,-14.46533,0.56891,1.32497,11.31299,0.00394,0.09865,0.19653,290.80441,-4.70943,-0.78554,0.00394
2018.12.19 12:27:10,31.99921,6.32324,-13.26599,-0.15535,0.27512,8.74042,0.17119,-0.21561,0.00691,290.43243,-4.34298,-0.31148,0.17119
2018.12.19 12:27:10,31.99921,7.82318,-13.71613,-0.07993,0.12189,9.52573,-0.02164,0.00597,0.0623,289.78085,-4.9236,-0.5025,-0.02164
2018.12.19 12:27:11,31.25,7.52411,-14.0152,-0.06078,0.80663,8.40883,-0.00885,-0.08244,-0.02931,289.72998,-3.73474,0.62965,-0.00885
2018.12.19 12:27:11,31.84967,3.92303,-16.11633,-0.10866,1.18611,9.55804,-0.00885,-0.075,0.08467,288.6821,-4.43652,0.68411,-0.00885
2018.12.19 12:27:11,31.84967,5.87311,-13.86566,-0.03802,1.51172,9.77472,-0.02483,0.07095,0.01649,288.47345,-4.26316,0.56381,-0.02483
2018.12.19 12:27:11,30.34973,5.1239,-16.11633,-0.29181,1.09273,10.67374,0.00073,-0.03345,-0.02611,288.04053,-4.67513,0.27266,0.00073
2018.12.19 12:27:11,29.29993,4.37317,-15.3656,1.19499,0.50854,11.67332,-0.09087,-0.18578,-0.04315,287.91882,-4.59706,1.27047,-0.09087
2018.12.19 12:27:11,28.84979,6.4743,-15.6662,-0.23315,-0.04332,10.68811,-0.09087,-0.07605,-0.13797,290.15601,-2.2077,1.11444,-0.09087
2018.12.19 12:27:11,30.79987,6.17371,-15.6662,0.93521,0.41997,7.92999,0.19356,-0.00787,-0.12518,289.45313,-3.71703,2.32226,0.19356
2018.12.19 12:27:11,29.29993,6.17371,-14.61639,0.6898,1.1095,8.07124,-0.01418,0.06242,0.04526,289.98099,-3.58386,1.83536,-0.01418
2018.12.19 12:27:11,29.599,5.87311,-14.91547,0.07091,1.36328,9.87288,-0.18994,0.04433,-0.00587,289.83752,-2.90159,1.37503,-0.18994
2018.12.19 12:27:12,28.99933,5.27344,-14.46533,0.284,1.40398,10.13026,0.1275,-0.03238,0.07083,289.21036,-3.07269,1.18949,0.1275
2018.12.19 12:27:12,29.75006,7.07397,-15.51514,0.81071,1.12506,10.85211,0.21272,0.07628,0.28815,288.50061,-3.9313,1.09271,0.21272
2018.12.19 12:27:12,28.84979,5.87311,-14.91547,-0.90593,-0.94713,12.25511,-0.22723,0.20731,-0.09749,287.21448,-4.11638,-0.01404,-0.22723
2018.12.19 12:27:12,28.54919,3.17383,-15.6662,0.13077,0.22603,7.839,0.10406,0.1306,0.27536,285.8042,-4.18214,-0.89588,0.10406
2018.12.19 12:27:12,29.44946,4.52423,-13.71613,-0.39597,0.10393,11.12984,-0.25493,-0.22307,0.07935,285.18057,-3.16065,0.25584,-0.25493
2018.12.19 12:27:12,28.70026,4.8233,-17.76581,-0.41631,1.09752,9.37729,0.02417,0.1338,-0.01334,284.9433,-2.76048,0.19952,0.02417
2018.12.19 12:27:12,28.84979,3.92303,-14.91547,-0.02367,1.30821,9.42157,0.1552,0.12955,-0.16141,285.46899,-2.97379,-0.2326,0.1552
2018.12.19 12:27:12,28.54919,5.87311,-17.16614,-0.5827,0.75037,10.43312,0.16798,-0.0441,-0.15395,286.35687,-4.40582,-0.64891,0.16798
2018.12.19 12:27:12,28.54919,5.42297,-16.716,0.6539,0.5289,11.7224,-0.27409,-0.18578,-0.12837,286.61557,-4.62142,0.2961,-0.27409
2018.12.19 12:27:12,27.20032,6.32324,-17.01508,1.24167,0.33736,10.29306,-0.28688,0.0667,-0.12198,287.50986,-2.3448,0.12954,-0.28688
2018.12.19 12:27:13,27.04926,7.22351,-17.91534,-0.11824,-0.57841,9.6179,-0.13242,0.04326,-0.36699,288.16403,-2.69427,0.38543,-0.13242
2018.12.19 12:27:13,27.20032,6.77338,-17.76581,0.82986,0.66776,8.0078,0.25746,0.03047,0.3201,287.79413,-2.9266,0.90663,0.25746
2018.12.19 12:27:13,28.25012,6.02417,-17.76581,0.32111,0.87007,9.72923,0.0295,-0.06647,-0.01866,287.31683,-3.17242,0.57415,0.0295
2018.12.19 12:27:13,28.54919,6.4743,-18.21594,0.59164,1.33095,9.65741,0.15094,-0.12613,0.08255,287.48468,-3.62478,0.77112,0.15094
2018.12.19 12:27:13,28.99933,5.57404,-19.56635,0.23491,1.29504,10.20927,0.12218,-0.08777,0.08574,286.99167,-4.31454,1.01445,0.12218
2018.12.19 12:27:13,28.84979,7.22351,-16.716,-1.01367,-0.45033,13.11104,-0.60007,0.22754,-0.07617,286.15805,-2.72297,-0.302,-0.60007
2018.12.19 12:27:13,29.599,6.17371,-16.716,0.13675,0.13145,8.75479,0.03589,0.1402,0.27962,284.99609,-1.59651,-1.28017,0.03589
2018.12.19 12:27:13,27.65045,4.8233,-17.76581,-0.08951,-0.12112,10.28589,-0.14839,-0.11974,0.08681,284.33905,-0.9705,-0.45253,-0.14839
2018.12.19 12:27:13,28.09906,5.42297,-17.91534,0.42166,1.00415,7.80669,0.26385,0.03154,0.1145,283.33438,-2.19628,-0.32683,0.26385
2018.12.19 12:27:14,26.59912,4.67377,-17.46521,-0.60306,0.4463,10.69888,-0.04613,-0.09204,-0.16141,284.18393,-2.05959,0.36384,-0.04613
2018.12.19 12:27:14,27.34985,5.1239,-18.21594,-0.60306,0.63544,10.63065,0.20847,-0.04517,-0.00374,284.23737,-2.95897,0.48894,0.20847
2018.12.19 12:27:14,25.39978,4.0741,-19.11621,1.19618,1.1035,10.71924,0.04868,-0.07179,0.15605,283.73239,-3.84318,1.13264,0.04868
2018.12.19 12:27:14,25.39978,5.27344,-18.36548,-1.06035,0.01414,11.07956,-0.51059,0.24033,-0.71747,285.73669,-2.16986,1.06335,-0.51059
2018.12.19 12:27:14,24.34998,6.4743,-19.26575,-0.28941,-0.34019,9.70888,0.12964,0.02728,-0.14542,288.19675,-2.22778,-0.37869,0.12964
2018.12.19 12:27:14,25.54932,5.42297,-17.46521,0.23132,0.45348,9.09955,-0.08661,0.23181,0.23701,287.13928,-1.70068,-1.11259,-0.08661
2018.12.19 12:27:14,26.44958,6.32324,-18.36548,0.53059,0.68811,9.80585,0.15733,-0.0228,0.19547,286.07278,-2.01931,-1.60662,0.15733
2018.12.19 12:27:14,23.89984,5.57404,-17.76581,0.25766,1.22083,8.99899,0.26173,-0.09416,0.17842,285.28522,-3.26466,-1.6721,0.26173
2018.12.19 12:27:14,24.20044,3.32336,-18.36548,-0.49054,1.16815,10.43672,0.10194,-0.08032,0.18694,284.42694,-4.11105,-1.36891,0.10194
2018.12.19 12:27:15,24.04938,2.4231,-17.91534,0.41447,1.4351,9.63347,-0.06105,0.34579,0.26578,282.13995,-4.79957,-1.02638,-0.06105
2018.12.19 12:27:15,24.20044,4.0741,-18.81561,-0.93106,-0.26956,10.63423,-0.58302,-0.2124,-0.38298,283.1554,-2.37751,-1.2585,-0.58302
2018.12.19 12:27:15,22.0993,3.92303,-20.46509,-0.47856,-0.33063,10.88922,-0.07063,-0.10376,-0.10281,283.00809,-2.57814,-2.67389,-0.07063
2018.12.19 12:27:15,22.0993,3.62396,-18.66608,-0.1721,0.6953,8.76317,0.41406,0.02515,0.10918,283.32703,-3.2812,-1.81946,0.41406
2018.12.19 12:27:15,21.80023,3.92303,-18.21594,-0.67488,0.86768,9.42757,0.19249,-0.0867,-0.15927,284.22662,-5.05836,-1.28876,0.19249
2018.12.19 12:27:15,21.64917,5.57404,-19.56635,-0.64735,1.54643,9.17616,0.20633,0.02728,-0.19229,285.12869,-6.08982,-1.08747,0.20633
2018.12.19 12:27:15,21.0495,4.37317,-20.76569,-0.34688,1.80501,10.16498,0.00287,-0.00362,0.07509,285.66888,-6.671,-1.47399,0.00287
2018.12.19 12:27:15,21.64917,5.57404,-20.61615,-1.47215,0.31102,12.1402,-0.47969,0.03473,-0.19655,286.13208,-5.34848,-1.29373,-0.47969
2018.12.19 12:27:15,20.30029,6.4743,-19.26575,1.20456,0.50375,9.82021,0.12325,-0.04303,0.31477,286.22672,-3.78375,-1.78552,0.12325
2018.12.19 12:27:15,21.19904,6.02417,-21.66595,-0.21999,0.37807,9.52333,0.06358,-0.0963,-0.07405,286.40891,-4.59506,-1.06235,0.06358
2018.12.19 12:27:16,21.64917,6.02417,-18.81561,0.31033,1.11308,8.42918,0.22551,0.13167,0.14645,285.9274,-5.50829,-1.19808,0.22551
2018.12.19 12:27:16,21.0495,7.97424,-21.51642,0.05655,1.23518,9.62987,-0.08128,-0.00362,-0.00374,286.20157,-5.44347,-1.01067,-0.08128
2018.12.19 12:27:16,21.64917,7.82318,-20.61615,0.03738,1.57158,10.13625,-0.00885,0.00917,0.06123,286.33069,-5.566,-0.90435,-0.00885
2018.12.19 12:27:16,22.54944,7.97424,-21.81549,0.2373,1.51051,10.83296,0.04654,-0.27846,0.15712,286.29169,-5.76565,0.07119,0.04654
2018.12.19 12:27:16,20.89996,10.07385,-20.16602,-1.13936,-0.3378,12.71001,-0.25705,-0.22945,-0.20082,287.11264,-3.82519,-0.0252,-0.25705
2018.12.19 12:27:16,22.7005,9.02405,-20.91522,-0.20563,0.47144,8.41481,0.25214,0.21902,0.23274,286.43408,-4.84256,-0.57493,0.25214
2018.12.19 12:27:16,22.85004,10.22339,-22.26563,-0.2966,0.33138,10.38165,-0.12709,-0.14955,-0.00587,286.37851,-4.1002,0.77923,-0.12709
2018.12.19 12:27:16,23.44971,9.32312,-20.91522,-0.3385,1.03647,8.87929,0.10301,0.07735,0.09106,286.51511,-4.42985,0.60207,0.10301
2018.12.19 12:27:16,22.7005,9.62372,-23.16589,-0.12781,1.40637,9.66698,-0.01311,-0.06007,0.00691,286.73541,-4.40319,1.0885,-0.01311
2018.12.19 12:27:17,23.44971,10.07385,-20.91522,-0.15175,1.15019,10.81619,0.10194,-0.08458,-0.02078,288.19907,-4.97057,1.27121,0.10194
2018.12.19 12:27:17,23.59924,10.67352,-21.81549,1.46553,0.8186,10.91675,0.18929,-0.04836,0.03354,288.50092,-5.77497,1.84948,0.18929
2018.12.19 12:27:17,24.80011,13.52386,-21.51642,-0.85684,0.46185,9.43713,-0.46692,0.3394,-0.57686,291.96631,-3.44909,0.00944,-0.46692
2018.12.19 12:27:17,25.54932,12.17346,-22.56622,0.35103,0.57918,9.77113,0.00073,-0.07605,-0.10921,292.0954,-3.98652,0.52197,0.00073
2018.12.19 12:27:17,25.54932,12.77313,-20.76569,0.40251,1.22801,8.38847,0.07318,0.15617,-0.04208,293.17087,-3.80337,0.28347,0.07318
2018.12.19 12:27:17,24.34998,15.47394,-22.26563,0.2421,1.20168,9.08998,0.03163,0.08479,-0.13264,294.38013,-4.21005,-0.33237,0.03163
2018.12.19 12:27:17,26.44958,13.07373,-20.16602,0.01942,1.28667,10.07639,0.04868,-0.04623,0.13901,295.01776,-4.1301,-0.95,0.04868
2018.12.19 12:27:17,27.34985,11.72333,-21.81549,0.70297,1.41235,9.67775,0.25214,-0.14104,0.31371,293.87372,-5.19643,-0.31573,0.25214
2018.12.19 12:27:17,28.84979,13.22327,-20.46509,-1.21597,-0.53532,14.18484,-0.45732,0.21796,-0.08896,293.05179,-4.63746,-0.91293,-0.45732
2018.12.19 12:27:18,28.09906,12.77313,-20.01495,-0.02725,0.93352,6.65268,0.26492,0.284,0.30731,292.32013,-4.33117,-1.23353,0.26492
2018.12.19 12:27:18,28.54919,11.72333,-21.51642,-0.82571,-0.41562,12.09351,-0.36891,-0.32001,-0.05594,292.48407,-3.1272,-0.34102,-0.36891
2018.12.19 12:27:18,30.79987,12.17346,-20.46509,0.25885,1.04845,7.74803,0.29582,0.1338,0.36377,290.76614,-3.98325,-0.44565,0.29582
2018.12.19 12:27:18,29.599,9.17358,-20.76569,-0.10747,1.19928,9.81662,-0.01311,0.15192,-0.00267,290.25815,-4.24719,-0.49512,-0.01311
2018.12.19 12:27:18,30.2002,9.02405,-20.91522,-0.17091,0.95866,10.36967,0.05293,0.0049,-0.0602,290.55441,-4.5956,-0.91925,0.05293
2018.12.19 12:27:18,29.599,10.22339,-19.71588,0.92325,0.8988,11.37883,-0.03229,-0.18259,-0.09322,291.31348,-4.47307,-0.41136,-0.03229
2018.12.19 12:27:18,28.09906,12.17346,-20.01495,-0.955,0.43314,10.20807,-0.43495,0.15617,-0.54063,293.63022,-2.48385,-0.80955,-0.43495
2018.12.19 12:27:18,30.34973,11.72333,-20.46509,0.63594,0.2368,10.59235,0.07211,-0.19963,-0.03996,294.40729,-2.55645,-0.41863,0.07211
2018.12.19 12:27:18,28.70026,11.12366,-20.16602,0.17386,0.89282,8.20412,0.30754,-0.01108,-0.07831,295.32883,-3.86057,-0.58852,0.30754
2018.12.19 12:27:18,30.34973,13.22327,-21.21582,0.14871,0.89641,9.4539,0.15094,0.10078,-0.08363,295.53687,-4.92105,-0.81204,0.15094
2018.12.19 12:27:19,29.29993,11.72333,-21.51642,-0.07513,1.44469,9.29947,0.09767,0.09012,-0.008,295.79694,-5.69414,-1.41641,0.09767
2018.12.19 12:27:19,31.10046,11.42426,-20.01495,-0.45103,1.29265,10.38884,0.02631,0.03473,0.04207,295.6261,-5.95459,-1.494,0.02631
2018.12.19 12:27:19,31.70013,13.37433,-18.81561,-0.59468,0.29906,12.89078,-0.37849,0.3085,-0.06233,295.02618,-5.33058,-2.00893,-0.37849
2018.12.19 12:27:19,31.99921,12.323,-19.56635,-0.82811,0.76831,7.57086,0.27238,0.235,0.23488,295.30679,-4.03958,-3.01725,0.27238
2018.12.19 12:27:19,30.79987,12.17346,-21.21582,-0.52765,0.07161,10.78867,-0.02269,-0.30615,0.2157,294.07108,-4.65191,-2.19225,-0.02269
2018.12.19 12:27:19,30.34973,10.97412,-20.76569,-0.71918,0.76831,8.35376,0.16373,0.07414,0.18268,292.82272,-4.86339,-1.61465,0.16373
2018.12.19 12:27:19,31.54907,11.72333,-20.76569,-0.41272,1.1897,9.11632,-0.04826,-0.0377,0.10599,291.88187,-5.03199,-1.3668,-0.04826
2018.12.19 12:27:19,32.44934,11.57379,-19.56635,-0.22836,1.38602,9.69452,-0.04294,0.0049,0.04419,291.67963,-4.82788,-1.44491,-0.04294
2018.12.19 12:27:19,30.9494,10.07385,-20.16602,0.30194,1.43869,9.92676,-0.06317,-0.09737,0.03886,291.55579,-4.84637,-1.06484,-0.06317
2018.12.19 12:27:20,32.2998,13.52386,-19.71588,-0.41032,0.1949,11.60269,-0.6235,0.06563,-0.29988,292.65363,-2.55075,-1.05317,-0.6235
2018.12.19 12:27:20,33.04901,12.47406,-19.71588,0.84064,0.19371,9.88007,-0.00032,-0.10588,0.09532,292.9296,-0.92887,-1.0501,-0.00032
2018.12.19 12:27:20,34.10034,13.974,-19.26575,-0.12662,0.07878,9.56523,0.08383,0.06137,-0.24449,293.91168,-1.47265,-0.92411,0.08383
2018.12.19 12:27:20,32.2998,13.22327,-20.01495,0.26604,0.96344,8.48065,0.21486,-0.04517,-0.07724,294.35297,-2.48922,-0.9025,0.21486
2018.12.19 12:27:20,32.44934,14.12354,-21.66595,0.00027,1.16695,10.00098,0.04974,-0.11546,-0.14862,295.6192,-3.61404,0.31693,0.04974
2018.12.19 12:27:20,31.25,14.57367,-20.61615,-0.03204,1.70804,9.86331,0.11578,0.07735,0.02821,295.75867,-4.12004,-0.00776,0.11578
2018.12.19 12:27:20,33.79974,13.52386,-21.21582,0.53059,1.33694,10.7731,0.04761,0.08907,0.25192,294.69598,-4.81494,-0.05134,0.04761
2018.12.19 12:27:20,34.84955,15.0238,-21.21582,-1.0005,-1.01297,13.76825,-0.35826,-0.0164,-0.14542,294.69669,-2.58428,-0.78599,-0.35826
2018.12.19 12:27:20,36.94916,13.37433,-20.16602,-0.23914,0.651,6.81789,0.43111,0.3607,0.39893,293.20709,-3.87748,-1.62038,0.43111
2018.12.19 12:27:20,34.84955,14.27307,-20.46509,-0.69763,-0.02776,11.07358,-0.1452,-0.32745,0.04526,292.08813,-3.8222,0.21687,-0.1452
2018.12.19 12:27:21,35.60028,13.974,-21.21582,-0.16492,0.86649,8.61713,0.1339,-0.08138,0.03354,291.36493,-4.92763,0.56406,0.1339
2018.12.19 12:27:21,37.69989,13.82294,-21.66595,-0.2583,0.93471,9.76155,-0.05678,-0.05368,-0.05913,291.63235,-4.92495,0.80655,-0.05678
2018.12.19 12:27:21,37.84943,12.77313,-21.81549,-0.53482,1.14301,9.68254,-0.00671,-0.03984,-0.0112,291.92126,-4.91943,0.75964,-0.00671
2018.12.19 12:27:21,37.39929,15.47394,-22.26563,0.68024,0.47264,12.36644,-0.46904,-0.02919,-0.15607,292.02805,-3.53859,1.37547,-0.46904
2018.12.19 12:27:21,38.4491,18.17322,-21.36536,-0.791,0.10512,10.08357,-0.49887,0.20624,-0.51613,294.58264,-0.39594,0.7523,-0.49887
2018.12.19 12:27:21,39.19983,17.42401,-21.66595,0.51862,-0.08282,9.31862,0.16692,-0.02705,0.01756,294.56528,-1.80695,-0.21821,0.16692
2018.12.19 12:27:21,39.19983,17.12341,-21.36536,0.32469,0.4451,8.95351,-0.07277,-0.05582,0.01117,294.63794,-1.42777,-0.12243,-0.07277
2018.12.19 12:27:21,38.74969,17.42401,-20.91522,-0.00331,0.58037,9.90042,-0.02269,0.03473,-0.03357,294.3588,-1.89513,-1.20223,-0.02269
2018.12.19 12:27:21,41.00037,17.12341,-19.11621,0.30794,1.15738,9.48383,0.22444,-0.00362,0.12836,293.85611,-2.85611,-0.99872,0.22444
2018.12.19 12:27:22,40.8493,16.52374,-22.26563,0.16548,1.09991,10.54445,0.1861,-0.33492,0.15605,293.31818,-3.85246,0.03171,0.1861
2018.12.19 12:27:22,41.1499,17.27295,-23.31543,0.27441,0.99696,10.51213,-0.1452,0.16469,0.05804,292.49014,-4.4041,1.14584,-0.1452
2018.12.19 12:27:22,42.64984,15.77301,-20.76569,-0.56476,0.47502,8.9978,-0.16544,-0.04303,-0.11879,293.09158,-3.03546,1.01695,-0.16544
2018.12.19 12:27:22,42.50031,17.87415,-20.16602,-0.02486,0.05006,10.5696,-0.06531,-0.13251,0.11131,292.33514,-3.3551,0.26739,-0.06531
2018.12.19 12:27:22,42.05017,15.92407,-21.66595,0.05655,0.96944,8.90681,0.19675,0.04752,0.10172,291.7067,-3.93643,-0.29103,0.19675
2018.12.19 12:27:22,43.55011,15.62347,-20.61615,0.20857,1.50574,9.23602,0.02098,0.15297,-0.10814,292.04697,-4.18806,-0.94687,0.02098
2018.12.19 12:27:22,42.64984,16.22314,-20.01495,-0.9191,1.21722,9.63226,0.17012,0.08693,-0.24663,293.60068,-5.05434,-2.21857,0.17012
2018.12.19 12:27:22,42.05017,16.37421,-22.71576,-0.627,1.00894,10.25955,0.09555,-0.00043,-0.02931,293.90411,-5.81124,-2.57395,0.09555
2018.12.19 12:27:22,42.05017,17.87415,-23.16589,-1.45659,-0.38928,12.40955,-0.53189,-0.00043,-0.28497,294.34583,-4.36685,-1.02294,-0.53189
2018.12.19 12:27:22,43.55011,15.17334,-22.41516,1.27519,0.54926,9.32222,0.12643,-0.02066,0.27962,294.2825,-2.84459,-0.95163,0.12643
2018.12.19 12:27:23,43.39905,16.52374,-23.01636,-0.22597,0.39124,9.47066,-0.00778,0.07841,-0.21892,294.65405,-3.05262,-0.79931,-0.00778
2018.12.19 12:27:23,43.39905,15.0238,-23.01636,0.21216,1.18132,8.5058,0.10301,0.02089,0.06123,294.94135,-3.61759,-1.28495,0.10301
2018.12.19 12:27:23,43.55011,16.37421,-22.71576,-0.18886,1.17653,9.43953,-0.06424,-0.02066,-0.08257,295.17938,-3.5042,-1.02385,-0.06424
2018.12.19 12:27:23,44.00024,14.87427,-23.46497,-0.20084,1.21722,10.57318,0.05507,-0.07925,0.06763,294.84619,-3.91352,-0.99653,0.05507
2018.12.19 12:27:23,44.90051,14.72321,-24.36523,0.58087,1.23279,10.97421,-0.06212,0.05391,0.17096,293.68704,-4.09821,-0.85454,-0.06212
2018.12.19 12:27:23,44.74945,15.92407,-23.9151,-1.1669,-0.78792,13.65811,-0.5191,0.14445,-0.17311,293.81146,-2.18302,-1.64659,-0.5191
2018.12.19 12:27:23,45.34912,13.52386,-24.06616,-0.47856,0.58516,7.09322,0.30008,0.1402,0.38188,292.07007,-3.17866,-2.44709,0.30008
2018.12.19 12:27:23,45.50018,12.6236,-24.66583,-1.11902,-0.38568,11.42671,-0.16864,-0.22626,-0.06552,291.25781,-2.12103,-0.25762,-0.16864
2018.12.19 12:27:23,45.79926,11.12366,-24.66583,-0.39357,0.72282,8.57523,0.19142,0.07628,0.1358,290.38062,-3.04174,-0.57671,0.19142
2018.12.19 12:27:24,45.34912,10.97412,-24.06616,0.09604,0.98978,9.72086,0.0817,0.00171,0.02289,289.73456,-3.57095,-0.38756,0.0817
2018.12.19 12:27:24,44.29932,7.07397,-24.9649,-0.60666,0.70847,10.08476,0.12964,0.05177,-0.02504,289.49237,-4.40361,-0.79369,0.12964
2018.12.19 12:27:24,45.05005,10.82306,-26.01624,0.88614,0.50017,11.68889,-0.37636,-0.07393,-0.12411,289.48535,-3.10647,0.19591,-0.37636
2018.12.19 12:27:24,45.95032,12.47406,-25.86517,0.57729,0.15779,10.10153,-0.03441,0.0571,-0.08044,291.59744,-0.10084,-0.29325,-0.03441
2018.12.19 12:27:24,45.95032,11.72333,-26.91498,0.57249,-0.15584,9.77711,0.2841,-0.14104,-0.12625,291.40851,-1.50504,0.34694,0.2841
2018.12.19 12:27:24,46.24939,10.07385,-25.71564,0.56052,0.82098,8.25201,0.22232,0.02728,0.00798,292.20172,-2.73443,-0.0178,0.22232
2018.12.19 12:27:24,44.29932,9.62372,-26.01624,0.05774,0.88205,9.28032,0.07318,-0.06754,-0.06233,292.18689,-3.3183,0.25469,0.07318
2018.12.19 12:27:24,45.34912,9.92432,-27.66571,0.21815,1.35011,9.23363,0.11578,0.04112,-0.01546,291.86206,-3.96595,0.15026,0.11578
2018.12.19 12:27:24,45.34912,8.42438,-27.36511,0.05655,1.06041,9.9507,0.06679,-0.02919,0.1422,290.76276,-4.80126,0.08339,0.06679
2018.12.19 12:27:25,45.79926,7.52411,-26.46637,-0.24513,0.63065,12.79381,-0.30818,0.29146,0.10278,289.54599,-4.11473,-0.72317,-0.30818
2018.12.19 12:27:25,45.34912,7.67365,-25.86517,-0.88199,0.30862,9.02533,0.17651,0.15936,0.07828,289.76843,-2.6142,-1.60354,0.17651
2018.12.19 12:27:25,44.74945,6.02417,-26.01624,-0.27386,0.03329,10.12308,0.15414,-0.22519,0.24979,288.49667,-3.57719,-1.51739,0.15414
2018.12.19 12:27:25,44.59991,5.42297,-27.36511,0.45517,0.73241,8.13948,0.33203,-0.12292,0.20398,286.87323,-4.87104,-0.36432,0.33203
2018.12.19 12:27:25,44.29932,4.8233,-29.01611,-0.32175,1.06879,8.81824,-0.00885,-0.03557,0.01437,286.35178,-5.34373,-0.34692,-0.00885
2018.12.19 12:27:25,45.34912,7.22351,-27.36511,-0.37682,1.40279,9.38806,-0.1143,-0.03024,0.02182,286.15552,-4.98216,-0.40399,-0.1143
2018.12.19 12:27:25,41.29944,4.0741,-29.01611,0.67305,1.149,11.3537,-0.17929,-0.27206,0.06656,285.26535,-4.25849,0.72815,-0.17929
2018.12.19 12:27:25,42.05017,7.52411,-29.31519,0.23372,0.45827,11.39919,-0.39554,0.11356,-0.32225,286.1189,-2.2208,1.18806,-0.39554
2018.12.19 12:27:25,44.14978,8.42438,-30.21545,1.41525,0.12308,9.75797,-0.04187,0.10291,-0.07085,287.01331,-1.16208,0.56844,-0.04187
2018.12.19 12:27:25,43.24951,8.27332,-29.31519,-0.37321,-0.22168,9.99139,0.04228,0.08054,-0.31799,287.78784,-2.50665,0.37808,0.04228
2018.12.19 12:27:26,42.79938,9.02405,-29.61578,0.50784,0.8976,8.52255,0.19888,0.11462,-0.01013,288.05719,-3.07161,-0.15018,0.19888
2018.12.19 12:27:26,42.34924,8.42438,-29.46625,0.10683,1.34412,9.60593,0.05933,0.10397,-0.04103,288.13913,-3.79283,-0.68665,0.05933
2018.12.19 12:27:26,41.89911,6.92291,-29.46625,-0.14577,1.65417,9.79387,0.17757,-0.0377,0.1422,287.47986,-5.05095,-0.62795,0.17757
2018.12.19 12:27:26,40.8493,4.37317,-30.66559,0.08289,1.80142,10.323,0.19356,-0.18898,0.20825,286.30585,-5.91974,0.00534,0.19356
2018.12.19 12:27:26,41.00037,4.8233,-29.01611,-0.57193,0.1985,13.10985,-0.38063,0.18919,-0.0602,284.95096,-6.31154,-0.89064,-0.38063
2018.12.19 12:27:26,41.74957,4.52423,-29.61578,-0.42947,0.81979,6.77478,0.23723,0.21156,0.29454,283.28217,-5.64932,-2.38051,0.23723
2018.12.19 12:27:26,38.89923,4.37317,-29.91638,-1.15253,-0.16063,11.0197,-0.35506,-0.28165,0.04314,282.43225,-4.59359,-1.2001,-0.35506
2018.12.19 12:27:26,38.4491,1.97296,-30.06592,-0.5025,0.86169,8.51178,0.09448,0.03261,0.17842,281.14197,-4.52467,-1.11147,0.09448
2018.12.19 12:27:26,38.60016,1.37329,-29.91638,-0.14697,1.3513,9.31264,-0.07063,-0.03452,0.06763,280.79129,-4.37113,-0.95682,-0.07063
2018.12.19 12:27:27,36.65009,2.4231,-30.21545,-0.34209,1.36568,10.30025,-0.01843,-0.17406,0.02077,280.72385,-3.9463,-0.54228,-0.01843
2018.12.19 12:27:27,36.49902,3.32336,-29.61578,0.18703,0.18294,13.31454,-0.46158,-0.07072,-0.36699,281.90799,-2.5781,0.32333,-0.46158
2018.12.19 12:27:27,35.60028,6.92291,-30.21545,-0.32652,-0.31386,11.90915,-0.33801,0.09651,-0.36913,283.69568,-0.70843,-0.88103,-0.33801
2018.12.19 12:27:27,33.34961,7.22351,-29.46625,0.72093,-0.2157,8.65184,0.33736,-0.00575,-0.03996,284.1142,-1.16651,-0.1967,0.33736
2018.12.19 12:27:27,33.49915,7.52411,-30.06592,-0.0488,-0.04211,8.6255,0.12964,0.00597,-0.24342,284.97723,-1.77881,-0.1188,0.12964
2018.12.19 12:27:27,34.10034,6.4743,-29.46625,0.14154,0.59114,8.34299,0.1371,0.04645,-0.07298,285.34711,-3.24003,-0.72325,0.1371
2018.12.19 12:27:27,33.79974,5.87311,-29.16565,-0.10626,1.37045,9.22644,-0.01097,0.0358,-0.02185,285.73746,-3.3965,-1.00368,-0.01097
2018.12.19 12:27:27,32.74994,4.8233,-27.81525,-0.37561,1.69008,10.30983,-0.00565,0.01662,0.06018,285.32855,-3.96475,-1.35249,0.07318
2018.12.19 12:27:27,32.6004,5.1239,-26.91498,0.49109,1.36089,10.90358,0.09555,-0.00468,0.25725,284.30386,-4.46797,-1.30283,0.09555
2018.12.19 12:27:27,33.94928,4.8233,-28.26538,-1.32851,-1.01416,13.60664,-0.30286,-0.03024,-0.09856,283.95667,-2.87482,-2.05788,-0.30286
2018.12.19 12:27:28,34.39941,2.4231,-26.16577,-0.67369,0.27991,8.47586,0.45987,0.29572,0.37976,282.30121,-4.51302,-3.16149,0.45987
2018.12.19 12:27:28,33.34961,2.4231,-27.36511,-0.47737,0.45468,9.37848,0.01566,-0.08777,0.0836,280.88678,-4.97944,-2.107,0.01566
2018.12.19 12:27:28,33.79974,2.12402,-28.11584,-0.35286,1.08794,8.73804,0.00713,-0.02812,0.04739,280.16016,-5.5382,-2.22675,0.00713
2018.12.19 12:27:28,33.04901,3.17383,-26.91498,-0.16133,1.43271,9.4563,-0.04187,-0.00682,-0.04529,280.12552,-5.44355,-1.95686,-0.04187
2018.12.19 12:27:28,32.44934,3.32336,-27.06604,-1.11662,0.99338,11.38243,0.00713,-0.04303,-0.11346,280.8472,-5.64873,-1.93258,0.00713
2018.12.19 12:27:28,33.04901,5.1239,-27.66571,0.1535,0.81979,10.96225,-0.31032,0.02728,-0.27965,281.42023,-5.16576,-1.7675,-0.31032
2018.12.19 12:27:28,33.34961,6.4743,-26.91498,0.2804,0.21884,10.38405,-0.28688,-0.25076,-0.27325,283.18469,-3.26646,-1.17246,-0.28688
2018.12.19 12:27:28,31.70013,6.77338,-28.56598,-0.45222,0.32658,9.40601,0.07318,0.0667,-0.1859,283.17371,-4.427,-0.5715,0.07318
2018.12.19 12:27:28,30.9494,5.27344,-29.61578,0.18105,1.12267,8.80986,0.10939,0.07307,0.09427,283.03354,-5.14385,-1.11253,0.10939
2018.12.19 12:27:29,32.6004,5.42297,-30.21545,-0.19604,1.19449,9.52931,-0.01418,0.10397,-0.02399,283.17511,-5.2487,-1.44682,-0.01418
2018.12.19 12:27:29,33.34961,7.22351,-29.16565,0.13077,1.54764,9.52692,0.06679,-0.0132,0.20398,282.64801,-5.61693,-1.37323,0.06679
2018.12.19 12:27:29,33.20007,6.32324,-30.36499,0.21935,1.48419,11.34891,-0.04826,-0.11974,0.08041,282.35403,-5.62969,-0.75431,-0.04826
2018.12.19 12:27:29,34.10034,7.67365,-29.16565,-0.51208,0.48102,12.52206,-0.34227,0.10397,-0.20401,282.97821,-4.56689,-1.21829,-0.34227
2018.12.19 12:27:29,33.49915,7.52411,-29.01611,-0.40195,0.59114,7.97787,0.32031,0.09651,0.27643,282.57922,-4.7828,-0.90798,0.32031
2018.12.19 12:27:29,32.44934,8.57391,-29.61578,-0.60426,-0.02296,10.85091,0.00819,-0.26888,0.06656,282.28607,-4.92653,0.03145,0.00819
2018.12.19 12:27:29,34.70001,8.27332,-30.81512,-0.75389,1.15019,7.6331,0.14561,0.1615,0.01863,282.21548,-5.89848,-0.5988,0.14561
2018.12.19 12:27:29,34.39941,9.47418,-28.71552,-0.49413,1.26871,9.7831,-0.10258,0.03899,0.03886,282.43408,-5.39526,-1.10398,-0.10258
2018.12.19 12:27:29,32.6004,10.22339,-28.71552,-0.55997,1.32736,10.05724,0.00819,0.01875,-0.03783,282.95135,-5.31355,-1.25769,0.00819
2018.12.19 12:27:30,34.10034,10.22339,-29.16565,0.73531,1.13344,11.25433,-0.03441,-0.20175,-0.09216,284.06586,-5.58243,-0.14723,-0.03441
2018.12.19 12:27:30,35.44922,14.12354,-28.56598,-1.53799,0.17456,11.07597,-0.47118,0.11888,-0.56407,286.31009,-3.9097,-0.25941,-0.47118
2018.12.19 12:27:30,34.24988,16.37421,-28.26538,0.90768,0.47742,9.92076,0.17863,-0.10376,0.16457,287.07806,-3.42602,-0.65809,0.17863
2018.12.19 12:27:30,34.84955,14.27307,-28.41492,-0.43547,0.64621,8.75838,0.15201,0.10611,-0.21254,288.22684,-4.59695,-1.05995,0.15201
2018.12.19 12:27:30,33.34961,13.974,-28.41492,-0.19246,0.95506,9.11153,0.15308,0.04538,-0.04208,288.68857,-5.45282,-1.46073,0.15308
2018.12.19 12:27:30,34.99908,14.87427,-29.31519,-0.06197,1.40398,8.92838,0.0327,0.07841,0.02077,289.65454,-5.5752,-1.70205,0.0327
2018.12.19 12:27:30,34.99908,14.12354,-27.81525,-0.2583,1.50453,10.06322,-0.00246,-0.05049,0.21358,289.23914,-5.75945,-1.58827,-0.00246
2018.12.19 12:27:30,34.99908,14.57367,-29.31519,0.25766,1.58713,10.83176,-0.03548,-0.07925,0.31371,288.43164,-5.79376,-0.7305,-0.03548
2018.12.19 12:27:30,35.15015,15.0238,-28.41492,-1.0005,-0.10556,11.76071,-0.27409,-0.06328,-0.10068,288.51263,-3.7785,-1.0574,-0.27409
2018.12.19 12:27:30,35.15015,15.77301,-28.11584,-0.3804,0.45108,9.81662,0.07104,0.08907,0.16884,287.90314,-4.28599,-1.88985,0.07104
2018.12.19 12:27:31,36.94916,12.6236,-27.81525,-0.44864,0.69051,9.54008,0.1797,-0.075,0.08894,287.61111,-4.00133,-0.71882,0.1797
2018.12.19 12:27:31,36.19995,13.37433,-27.81525,-0.27026,1.13104,9.3306,0.11259,-0.10269,0.09853,286.9519,-5.81577,-0.59531,0.11259
2018.12.19 12:27:31,35.60028,11.72333,-28.41492,-0.07274,1.4818,8.90562,0.07425,0.03047,0.03461,286.96613,-6.09183,-0.56838,0.07425
2018.12.19 12:27:31,35.15015,12.77313,-27.36511,-0.45581,1.25554,10.3206,-0.03229,-0.09416,-0.03996,287.78198,-6.34382,-0.34459,-0.03229
2018.12.19 12:27:31,34.99908,13.07373,-27.81525,0.48869,0.71684,11.30342,-0.40512,0.02089,-0.19975,288.9053,-5.00859,0.15725,-0.40512
2018.12.19 12:27:31,37.24976,14.12354,-27.06604,0.26723,-0.07683,11.71043,-0.41472,0.08374,-0.23917,290.41296,-2.71542,-0.50529,-0.41472
2018.12.19 12:27:31,36.94916,14.57367,-25.2655,0.75206,0.05006,8.70331,0.16159,0.08907,-0.17206,290.50165,-3.43745,-0.58107,0.16159
2018.12.19 12:27:31,37.69989,15.17334,-26.01624,0.26604,0.88443,8.60036,0.03377,0.06349,-0.12198,291.39563,-3.68446,-0.90419,0.03377
2018.12.19 12:27:31,36.49902,17.42401,-27.51617,0.00746,1.28307,9.56284,0.03802,0.02834,-0.07405,291.57736,-4.08796,-0.84467,0.03802
2018.12.19 12:27:32,39.34937,15.77301,-25.86517,0.02063,1.7272,9.83218,0.06253,0.04219,0.01437,292.22635,-4.69003,-0.86508,0.06253
2018.12.19 12:27:32,38.89923,16.52374,-25.86517,-0.47137,1.54764,10.62706,0.06465,0.04858,0.041,292.35748,-5.07024,-0.73895,0.06465
2018.12.19 12:27:32,40.24963,17.42401,-24.66583,-0.40553,0.34813,12.82014,-0.14734,0.13806,0.20825,291.53476,-5.34326,-1.37091,-0.14734
2018.12.19 12:27:32,41.29944,18.17322,-24.2157,-0.69644,0.37926,7.6391,0.26599,0.17001,0.28282,291.08597,-4.37856,-1.36805,0.26599
2018.12.19 12:27:32,41.1499,18.02368,-23.61603,0.08766,0.01773,10.18173,-0.03015,-0.25821,0.27855,289.73898,-4.67991,-1.37037,-0.03015
2018.12.19 12:27:32,43.55011,19.37408,-23.46497,-0.67609,0.87605,8.2556,0.17545,0.08374,0.1454,289.34531,-4.2092,-0.86387,0.17545
2018.12.19 12:27:32,44.29932,19.67316,-23.16589,-0.05838,1.28906,9.76634,-0.08022,-0.07179,0.10066,289.11777,-4.19874,-1.01898,-0.08022
2018.12.19 12:27:32,47.29919,18.62335,-21.66595,0.26364,1.77269,9.39284,0.01566,0.08693,0.04314,289.2283,-4.22308,-1.32596,0.01566
2018.12.19 12:27:32,46.54999,19.37408,-23.16589,-0.73953,1.16336,11.0197,0.03377,-0.05688,-0.11665,290.38739,-4.79737,-1.34702,0.03377
2018.12.19 12:27:33,47.29919,20.87402,-21.36536,0.38216,0.62227,11.04485,-0.23361,0.00917,-0.45222,292.18414,-4.35568,-0.4138,-0.23361
2018.12.19 12:27:33,48.50006,20.87402,-21.36536,0.53778,0.1949,9.88126,-0.10365,-0.04942,-0.27219,294.3429,-3.18084,-0.64349,-0.10365
2018.12.19 12:27:33,48.19946,20.57343,-21.81549,-0.56476,0.13506,9.14026,0.13922,0.11037,-0.14009,294.5704,-4.2964,-0.26599,0.13922
2018.12.19 12:27:33,50.14954,20.27435,-20.76569,0.50307,1.17413,7.511,0.18077,0.12741,0.05591,294.56525,-4.91214,-0.88145,0.18077
2018.12.19 12:27:33,50.29907,20.42389,-19.56635,-0.16252,1.38243,10.20209,-0.20699,0.0358,-0.13051,294.94263,-4.53394,-1.41278,-0.20699
2018.12.19 12:27:33,50.14954,19.07349,-17.91534,0.05176,1.83853,9.62149,0.06253,0.10718,0.12729,294.54187,-4.50776,-1.63734,0.06253
2018.12.19 12:27:33,48.19946,15.77301,-17.16614,-0.19485,1.69487,10.41876,0.02098,0.01982,0.1667,293.85825,-4.84714,-1.63688,0.02098
2018.12.19 12:27:33,49.40033,16.52374,-16.11633,-1.07831,0.0704,12.91112,-0.39447,0.30638,-0.08896,292.73444,-3.9492,-2.55612,-0.39447
2018.12.19 12:27:33,49.40033,14.72321,-16.41541,-0.85445,0.2009,7.65944,0.32777,0.26057,0.39574,291.42236,-3.84867,-3.60111,0.12218
2018.12.19 12:27:33,48.6496,10.97412,-16.716,-0.23436,-0.11275,10.61269,-0.02589,-0.27953,0.34993,289.56577,-4.0523,-2.63629,-0.02589
2018.12.19 12:27:34,48.19946,9.47418,-16.11633,-0.53603,0.85332,8.09039,0.19888,0.08693,0.23488,287.78662,-4.80818,-2.33072,0.19888
2018.12.19 12:27:34,46.69952,9.92432,-16.11633,-0.24393,1.35728,9.35693,-0.05252,-0.02173,0.12941,287.00806,-4.82307,-2.2662,-0.05252
2018.12.19 12:27:34,45.95032,8.72345,-16.11633,-0.44026,1.49974,9.80943,-0.03548,0.04005,-0.07512,286.76761,-4.6261,-2.78867,-0.03548
2018.12.19 12:27:34,44.14978,8.72345,-15.3656,0.37737,1.11548,10.61389,-0.0472,-0.25076,-0.14009,287.52399,-4.53624,-1.58971,-0.0472
2018.12.19 12:27:34,44.00024,12.323,-16.56494,-1.62778,-0.64665,12.36165,-0.54893,0.03154,-0.47885,289.14636,-2.67428,-1.22021,-0.54893
2018.12.19 12:27:34,43.09998,11.72333,-19.26575,1.19139,0.05484,9.4503,0.16692,-0.16022,0.10492,289.67072,-1.61512,-0.93355,0.16692
2018.12.19 12:27:34,42.34924,13.22327,-17.91534,-0.35048,0.27991,8.93915,0.06572,0.09439,-0.30415,291.19803,-2.0985,-1.08071,0.06572
2018.12.19 12:27:34,40.24963,13.07373,-19.11621,0.00267,0.86649,8.95949,0.08063,0.05177,-0.09109,291.59659,-2.51084,-1.38472,0.08063
2018.12.19 12:27:34,40.39917,12.17346,-20.01495,-0.28583,1.1454,9.59995,-0.01204,-0.07712,-0.08151,292.39526,-2.50784,-1.316,-0.01204
2018.12.19 12:27:35,38.89923,14.72321,-18.66608,-0.20921,1.24835,10.47023,0.02631,0.13913,0.02396,292.19846,-2.82865,-1.50795,0.02631
2018.12.19 12:27:35,40.1001,12.77313,-19.71588,0.23849,1.16934,11.53806,-0.01843,0.13913,0.17949,291.59799,-2.85984,-1.91636,-0.01843
2018.12.19 12:27:35,38.15002,11.42426,-18.96515,-0.88797,-0.88368,13.20082,-0.25812,-0.07179,-0.05594,291.40222,-1.89193,-2.16714,-0.25812
2018.12.19 12:27:35,39.19983,13.07373,-21.36536,-0.82811,0.07161,7.95033,0.2596,0.08479,0.27962,290.0546,-3.28054,-2.32413,0.2596
2018.12.19 12:27:35,39.19983,11.57379,-21.36536,-0.03923,0.38644,8.73444,0.12006,-0.06221,0.12941,288.82867,-3.31327,-0.7962,0.12006
2018.12.19 12:27:35,38.60016,10.67352,-22.26563,-0.42709,0.8976,8.49382,0.04228,-0.01747,0.03674,288.47821,-3.82762,-0.99851,0.04228
2018.12.19 12:27:35,38.89923,12.47406,-23.01636,-0.29781,1.38124,9.7005,-0.08022,0.00597,-0.04208,288.59744,-3.33193,-0.7974,-0.08022
2018.12.19 12:27:35,38.4491,14.87427,-23.9151,-0.76347,1.02689,10.93231,-0.02269,-0.01959,-0.14648,289.54858,-3.29815,-0.76762,-0.02269
2018.12.19 12:27:35,37.84943,14.27307,-25.11597,0.96394,0.34215,11.55721,-0.02376,0.11356,0.00159,289.83188,-3.49292,-1.08289,-0.02376
2018.12.19 12:27:35,38.89923,16.52374,-24.36523,-0.66531,-0.29231,10.37567,-0.21231,0.2627,-0.17738,291.54382,-1.52102,-2.44719,-0.21231
2018.12.19 12:27:36,39.19983,15.62347,-25.2655,-0.48096,-0.39168,9.68135,0.11578,-0.11014,-0.10068,291.55075,-1.73491,-1.85033,0.11578
2018.12.19 12:27:36,40.39917,16.97388,-25.11597,0.2373,0.59714,8.02695,0.17012,0.06137,-0.008,292.43146,-2.43189,-2.59971,0.17012
2018.12.19 12:27:36,39.34937,15.0238,-25.11597,-0.27985,0.63904,9.80345,0.0114,-0.00894,-0.09216,292.41034,-3.078,-2.36201,0.0114
2018.12.19 12:27:36,39.19983,15.92407,-26.01624,-0.03444,1.48419,9.21567,0.13071,0.10611,0.00372,292.53687,-3.71214,-2.75985,0.13071
2018.12.19 12:27:36,39.64996,14.72321,-26.16577,-0.48335,1.59431,10.38045,0.01566,0.01875,0.0101,292.58173,-4.37049,-2.77297,0.01566
2018.12.19 12:27:36,40.39917,15.77301,-25.86517,-0.57912,0.95027,11.36447,-0.19847,0.05817,0.1209,292.07214,-4.14515,-2.59345,-0.19847
2018.12.19 12:27:36,42.64984,15.47394,-26.91498,-0.54559,-0.37251,9.92676,-0.10791,-0.23798,0.06976,291.88998,-3.084,-1.93182,-0.10791
2018.12.19 12:27:36,41.00037,13.82294,-26.01624,-0.36005,0.11829,9.75916,-0.0195,-0.14743,0.29027,289.84341,-3.89083,-1.88119,-0.0195
2018.12.19 12:27:36,42.34924,13.22327,-27.36511,0.24689,0.90599,8.64465,0.00713,-0.03452,0.1944,288.84915,-3.59093,-1.07027,0.00713
2018.12.19 12:27:37,43.55011,12.6236,-27.06604,-0.20203,1.13823,9.26117,-0.04401,-0.07286,0.09639,287.75589,-4.30128,-1.24823,-0.04401
2018.12.19 12:27:37,42.05017,13.07373,-26.76544,-0.16612,1.38841,9.43713,-0.02803,0.00278,-0.06659,288.05237,-3.82113,-1.35386,-0.02803
2018.12.19 12:27:37,42.79938,13.37433,-27.81525,-0.71559,1.1071,10.18054,-0.00246,-0.03452,-0.14223,288.70047,-4.02805,-1.26637,-0.00246
2018.12.19 12:27:37,42.34924,13.22327,-28.11584,0.52101,0.71803,11.40039,-0.12602,-0.17513,-0.05913,289.59845,-3.60302,-0.19499,-0.12602
2018.12.19 12:27:37,42.05017,15.62347,-29.01611,-0.96817,-0.4635,11.19089,-0.44667,0.11888,-0.35208,290.95291,-1.76726,-0.39497,-0.44667
2018.12.19 12:27:37,42.50031,15.62347,-27.81525,0.76762,-0.08282,9.43355,0.12964,0.10823,-0.05807,291.23853,-1.19562,-0.57676,0.12964
2018.12.19 12:27:37,41.89911,18.02368,-25.11597,-0.22478,0.45587,8.25679,0.13922,0.20198,-0.14755,292.76477,-1.67869,-1.6102,0.13922
2018.12.19 12:27:37,43.55011,16.37421,-27.06604,-0.07753,0.88803,9.21687,0.04654,0.09651,-0.08363,293.06961,-2.17598,-1.95492,0.04654
2018.12.19 12:27:37,42.79938,17.12341,-27.06604,-0.39836,1.4782,9.47066,0.03909,0.22968,-0.10493,293.78479,-2.4398,-2.81754,0.03909
2018.12.19 12:27:38,44.14978,18.02368,-24.36523,-0.27625,1.09393,10.79944,0.05186,0.03473,0.00905,293.94659,-2.92029,-3.19332,0.05186
2018.12.19 12:27:38,45.79926,17.12341,-23.46497,-1.28181,-0.16183,12.88,-0.13667,0.1828,0.06763,293.44934,-2.80068,-3.52005,-0.13667
2018.12.19 12:27:38,44.90051,17.27295,-22.56622,-0.90833,0.08478,8.30588,0.21486,0.0667,0.29559,292.71182,-2.16757,-3.66112,0.21486
2018.12.19 12:27:38,44.59991,15.77301,-24.36523,-0.89755,-0.23006,10.64621,-0.06956,-0.10056,0.21997,291.53619,-2.34906,-3.59372,-0.06956
2018.12.19 12:27:38,44.90051,13.22327,-24.36523,-0.05,0.9431,7.92639,0.30859,0.09758,0.31796,289.88354,-2.75744,-2.60725,0.30859
2018.12.19 12:27:38,46.24939,14.57367,-25.2655,-0.55278,0.95506,9.47066,0.08597,-0.10269,0.0836,289.22601,-3.58074,-2.43901,0.08597
2018.12.19 12:27:38,45.95032,13.974,-24.06616,-0.54799,1.31898,9.19772,0.05507,0.08693,-0.06552,289.24335,-4.06248,-2.51773,0.05507
2018.12.19 12:27:38,44.00024,13.82294,-25.71564,-0.28224,0.83536,10.53009,-0.03548,-0.26781,-0.07405,289.8486,-4.33388,-1.50588,-0.03548
2018.12.19 12:27:38,44.00024,18.62335,-24.66583,0.52101,0.26674,11.38722,-0.23682,-0.22093,-0.24663,290.62531,-3.70881,-0.10075,-0.23682
2018.12.19 12:27:38,43.09998,19.52362,-24.36523,0.7317,0.13266,9.19772,-0.03654,0.12422,-0.1795,293.52502,-1.61826,-0.69776,-0.03654
2018.12.19 12:27:39,44.29932,19.37408,-23.46497,-0.00571,0.12308,9.13547,0.06572,0.11676,-0.14648,293.93134,-2.2574,-0.79877,0.06572
2018.12.19 12:27:39,44.90051,19.52362,-23.31543,0.53059,1.01611,8.42798,0.1062,0.08907,-0.01653,294.21979,-2.70931,-1.24289,0.1062
2018.12.19 12:27:39,43.55011,19.67316,-24.9649,-0.10507,1.12984,9.56163,-0.04613,0.04433,-0.08896,294.93048,-2.62237,-1.44908,-0.04613
2018.12.19 12:27:39,43.84918,21.32416,-23.61603,-0.30618,1.77388,9.62508,0.04228,0.06563,0.00691,295.21707,-2.77618,-1.64387,0.04228
2018.12.19 12:27:39,44.74945,18.92395,-23.16589,0.26843,1.4351,10.94548,0.1861,-0.21561,0.31264,294.38202,-4.02424,-1.34975,0.1861
2018.12.19 12:27:39,43.84918,20.27435,-21.81549,-1.15732,-1.2464,14.15491,-0.27942,-0.0899,-0.07617,293.5571,-2.99513,-1.53472,-0.27942
2018.12.19 12:27:39,45.05005,17.12341,-21.36536,-0.43547,0.1973,7.97069,0.43111,0.39053,0.35632,292.00854,-4.46616,-2.97231,0.43111
2018.12.19 12:27:39,45.50018,19.67316,-22.41516,-0.3409,0.37926,9.2085,-0.07489,-0.12292,0.09,291.44199,-4.2545,-2.06235,-0.07489
2018.12.19 12:27:39,46.69952,20.27435,-21.21582,-0.55518,0.8186,9.11871,-0.13774,-0.03984,-0.04529,291.48969,-3.51572,-2.15553,-0.13774
2018.12.19 12:27:40,46.69952,21.02356,-20.46509,-0.54201,1.16934,9.95547,-0.09087,0.1125,-0.02399,291.84064,-3.16035,-2.29608,-0.09087
2018.12.19 12:27:40,47.00012,19.67316,-20.91522,-0.71678,0.9838,10.53009,0.03056,-0.08351,-0.01971,292.2843,-3.40109,-2.27974,0.03056
2018.12.19 12:27:40,48.04993,20.87402,-21.36536,0.1559,-0.16661,11.74275,-0.41898,0.0294,-0.43623,292.66159,-3.50629,-1.55435,-0.41898
2018.12.19 12:27:40,47.29919,25.67291,-19.11621,0.43602,-0.14388,10.24278,-0.19527,0.08693,-0.16034,295.29285,-0.67574,-2.06709,-0.19527
2018.12.19 12:27:40,49.54987,22.97363,-20.16602,-0.35886,-0.11993,9.7867,0.11472,0.12422,-0.07831,294.69672,-1.91417,-2.04872,0.11472
2018.12.19 12:27:40,52.54974,23.42377,-20.91522,0.26006,0.93591,8.39326,0.24469,0.10397,0.07935,294.76947,-2.58664,-2.51902,0.24469
2018.12.19 12:27:40,51.49994,24.47357,-18.81561,-0.2607,1.14421,9.10913,0.03802,0.05498,-0.0602,294.57742,-3.61158,-2.81832,0.03802
2018.12.19 12:27:40,55.40009,23.27423,-18.96515,-0.01888,1.47701,9.23723,0.12538,-0.15169,0.13475,294.09174,-4.59086,-2.61555,0.12538
2018.12.19 12:27:40,56.14929,21.02356,-18.96515,-0.03802,1.08675,11.89359,-0.11751,-0.01001,0.0836,293.74496,-4.3043,-2.17445,-0.11751
2018.12.19 12:27:40,57.80029,19.67316,-15.81573,-1.29259,-0.75679,12.83571,-0.28581,-0.07819,-0.20934,293.84952,-2.9047,-2.52919,-0.28581
2018.12.19 12:27:41,58.8501,15.92407,-15.21606,-0.76945,0.42474,7.24046,0.25214,0.30531,0.24767,293.19946,-3.38847,-3.00738,0.25214
2018.12.19 12:27:41,59.30023,14.87427,-17.31567,-1.06514,-0.10078,11.04245,-0.18355,-0.13464,0.11983,291.43292,-3.04311,-2.08598,-0.18355
2018.12.19 12:27:41,60.2005,11.42426,-16.11633,-0.52405,0.92993,8.35497,0.14348,0.02194,0.0687,290.28339,-3.90681,-1.96723,0.14348
2018.12.19 12:27:41,59.75037,10.97412,-16.11633,-0.34927,1.30103,9.46107,-0.03229,-0.03238,-0.03889,290.20673,-3.98041,-1.88256,-0.03229
2018.12.19 12:27:41,58.69904,9.92432,-17.46521,-0.69882,1.33574,10.35292,0.06786,-0.05261,-0.00906,289.88312,-4.29685,-1.91958,0.06786
2018.12.19 12:27:41,56.59943,8.27332,-14.76593,0.52222,1.04845,11.42194,-0.08661,0.04752,-0.00374,288.9472,-4.86968,-1.83941,-0.08661
2018.12.19 12:27:41,55.85022,9.62372,-15.21606,-1.09985,0.14104,10.67734,-0.44987,0.12848,-0.3947,290.26294,-2.81973,-2.39521,-0.44987
2018.12.19 12:27:41,55.54962,9.32312,-15.81573,0.47433,0.15779,9.44313,0.04654,0.01982,-0.05275,289.74875,-2.5166,-2.47399,0.04654
2018.12.19 12:27:41,54.80042,10.37292,-15.51514,-0.59109,0.31462,9.69331,-0.08449,0.02621,-0.27965,290.68463,-2.09424,-2.62898,-0.08449
2018.12.19 12:27:42,52.69928,9.47418,-15.3656,-0.31097,0.89641,8.87331,0.09981,0.05498,-0.11346,290.83636,-3.03157,-3.15176,0.09981
2018.12.19 12:27:42,52.09961,10.07385,-15.21606,-0.21042,1.41235,9.4922,0.07637,-0.06007,0.03886,290.26559,-3.54399,-3.07998,0.07637
2018.12.19 12:27:42,51.64948,8.72345,-17.91534,-0.13979,1.07118,10.86407,0.21379,-0.21135,0.12408,289.53015,-4.78972,-2.22244,0.21379
2018.12.19 12:27:42,50.74921,8.27332,-15.81573,-0.37442,0.88564,11.27708,-0.13562,0.34579,0.08681,288.4444,-4.85757,-2.97254,-0.13562
2018.12.19 12:27:42,51.79901,6.77338,-14.76593,-0.65813,0.51453,7.74564,0.2287,0.27974,0.20079,287.87146,-3.9654,-3.39113,0.2287
2018.12.19 12:27:42,48.9502,6.4743,-16.716,-0.74072,0.25955,9.70769,-0.10579,-0.20708,0.10704,287.04611,-3.95004,-2.94634,-0.10579
2018.12.19 12:27:42,47.00012,6.02417,-18.81561,-0.36365,0.86528,8.73444,0.08702,-0.00468,0.17735,285.82428,-3.8408,-2.63965,0.08702
2018.12.19 12:27:42,46.54999,6.02417,-17.31567,-0.50848,1.15498,9.25398,-0.03548,-0.03345,-0.00694,285.39102,-3.8115,-2.79088,-0.03548
2018.12.19 12:27:42,47.74933,9.02405,-18.06641,-1.11063,1.37405,9.65262,-0.01097,0.02834,-0.09003,285.43015,-3.63042,-3.14302,-0.01097
2018.12.19 12:27:43,46.40045,7.97424,-20.01495,0.14273,0.98619,11.15857,0.01566,-0.18471,0.08681,285.10345,-3.82647,-2.34636,0.01566
2018.12.19 12:27:43,46.54999,9.62372,-19.11621,-1.73552,-0.45631,10.74916,-0.38063,0.09972,-0.42239,286.12637,-2.53282,-2.12367,-0.38063
2018.12.19 12:27:43,46.24939,11.87439,-20.61615,0.58806,0.09315,9.64664,0.07211,-0.10695,0.08041,286.55981,-1.82117,-2.38633,0.07211
2018.12.19 12:27:43,47.00012,14.57367,-21.36536,-0.18886,0.61508,8.96428,0.14348,0.13274,-0.13158,287.61157,-2.13388,-2.68785,0.14348
2018.12.19 12:27:43,47.74933,11.57379,-20.91522,-0.54559,0.985,8.92717,0.16692,0.04858,-0.11772,287.98901,-3.04455,-2.9555,0.16692
2018.12.19 12:27:43,47.90039,13.52386,-21.51642,-0.61743,1.28427,9.55086,0.05933,0.01343,0.00478,288.44653,-3.68598,-3.41186,0.05933
2018.12.19 12:27:43,45.64972,12.77313,-22.26563,-0.52525,1.28188,10.33138,0.09767,-0.06328,0.11664,287.93097,-4.30135,-3.24172,0.09767
2018.12.19 12:27:43,45.95032,12.17346,-22.56622,0.05415,1.01971,11.53685,-0.12709,0.21049,0.0836,287.24597,-4.57842,-2.66373,-0.12709
2018.12.19 12:27:43,46.54999,11.87439,-22.71576,-0.69644,0.50017,7.5912,0.24362,0.14339,0.14645,287.59109,-3.71113,-3.06271,0.24362
2018.12.19 12:27:43,46.40045,12.17346,-22.26563,0.01823,0.13506,10.06561,-0.11537,-0.32852,0.19014,286.66046,-3.79425,-2.6276,-0.11537
2018.12.19 12:27:44,48.6496,11.72333,-21.51642,-0.12302,0.75276,8.41841,0.19995,-0.01747,0.15392,286.13684,-3.17442,-1.28355,0.19995
2018.12.19 12:27:44,46.40045,11.42426,-21.81549,-0.43307,1.09512,9.412,-0.00778,0.03687,0.10811,285.51334,-3.70383,-1.68836,-0.00778
2018.12.19 12:27:44,48.04993,10.82306,-20.61615,-0.32533,1.59552,9.40721,0.1062,0.16469,0.1422,284.94366,-4.03226,-2.42474,0.1062
2018.12.19 12:27:44,49.6994,9.92432,-20.46509,-0.69405,1.01132,11.15019,-0.03015,-0.01215,0.03886,284.45325,-4.29819,-3.13714,-0.03015
2018.12.19 12:27:44,47.90039,9.92432,-22.26563,1.11359,0.16977,11.66135,-0.07489,-0.14104,-0.05168,284.27106,-4.32888,-2.40474,-0.07489
2018.12.19 12:27:44,48.04993,11.57379,-22.41516,0.02303,0.25237,9.0816,0.03696,0.07202,-0.05061,286.55823,-2.73106,-2.85936,0.03696
2018.12.19 12:27:44,47.90039,10.22339,-23.01636,-0.48454,0.32539,9.49101,-0.01631,0.01875,-0.10921,286.50696,-2.80312,-2.1843,-0.01631
