Time,X-cord,Y-cord,Mag_x,Mag_y,Mag_z,Acc_x,Acc_y,Acc_z,Gyro_x,Gyro_y,Gyro_z,Orn_x,Orn_y,Orn_z,Pressure,
2021.02.11 15:23:48,50.0,21.0,29.16,-3.6,-30.0,0.08379706,0.9840169,10.01734,0.073303826,-0.17654006,0.08979719,-0.09791382402181625,-0.008365006186068058,-1.593709111213684,1018.4348,
2021.02.11 15:23:48,50.0,21.0,29.16,-3.3,-30.0,-0.30406362,0.8499416,9.516952,0.18509217,0.07269296,-0.019547688,-0.08902668207883835,0.0319388210773468,-1.5898888111114502,1018.4197,
2021.02.11 15:23:48,50.0,21.0,29.4,-3.54,-29.82,-0.038307227,0.6775591,9.277532,0.14782938,0.10323623,0.023823744,-0.07290221005678177,0.004129008390009403,-1.616867184638977,1018.4197,
2021.02.11 15:23:48,50.0,21.0,29.58,-3.84,-29.88,0.1388637,0.49320555,9.871294,0.040927973,0.06414085,0.051923547,-0.04991717264056206,-0.014066497795283794,-1.6494810581207275,1018.4197,
2021.02.11 15:23:48,50.0,21.0,29.34,-3.6,-29.88,0.007182605,0.51954174,9.91439,-0.008552114,0.049480084,0.034208454,-0.05235489085316658,-7.244625012390316E-4,-1.639910101890564,1018.4197,
2021.02.11 15:23:48,50.0,21.0,29.64,-3.8999999,-29.88,-0.3854665,0.7422025,9.514558,0.06658431,-0.02321288,-0.0421497,-0.07778583467006683,0.040491193532943726,-1.6226742267608643,1018.4199,
2021.02.11 15:23:48,50.0,21.0,29.82,-4.2599998,-29.699999,-0.2633622,0.91458505,9.114726,0.1001819,-0.048258353,-0.027488936,-0.09996528923511505,0.028886105865240097,-1.611878514289856,1018.4199,
2021.02.11 15:23:48,50.0,21.0,29.88,-4.38,-29.88,-0.33279404,0.9720459,9.217676,0.037873644,-0.06780604,-0.007941248,-0.10499832034111023,0.03608822450041771,-1.6094582080841064,1018.4199,
2021.02.11 15:23:48,50.0,21.0,29.88,-4.8599997,-30.06,-0.38307226,0.7565677,9.722853,-0.10629055,0.017104227,0.0036651916,-0.07759690284729004,0.03937879577279091,-1.6551953554153442,1018.4199,
2021.02.11 15:23:48,50.0,21.0,29.519999,-4.62,-29.82,-0.21308395,0.6655881,9.713276,-0.08246681,-0.04520403,0.029932396,-0.06840018928050995,0.021933874115347862,-1.658149003982544,1018.4258,
2021.02.11 15:23:48,50.0,21.0,29.22,-4.2,-30.3,-0.2633622,0.7398083,9.7324295,-0.0580322,-0.049480084,0.015882496,-0.07584119588136673,0.027053670957684517,-1.6352758407592773,1018.4258,
2021.02.11 15:23:48,50.0,21.0,29.4,-4.2,-30.3,-0.18674773,0.6847417,10.105926,-0.05497787,0.016493361,0.02076942,-0.06764153391122818,0.018476929515600204,-1.6437045335769653,1018.4258,
2021.02.11 15:23:48,50.0,21.0,29.519999,-3.8999999,-30.24,-0.35434186,0.7637503,9.856929,0.028099801,-0.017715093,-0.02076942,-0.07727937400341034,0.035933032631874084,-1.6226032972335815,1018.4258,
2021.02.11 15:23:48,50.0,21.0,29.88,-3.9599998,-30.119999,-0.34237084,0.7637503,9.452309,0.07391469,-0.004886922,0.002443461,-0.08057263493537903,0.03620504215359688,-1.6207187175750732,1018.4158,
2021.02.11 15:23:48,50.0,21.0,30.0,-4.14,-30.0,-0.36870706,0.80684596,9.636662,-6.1086525E-4,0.025045475,0.02687807,-0.08347109705209732,0.038242217153310776,-1.6238336563110352,1018.4158,
2021.02.11 15:23:48,50.0,21.0,29.939999,-4.3199997,-29.699999,-0.24899697,0.81163436,9.679757,-0.015882496,0.010995574,0.056199603,-0.0836254134774208,0.025717802345752716,-1.631088376045227,1018.4158,
2021.02.11 15:23:49,50.0,21.0,29.699999,-5.04,-29.699999,-0.22266077,0.7254431,9.770737,-0.035430185,0.040317107,0.06291912,-0.0740913674235344,0.02278459072113037,-1.6662521362304688,1018.4158,
2021.02.11 15:23:49,50.0,21.0,29.699999,-5.3399997,-29.46,-0.08619126,0.6847417,9.742006,-0.02321288,0.029932396,0.04886922,-0.07016940414905548,0.008847152814269066,-1.6805176734924316,1018.42554,
2021.02.11 15:23:49,50.0,21.0,29.46,-5.46,-29.279999,-0.20829555,0.6488287,9.56723,0.021991149,0.02687807,0.007330383,-0.06769814342260361,0.02176833339035511,-1.6890623569488525,1018.42554,
2021.02.11 15:23:49,50.0,21.0,29.64,-5.3399997,-29.16,-0.2705448,0.6943185,9.481039,0.017715093,0.02443461,-0.018936822,-0.07307219505310059,0.02852761186659336,-1.6792722940444946,1018.42554,
2021.02.11 15:23:49,50.0,21.0,29.88,-5.16,-28.92,-0.30645782,0.7565677,9.785102,-0.029932396,0.015882496,0.0036651916,-0.07712714374065399,0.03130858391523361,-1.6687337160110474,1018.42554,
2021.02.11 15:23:49,50.0,21.0,29.76,-4.7999997,-29.279999,-0.25139117,0.830788,9.691729,-0.012217305,-0.03604105,0.010995574,-0.08548368513584137,0.0259329192340374,-1.647137999534607,1018.4258,
2021.02.11 15:23:49,50.0,21.0,29.58,-4.5,-29.34,-0.2873042,0.78769237,9.643845,-0.0018325958,0.0036651916,0.0,-0.0814613550901413,0.029782649129629135,-1.6413240432739258,1018.4258,
2021.02.11 15:23:49,50.0,21.0,29.58,-4.68,-29.4,-0.272939,0.7278373,9.77792,-0.02321288,0.014049901,0.002443461,-0.07427097856998444,0.027906563133001328,-1.6549553871154785,1018.4258,
2021.02.11 15:23:49,50.0,21.0,29.88,-4.56,-29.58,-0.22984336,0.7517793,9.859323,-0.036651913,0.020158553,-0.007330383,-0.0760827511548996,0.02330806665122509,-1.647613286972046,1018.4258,
2021.02.11 15:23:49,50.0,21.0,29.88,-4.38,-29.4,-0.14844051,0.7062895,9.816227,-0.0012217305,-0.014049901,-0.004276057,-0.07181926816701889,0.015120798721909523,-1.6463134288787842,1018.42896,
2021.02.11 15:23:49,50.0,21.0,30.599998,-4.38,-29.279999,-0.2896984,0.7422025,9.746795,0.021991149,-0.0012217305,-0.02565634,-0.07596828043460846,0.029713677242398262,-1.6405811309814453,1018.42896,
2021.02.11 15:23:49,50.0,21.0,30.42,-4.2,-29.519999,-0.4333505,0.79487497,9.617508,0.03848451,-0.015882496,-0.03726278,-0.08237811923027039,0.045028045773506165,-1.6273934841156006,1018.42896,
2021.02.11 15:23:49,50.0,21.0,30.48,-4.08,-29.699999,-0.4309563,0.7493851,9.682152,0.020158553,-0.017715093,-0.014049901,-0.07716851681470871,0.04448102414608002,-1.628269910812378,1018.42896,
2021.02.11 15:23:49,50.0,21.0,30.42,-4.98,-29.58,-0.24420857,0.6967127,9.801862,-0.002443461,-0.016493361,0.015271631,-0.070938341319561,0.024909356608986855,-1.665472388267517,1018.4297,
2021.02.11 15:23:49,50.0,21.0,29.519999,-5.4,-29.699999,-0.21308395,0.7134721,9.7324295,0.0036651916,-0.007941248,0.004276057,-0.07316036522388458,0.021890724077820778,-1.6801165342330933,1018.4297,
2021.02.11 15:23:49,50.0,21.0,29.519999,-5.22,-29.4,-0.2825158,0.7326257,9.7324295,-0.008552114,0.0061086523,-0.022602014,-0.07510353624820709,0.029020141810178757,-1.6729012727737427,1018.4297,
2021.02.11 15:23:49,50.0,21.0,28.92,-5.22,-29.4,-0.37349546,0.6655881,9.67018,0.009773844,0.0018325958,-0.018325957,-0.06866949796676636,0.03860423341393471,-1.6825369596481323,1018.4297,
2021.02.11 15:23:49,50.0,21.0,29.16,-4.92,-29.88,-0.32321724,0.6871359,9.763555,-0.0036651916,0.0036651916,6.1086525E-4,-0.07022344321012497,0.033092379570007324,-1.6679757833480835,1018.4407,
2021.02.11 15:23:49,50.0,21.0,30.0,-4.44,-29.939999,-0.35434186,0.7374141,9.660604,0.0,-0.010995574,-0.0036651916,-0.0761333629488945,0.03666262701153755,-1.6422680616378784,1018.4407,
2021.02.11 15:23:49,50.0,21.0,29.4,-4.3199997,-30.24,-0.18435353,0.6919243,9.828198,-0.015271631,0.018325957,0.007941248,-0.07027365267276764,0.018755411729216576,-1.645159125328064,1018.4407,
2021.02.11 15:23:49,50.0,21.0,29.46,-4.7999997,-29.82,-0.17956513,0.6943185,9.785102,0.0067195175,0.007330383,-0.009773844,-0.07082608342170715,0.018348809331655502,-1.6618614196777344,1018.4407,
2021.02.11 15:23:49,50.0,21.0,29.519999,-4.5,-29.64,-0.22505496,0.6775591,9.679757,0.018325957,0.007941248,-0.02443461,-0.06986472755670547,0.023245874792337418,-1.6529263257980347,1018.4431,
2021.02.11 15:23:49,50.0,21.0,29.279999,-4.5,-29.46,-0.2873042,0.6799533,9.849746,-0.004276057,0.009162978,-0.02565634,-0.06889401376247406,0.029160423204302788,-1.6551966667175293,1018.4431,
2021.02.11 15:23:49,50.0,21.0,29.88,-4.62,-29.22,-0.35673606,0.7565677,9.751583,0.020158553,0.002443461,-0.03176499,-0.07737743109464645,0.03656606748700142,-1.6492867469787598,1018.4431,
2021.02.11 15:23:49,50.0,21.0,30.0,-4.08,-29.76,-0.34955344,0.7158663,9.651027,0.034208454,-0.002443461,-0.020158553,-0.07399121671915054,0.036203473806381226,-1.632649540901184,1018.4431,
2021.02.11 15:23:50,50.0,21.0,30.06,-4.5,-29.519999,-0.29209262,0.6727707,9.651027,0.014660766,-0.004276057,-0.009162978,-0.06956541538238525,0.030256209895014763,-1.6520806550979614,1018.43555,
2021.02.11 15:23:50,50.0,21.0,30.119999,-5.04,-29.82,-0.33758244,0.6919243,9.746795,-0.007941248,0.014049901,-0.008552114,-0.07082871347665787,0.03462138772010803,-1.6683366298675537,1018.43555,
2021.02.11 15:23:50,50.0,21.0,29.939999,-4.7999997,-30.0,-0.3184288,0.7254431,9.734824,-0.005497787,-0.007330383,-0.004276057,-0.07434331625699997,0.0326986201107502,-1.6565121412277222,1018.43555,
2021.02.11 15:23:50,50.0,21.0,30.119999,-5.16,-29.699999,-0.30645782,0.6895301,9.607931,0.01038471,0.0018325958,0.0018325958,-0.07160763442516327,0.031885527074337006,-1.6717700958251953,1018.43555,
2021.02.11 15:23:50,50.0,21.0,29.88,-4.56,-29.76,-0.24899697,0.6536171,9.727641,-0.01160644,0.01282817,0.008552114,-0.06706898659467697,0.025591261684894562,-1.6566307544708252,1018.4297,
2021.02.11 15:23:50,50.0,21.0,29.58,-4.44,-29.279999,-0.37110126,0.7350199,9.718064,-0.016493361,0.004276057,-0.009773844,-0.07543589174747467,0.038168203085660934,-1.6458015441894531,1018.4297,
2021.02.11 15:23:50,50.0,21.0,29.58,-4.7999997,-29.34,-0.34237084,0.6895301,9.698911,-0.010995574,0.021991149,-0.004276057,-0.070930115878582,0.03528527542948723,-1.6629372835159302,1018.4297,
2021.02.11 15:23:50,50.0,21.0,29.46,-4.56,-29.099998,-0.29927522,0.6943185,9.828198,-0.019547688,0.01282817,0.017104227,-0.07049580663442612,0.03044126182794571,-1.6559081077575684,1018.4297,
2021.02.11 15:23:50,50.0,21.0,29.699999,-5.04,-28.92,-0.31124622,0.7182605,9.67018,-0.0061086523,0.010995574,0.0061086523,-0.07410144805908203,0.032175078988075256,-1.6684006452560425,1018.4304,
2021.02.11 15:23:50,50.0,21.0,29.279999,-4.7999997,-29.099998,-0.2777274,0.7254431,9.593566,0.01038471,-0.0018325958,0.017104227,-0.07544254511594772,0.028941256925463676,-1.6595702171325684,1018.4304,
2021.02.11 15:23:50,50.0,21.0,29.699999,-4.98,-28.859999,-0.22266077,0.7110779,9.782708,-0.028710667,0.010995574,0.017715093,-0.07254090160131454,0.02275671809911728,-1.6678457260131836,1018.4304,
2021.02.11 15:23:50,50.0,21.0,29.64,-4.98,-29.039999,-0.19393034,0.6799533,9.737218,-0.021991149,0.0012217305,0.014660766,-0.06970339268445969,0.019913768395781517,-1.6704331636428833,1018.4304,
2021.02.11 15:23:50,50.0,21.0,29.46,-4.44,-29.279999,-0.30645782,0.6607997,9.775525,-0.004886922,0.013439035,-0.002443461,-0.06746163219213486,0.03133923560380936,-1.6545475721359253,1018.437,
2021.02.11 15:23:50,50.0,21.0,30.179998,-4.56,-29.279999,-0.28491,0.6919243,9.737218,0.0036651916,0.012217305,-0.009773844,-0.0709102600812912,0.029251551255583763,-1.6529147624969482,1018.437,
2021.02.11 15:23:50,50.0,21.0,29.58,-3.9599998,-29.519999,-0.33039984,0.6584055,9.61272,0.02565634,-0.0018325958,-0.015882496,-0.06834611296653748,0.03435758501291275,-1.6360849142074585,1018.437,
2021.02.11 15:23:50,50.0,21.0,29.46,-4.44,-29.22,-0.30885202,0.6775591,9.698911,0.0030543262,0.007330383,-0.005497787,-0.06971076130867004,0.0318332314491272,-1.6523137092590332,1018.437,
2021.02.11 15:23:50,50.0,21.0,29.939999,-4.68,-29.099998,-0.33518824,0.7134721,9.730036,-0.007941248,0.0,-0.007330383,-0.07315252721309662,0.034435201436281204,-1.6558785438537598,1018.4326,
2021.02.11 15:23:50,50.0,21.0,29.64,-4.7999997,-29.4,-0.24420857,0.6703765,9.698911,-0.0030543262,-0.004886922,-0.004886922,-0.06898719072341919,0.025173651054501534,-1.6643654108047485,1018.4326,
2021.02.11 15:23:50,50.0,21.0,30.179998,-5.46,-29.34,-0.2633622,0.6488287,9.737218,0.004886922,0.012217305,-0.014660766,-0.06651127338409424,0.027040371671319008,-1.6875169277191162,1018.4326,
2021.02.11 15:23:50,50.0,21.0,30.42,-5.22,-29.699999,-0.34476504,0.7158663,9.710882,0.015271631,-0.0030543262,-0.022602014,-0.07353868335485458,0.035488054156303406,-1.6708403825759888,1018.4326,
2021.02.11 15:23:50,50.0,21.0,29.939999,-5.1,-30.119999,-0.40462008,0.7158663,9.677363,0.018936822,0.01038471,-0.017715093,-0.07377457618713379,0.041786644607782364,-1.6673626899719238,1018.43335,
2021.02.11 15:23:50,50.0,21.0,30.24,-5.1,-29.76,-0.32561144,0.6943185,9.581595,0.015882496,-0.01038471,-0.0030543262,-0.07229574024677277,0.0339699350297451,-1.6685293912887573,1018.43335,
2021.02.11 15:23:50,50.0,21.0,29.76,-4.3199997,-29.699999,-0.32800564,0.6847417,9.782708,-0.007941248,0.008552114,-0.002443461,-0.06984201073646545,0.03351656720042229,-1.6460820436477661,1018.43335,
2021.02.11 15:23:50,50.0,21.0,30.119999,-4.3199997,-29.58,-0.2801216,0.6799533,9.77792,0.007941248,-0.0018325958,0.0012217305,-0.06939951330423355,0.02864054962992668,-1.6458226442337036,1018.43335,
2021.02.11 15:23:50,50.0,21.0,29.939999,-4.2,-29.22,-0.45968673,0.7278373,9.543288,0.028099801,-0.004276057,-0.014049901,-0.07603175193071365,0.04813138768076897,-1.6360210180282593,1018.43286,
2021.02.11 15:23:51,50.0,21.0,30.119999,-3.8999999,-29.16,-0.32321724,0.7589619,9.581595,-0.002443461,-0.01038471,0.01160644,-0.07900059968233109,0.03372034803032875,-1.6225274801254272,1018.43286,
2021.02.11 15:23:51,50.0,21.0,30.0,-4.02,-29.039999,-0.33758244,0.7134721,9.856929,-0.031154128,0.012217305,0.012217305,-0.07221459597349167,0.03423485532402992,-1.6342320442199707,1018.43286,
2021.02.11 15:23:51,50.0,21.0,29.58,-3.48,-29.76,-0.2873042,0.6991069,9.835381,0.002443461,0.0,0.01160644,-0.07093130797147751,0.029202990233898163,-1.616126298904419,1018.43286,
2021.02.11 15:23:51,50.0,21.0,29.279999,-3.72,-29.58,-0.2873042,0.6847417,9.600749,0.03481932,-0.0067195175,0.008552114,-0.07116936892271042,0.02991625852882862,-1.625207543373108,1018.4346,
2021.02.11 15:23:51,50.0,21.0,28.74,-3.84,-30.179998,-0.37828386,0.7086837,9.677363,0.01160644,0.0067195175,-0.0012217305,-0.07304500043392181,0.03906966745853424,-1.626910924911499,1018.4346,
2021.02.11 15:23:51,50.0,21.0,28.98,-4.2,-30.24,-0.37349546,0.78050977,9.758766,0.0036651916,-0.007330383,-0.0018325958,-0.07975234091281891,0.03825414553284645,-1.6315423250198364,1018.4346,
2021.02.11 15:23:51,50.0,21.0,28.92,-4.7999997,-29.64,-0.34476504,0.7541735,9.672575,0.002443461,0.019547688,0.016493361,-0.07776368409395218,0.03562847897410393,-1.6569271087646484,1018.4346,
2021.02.11 15:23:51,50.0,21.0,29.4,-4.92,-30.0,-0.2896984,0.7422025,9.64145,0.018936822,-0.007941248,0.020158553,-0.0767943412065506,0.030038142576813698,-1.6596320867538452,1018.42676,
2021.02.11 15:23:51,50.0,21.0,29.519999,-4.68,-29.4,-0.29688102,0.7134721,9.667787,0.014660766,0.005497787,0.02076942,-0.07363077998161316,0.03069862350821495,-1.6558555364608765,1018.42676,
2021.02.11 15:23:51,50.0,21.0,29.58,-4.14,-29.519999,-0.2681506,0.7302315,9.622296,0.013439035,0.0018325958,0.009773844,-0.0757150650024414,0.027860421687364578,-1.634499430656433,1018.42676,
2021.02.11 15:23:51,50.0,21.0,29.699999,-3.54,-29.64,-0.33279404,0.7613561,9.698911,0.01282817,-0.007330383,0.007330383,-0.0782926008105278,0.03429906442761421,-1.6102871894836426,1018.42676,
2021.02.11 15:23:51,50.0,21.0,29.76,-3.12,-29.58,-0.30406362,0.81402856,9.698911,0.007941248,-0.0036651916,-0.007941248,-0.08369272947311401,0.031340017914772034,-1.5902118682861328,1018.42993,
2021.02.11 15:23:51,50.0,21.0,29.939999,-3.48,-29.699999,-0.25857377,0.78050977,9.603143,0.019547688,-0.022602014,-0.004276057,-0.0810689777135849,0.026919448748230934,-1.6050801277160645,1018.42993,
2021.02.11 15:23:51,50.0,21.0,29.699999,-3.84,-29.46,-0.2633622,0.7757214,9.543288,0.021991149,-0.015882496,-0.008552114,-0.08107544481754303,0.02758958749473095,-1.6184148788452148,1018.42993,
2021.02.11 15:23:51,50.0,21.0,29.76,-3.9599998,-29.16,-0.33039984,0.8595184,9.665392,0.014660766,-0.004886922,-0.013439035,-0.08864261955022812,0.034170497208833694,-1.6151039600372314,1018.42993,
2021.02.11 15:23:51,50.0,21.0,30.0,-4.2599998,-29.099998,-0.33518824,0.8451532,9.758766,-0.013439035,-0.009162978,-0.016493361,-0.08633830398321152,0.03433389961719513,-1.627577543258667,1018.4324,
2021.02.11 15:23:51,50.0,21.0,30.119999,-4.3199997,-29.279999,-0.19393034,0.7565677,9.677363,-0.005497787,-0.0067195175,-0.0018325958,-0.07800482213497162,0.020036902278661728,-1.6377063989639282,1018.4324,
2021.02.11 15:23:51,50.0,21.0,30.0,-4.5,-29.279999,-0.260968,0.7685388,9.445126,0.027488936,0.0067195175,-0.002443461,-0.08115912228822708,0.02762288600206375,-1.6407710313796997,1018.4324,
2021.02.11 15:23:51,50.0,21.0,29.82,-4.7999997,-29.699999,-0.2825158,0.81881696,9.629479,0.026267206,-0.020158553,-0.021380283,-0.08479195088148117,0.029330221936106682,-1.6464897394180298,1018.4324,
2021.02.11 15:23:51,50.0,21.0,29.46,-4.98,-29.699999,-0.33279404,0.81163436,9.849746,-0.03970624,0.004886922,-0.02321288,-0.08216913044452667,0.03377421945333481,-1.6565641164779663,1018.4287,
2021.02.11 15:23:51,50.0,21.0,29.16,-4.44,-29.82,-0.33518824,0.80205756,9.643845,6.1086525E-4,-0.002443461,-0.018325957,-0.08292701840400696,0.03474271669983864,-1.6373116970062256,1018.4287,
2021.02.11 15:23:51,50.0,21.0,29.099998,-4.5,-29.58,-0.24660277,0.7206547,9.617508,0.022602014,-0.007330383,-0.012217305,-0.07476729154586792,0.025635408237576485,-1.6490936279296875,1018.4287,
2021.02.11 15:23:51,50.0,21.0,28.98,-4.38,-29.64,-0.33997664,0.78290397,9.593566,0.0067195175,0.01282817,-0.02443461,-0.08137589693069458,0.0354231595993042,-1.6378446817398071,1018.4287,
2021.02.11 15:23:51,50.0,21.0,29.039999,-4.14,-29.519999,-0.35913026,0.7781156,9.562442,0.009773844,-0.007941248,-0.02687807,-0.08113621920347214,0.037538688629865646,-1.6297434568405151,1018.42676,
2021.02.11 15:23:51,50.0,21.0,29.16,-4.44,-29.279999,-0.33039984,0.7733272,9.65821,-0.0061086523,0.009773844,-0.018936822,-0.07985243946313858,0.03419588506221771,-1.642173171043396,1018.42676,
2021.02.11 15:23:52,50.0,21.0,29.22,-4.2,-29.699999,-0.35913026,0.7781156,9.739613,-0.02076942,-0.0036651916,-0.005497787,-0.07966860383749008,0.03685646131634712,-1.6325888633728027,1018.42676,
2021.02.11 15:23:52,50.0,21.0,29.16,-4.2,-29.64,-0.34955344,0.81402856,9.689334,-0.007941248,0.02443461,-0.018936822,-0.0837617889046669,0.03606046736240387,-1.628409504890442,1018.42676,
2021.02.11 15:23:52,50.0,21.0,28.92,-4.3199997,-29.82,-0.30885202,0.7589619,9.591172,0.01160644,0.009773844,-0.0030543262,-0.07892601191997528,0.03219057619571686,-1.6380852460861206,1018.42554,
2021.02.11 15:23:52,50.0,21.0,29.039999,-4.44,-30.06,-0.34715924,0.7637503,9.586384,0.01160644,0.0061086523,-0.0036651916,-0.07945053279399872,0.0361979678273201,-1.6407911777496338,1018.42554,
2021.02.11 15:23:52,50.0,21.0,29.34,-4.44,-29.82,-0.38307226,0.80684596,9.648633,-0.0036651916,0.01160644,-0.0036651916,-0.0833633542060852,0.039681389927864075,-1.636338472366333,1018.42554,
2021.02.11 15:23:52,50.0,21.0,29.46,-4.3199997,-29.88,-0.320823,0.79726917,9.648633,-0.0036651916,0.0036651916,-0.0030543262,-0.08239764720201492,0.03323836997151375,-1.6328192949295044,1018.42554,
2021.02.11 15:23:52,50.0,21.0,29.64,-4.08,-29.64,-0.36870706,0.8499416,9.639056,0.0030543262,0.004886922,0.0067195175,-0.08788543939590454,0.038232725113630295,-1.618683934211731,1018.4314,
2021.02.11 15:23:52,50.0,21.0,29.34,-4.02,-29.46,-0.24899697,0.80445176,9.540894,-0.0012217305,-0.032375857,-0.01038471,-0.08408872783184052,0.02609194628894329,-1.6221495866775513,1018.4314,
2021.02.11 15:23:52,50.0,21.0,29.22,-4.08,-29.64,-0.29209262,0.770933,9.65821,-0.007941248,-0.0030543262,0.015271631,-0.07961639761924744,0.030233722180128098,-1.6286802291870117,1018.4314,
2021.02.11 15:23:52,50.0,21.0,29.34,-4.5,-29.64,-0.2705448,0.79966336,9.610326,-0.008552114,-0.0012217305,0.0012217305,-0.0829847976565361,0.02814403548836708,-1.6394809484481812,1018.4314,
2021.02.11 15:23:52,50.0,21.0,28.98,-4.62,-29.76,-0.24899697,0.7733272,9.648633,-0.0061086523,-0.029321533,-0.0012217305,-0.07995142042636871,0.02580072358250618,-1.6475707292556763,1018.43115,
2021.02.11 15:23:52,50.0,21.0,29.16,-4.62,-29.88,-0.33279404,0.8283938,9.674969,-0.002443461,0.0,0.004276057,-0.08536382019519806,0.0343838706612587,-1.6408079862594604,1018.43115,
2021.02.11 15:23:52,50.0,21.0,29.099998,-4.68,-29.82,-0.28491,0.81402856,9.445126,0.043982297,-0.05497787,-0.021380283,-0.08593370765447617,0.030155621469020844,-1.642661213874817,1018.43115,
2021.02.11 15:23:52,50.0,21.0,28.92,-4.2599998,-29.82,-0.34955344,0.8475474,9.581595,0.040317107,-0.005497787,-0.009773844,-0.08816779404878616,0.03646558150649071,-1.625628113746643,1018.43115,
2021.02.11 15:23:52,50.0,21.0,29.22,-4.08,-29.22,-0.25617957,0.7781156,9.703699,-0.018325957,-0.040927973,0.010995574,-0.07998856902122498,0.026394067332148552,-1.6295000314712524,1018.4265,
2021.02.11 15:23:52,50.0,21.0,29.099998,-3.8999999,-29.58,-0.21547815,0.7637503,9.722853,-0.02443461,-0.0067195175,0.02076942,-0.07837194204330444,0.02215840294957161,-1.6242749691009521,1018.4265,
2021.02.11 15:23:52,50.0,21.0,29.34,-4.02,-29.76,-0.23942018,0.81163436,9.574412,-0.0030543262,-0.004886922,0.015271631,-0.08454270660877228,0.0250010434538126,-1.6208299398422241,1018.4265,
2021.02.11 15:23:52,50.0,21.0,29.64,-4.3199997,-29.58,-0.36391866,0.770933,9.78989,0.018325957,-0.034208454,-0.002443461,-0.0785316750407219,0.03715579956769943,-1.6373625993728638,1018.4265,
2021.02.11 15:23:52,50.0,21.0,29.58,-4.56,-30.3,-0.33039984,0.8499416,9.622296,0.0061086523,-0.02321288,0.007941248,-0.08805014938116074,0.03432341292500496,-1.6334768533706665,1018.42676,
2021.02.11 15:23:52,50.0,21.0,29.46,-4.5,-30.0,-0.10295067,0.8331822,9.631873,0.056199603,-0.07574729,0.004886922,-0.08628291636705399,0.010688133537769318,-1.634920597076416,1018.42676,
2021.02.11 15:23:52,50.0,21.0,29.22,-4.38,-29.699999,-0.090979666,0.82121116,9.7084875,0.026267206,-0.10934488,0.0030543262,-0.08438237756490707,0.009370872750878334,-1.634230136871338,1018.42676,
2021.02.11 15:23:52,50.0,21.0,28.92,-4.3199997,-29.88,0.033518825,0.7733272,9.600749,0.04153884,-0.100792766,-0.0036651916,-0.08037461340427399,-0.0034912575501948595,-1.636686086654663,1018.42676,
2021.02.11 15:23:52,50.0,21.0,28.8,-4.2,-29.76,-0.14604631,0.81402856,9.603143,0.057421334,-0.07941248,-0.029932396,-0.0845549926161766,0.015207006596028805,-1.628414273262024,1018.4197,
2021.02.11 15:23:52,50.0,21.0,28.38,-4.38,-30.0,-0.18914193,0.90740246,9.878476,0.050701816,-0.103847094,-0.055588737,-0.0915827751159668,0.019144533202052116,-1.627167820930481,1018.4197,
2021.02.11 15:23:52,50.0,21.0,28.38,-4.92,-29.939999,0.15083471,1.0414777,8.564059,0.06780604,-0.16798794,-0.040317107,-0.12099746614694595,-0.0176107045263052,-1.6168174743652344,1018.4197,
2021.02.11 15:23:53,50.0,21.0,28.32,-5.16,-30.42,-0.38307226,0.81402856,9.706094,0.1160644,-0.21135938,-0.043982297,-0.08360718190670013,0.039446715265512466,-1.6631700992584229,1018.4197,
2021.02.11 15:23:53,50.0,21.0,28.32,-4.98,-30.9,0.3878607,0.8595184,10.022128,-0.09407325,0.13988814,-0.017715093,-0.08548903465270996,-0.03868112713098526,-1.6526272296905518,1018.4182,
2021.02.11 15:23:53,50.0,21.0,28.38,-4.7999997,-31.14,0.30885202,0.9648633,9.916783,-0.036651913,-0.14355333,0.053145275,-0.09694399684667587,-0.031134309247136116,-1.6337871551513672,1018.4182,
