Time,X-cord,Y-cord,Mag_x,Mag_y,Mag_z,Acc_x,Acc_y,Acc_z,Gyro_x,Gyro_y,Gyro_z,Orn_x,Orn_y,Orn_z,Pressure,
2021.02.11 15:27:13,62.0,24.0,28.98,5.04,-33.36,-0.11971009,0.63206923,8.492233,0.26267207,-0.05681047,-0.03359759,-0.07428475469350815,0.014095486141741276,-1.3124817609786987,1018.4021,
2021.02.11 15:27:13,62.0,24.0,28.8,4.98,-33.84,-0.56982,0.7134721,8.805874,0.047647487,0.13622294,-0.1563815,-0.08067769557237625,0.06461898982524872,-1.283880352973938,1018.4021,
2021.02.11 15:27:13,62.0,24.0,28.56,4.68,-33.899998,-0.60573304,0.8331822,9.854534,-0.23640485,0.032375857,-0.06719518,-0.08418937027454376,0.06139020994305611,-1.288804292678833,1018.4021,
2021.02.11 15:27:13,62.0,24.0,28.26,4.44,-33.719997,-0.48123455,0.6775591,10.283096,-0.27183503,0.015882496,0.040927973,-0.0657237321138382,0.04676448553800583,-1.3234823942184448,1018.4021,
2021.02.11 15:27:13,62.0,24.0,28.019999,4.62,-33.78,0.047884032,0.47165772,10.0269165,-0.12950343,-0.045814894,0.08002335,-0.04700398072600365,-0.004775512497872114,-1.354382038116455,1018.3877,
2021.02.11 15:27:13,62.0,24.0,28.199999,5.04,-33.36,0.076614454,0.33279404,9.19134,-0.02443461,-0.09407325,0.036651913,-0.036190278828144073,-0.008335310965776443,-1.3552430868148804,1018.3877,
2021.02.11 15:27:13,62.0,24.0,28.38,5.3399997,-33.0,0.08619126,0.32321724,9.67018,-0.10262536,-0.03604105,0.0,-0.03341035172343254,-0.008912862278521061,-1.350164532661438,1018.3877,
2021.02.11 15:27:13,62.0,24.0,28.74,5.3399997,-32.88,-0.19393034,0.4213795,9.861717,-0.08002335,0.022602014,-0.05131268,-0.04269459843635559,0.019662432372570038,-1.3345365524291992,1018.3877,
2021.02.11 15:27:13,62.0,24.0,28.8,5.3399997,-32.88,-0.36870706,0.49081135,9.931149,-0.06841691,-0.03481932,-0.06047566,-0.04934729263186455,0.03710928186774254,-1.3218296766281128,1018.3777,
2021.02.11 15:27:13,62.0,24.0,29.22,5.04,-32.88,-0.29688102,0.48602295,9.6845455,-0.0036651916,-0.02565634,-0.026267206,-0.05011984333395958,0.03064553625881672,-1.336683988571167,1018.3777,
2021.02.11 15:27:13,62.0,24.0,28.92,5.2799997,-33.059998,-0.12210429,0.41180268,9.615114,0.0,-0.028710667,6.1086525E-4,-0.042799077928066254,0.012698519974946976,-1.3397094011306763,1018.3777,
2021.02.11 15:27:13,62.0,24.0,29.279999,5.4,-33.48,-0.038307227,0.33039984,9.7084875,-0.010995574,-0.013439035,-0.0036651916,-0.03401866555213928,0.003945725969970226,-1.3500927686691284,1018.3777,
2021.02.11 15:27:13,62.0,24.0,29.279999,5.3399997,-33.36,-0.02633622,0.23702596,9.643845,-0.0018325958,-0.02321288,-0.012217305,-0.024572914466261864,0.0027308769058436155,-1.3628077507019043,1018.3828,
2021.02.11 15:27:13,62.0,24.0,29.039999,5.3399997,-33.36,-0.1436521,0.33039984,9.78989,-0.017104227,0.002443461,-0.039095376,-0.03373264893889427,0.014672461897134781,-1.3477104902267456,1018.3828,
2021.02.11 15:27:13,62.0,24.0,29.58,4.98,-33.54,-0.2657564,0.4141969,9.691729,-0.004886922,-0.014049901,-0.047647487,-0.04269513487815857,0.027414079755544662,-1.3496497869491577,1018.3828,
2021.02.11 15:27:13,62.0,24.0,28.859999,4.98,-33.78,-0.272939,0.39743748,9.665392,-0.007330383,0.0018325958,-0.030543262,-0.041080135852098465,0.028231289237737656,-1.3454036712646484,1018.3828,
2021.02.11 15:27:13,62.0,24.0,28.859999,4.8599997,-33.78,-0.08619126,0.35434186,9.775525,-0.028099801,-0.03970624,0.0018325958,-0.03623059391975403,0.00881681777536869,-1.3607290983200073,1018.38574,
2021.02.11 15:27:13,62.0,24.0,28.859999,5.04,-33.899998,-0.107739076,0.30885202,9.902418,-0.032986723,-0.01038471,-0.004886922,-0.03117760457098484,0.010879648849368095,-1.3597320318222046,1018.38574,
2021.02.11 15:27:13,62.0,24.0,28.439999,5.3399997,-33.899998,-0.076614454,0.260968,9.672575,0.007330383,-0.014049901,-0.01160644,-0.026972809806466103,0.007920626550912857,-1.3521870374679565,1018.38574,
2021.02.11 15:27:14,62.0,24.0,28.74,5.64,-33.6,-0.04309563,0.2705448,9.672575,0.007941248,-0.01038471,-0.016493361,-0.02796272747218609,0.0044554159976542,-1.3445589542388916,1018.38574,
2021.02.11 15:27:14,62.0,24.0,28.74,6.12,-34.02,-0.11731588,0.30166942,9.758766,-0.005497787,-0.015882496,-0.02321288,-0.030900586396455765,0.012021010741591454,-1.3226141929626465,1018.3772,
2021.02.11 15:27:14,62.0,24.0,28.38,5.94,-33.899998,-0.24181437,0.31124622,9.710882,-0.004886922,-0.007330383,-0.03176499,-0.032030388712882996,0.02489623613655567,-1.320250391960144,1018.3772,
2021.02.11 15:27:14,62.0,24.0,28.26,5.94,-33.719997,-0.18195933,0.3184288,9.864111,-0.013439035,-0.008552114,-0.009773844,-0.03226486220955849,0.01844451017677784,-1.3212928771972656,1018.3772,
2021.02.11 15:27:14,62.0,24.0,27.96,5.94,-33.719997,-0.14844051,0.31364042,9.892841,-0.004276057,-0.0030543262,0.007941248,-0.0316895954310894,0.015003714710474014,-1.320481538772583,1018.3772,
2021.02.11 15:27:14,62.0,24.0,28.019999,5.64,-33.48,-0.12689269,0.33279404,9.56723,0.03176499,-0.012217305,0.002443461,-0.03476770967245102,0.013262485153973103,-1.3285565376281738,1018.3782,
2021.02.11 15:27:14,62.0,24.0,28.26,5.8199997,-33.42,0.10055647,0.23223756,9.703699,0.0018325958,-0.007941248,0.03359759,-0.02392703853547573,-0.010362324304878712,-1.3436740636825562,1018.3782,
2021.02.11 15:27:14,62.0,24.0,27.9,6.12,-33.66,0.06703765,0.2633622,9.871294,-0.019547688,-0.015882496,0.026267206,-0.026672659441828728,-0.0067910668440163136,-1.3265385627746582,1018.3782,
2021.02.11 15:27:14,62.0,24.0,28.26,5.8799996,-33.66,-0.11731588,0.36631286,9.78989,-0.0012217305,-0.015271631,-0.014660766,-0.03739733248949051,0.011982796713709831,-1.3196338415145874,1018.3782,
2021.02.11 15:27:14,62.0,24.0,28.199999,6.06,-33.899998,-0.1364695,0.35913026,9.691729,0.023823744,-0.018936822,-0.004276057,-0.03703472390770912,0.01408009696751833,-1.3124303817749023,1018.38135,
2021.02.11 15:27:14,62.0,24.0,28.019999,6.48,-33.719997,0.07182605,0.32561144,9.710882,-0.0030543262,-0.010995574,0.021991149,-0.03351709619164467,-0.007396314293146133,-1.308178186416626,1018.38135,
2021.02.11 15:27:14,62.0,24.0,28.26,6.18,-33.48,0.035913024,0.30885202,9.933543,-0.007941248,0.007330383,-0.0012217305,-0.031081615015864372,-0.0036153129767626524,-1.3218730688095093,1018.38135,
2021.02.11 15:27:14,62.0,24.0,28.26,6.42,-33.3,-0.031124622,0.3184288,9.497798,0.031154128,-0.018936822,-0.02321288,-0.033513858914375305,0.0032770237885415554,-1.3092511892318726,1018.38135,
2021.02.11 15:27:14,62.0,24.0,28.859999,6.42,-33.059998,-0.088585466,0.32561144,9.78989,-0.017104227,0.0012217305,-0.014660766,-0.03324635326862335,0.009048420935869217,-1.31320059299469,1018.3843,
2021.02.11 15:27:14,62.0,24.0,28.8,6.18,-33.48,-0.079008654,0.29688102,9.859323,-0.014660766,-0.015882496,-0.007941248,-0.03010164387524128,0.008013427257537842,-1.323870062828064,1018.3843,
2021.02.11 15:27:14,62.0,24.0,28.8,5.8199997,-33.18,-0.035913024,0.36152446,9.734824,0.01160644,0.0061086523,-0.010995574,-0.037119925022125244,0.003689112374559045,-1.3296962976455688,1018.3843,
2021.02.11 15:27:14,62.0,24.0,28.56,5.52,-33.36,-0.062249243,0.34237084,9.6845455,0.004886922,0.0,-0.0061086523,-0.03533684089779854,0.006427600048482418,-1.3386296033859253,1018.3843,
2021.02.11 15:27:14,62.0,24.0,27.96,5.7599998,-33.48,0.0047884034,0.31603462,9.648633,-0.0018325958,0.01160644,0.0018325958,-0.03274263069033623,-4.962778766639531E-4,-1.3305891752243042,1018.37524,
2021.02.11 15:27:14,62.0,24.0,28.38,5.46,-32.7,0.04309563,0.32321724,9.7324295,-0.017715093,-0.0030543262,-0.0067195175,-0.033197809010744095,-0.004428015556186438,-1.3454759120941162,1018.37524,
2021.02.11 15:27:14,62.0,24.0,28.439999,5.8799996,-33.18,-0.047884032,0.32321724,9.811439,-0.016493361,0.004886922,-0.017715093,-0.03293059766292572,0.0048803905956447124,-1.329002857208252,1018.37524,
2021.02.11 15:27:14,62.0,24.0,28.26,6.06,-33.239998,0.076614454,0.33518824,9.758766,-0.0018325958,0.012217305,-0.01282817,-0.034332845360040665,-0.00785067304968834,-1.323846697807312,1018.37524,
2021.02.11 15:27:14,62.0,24.0,28.08,6.0,-32.82,-0.0047884034,0.32321724,9.662998,0.009773844,0.008552114,-0.035430185,-0.03343648836016655,4.955400945618749E-4,-1.3231914043426514,1018.3865,
2021.02.11 15:27:14,62.0,24.0,27.66,6.12,-33.54,-0.05267244,0.320823,9.65821,-0.0012217305,0.017715093,-0.032375857,-0.03320494666695595,0.005453589837998152,-1.3133227825164795,1018.3865,
2021.02.11 15:27:14,62.0,24.0,28.199999,5.8199997,-33.48,-0.062249243,0.32321724,9.734824,-0.0061086523,0.01038471,-0.030543262,-0.03318930044770241,0.006394403520971537,-1.3279242515563965,1018.3865,
2021.02.11 15:27:15,62.0,24.0,28.26,5.58,-33.059998,-0.110133275,0.2753332,9.840169,-0.009162978,0.013439035,-0.023823744,-0.027971487492322922,0.011191746219992638,-1.341429591178894,1018.3865,
2021.02.11 15:27:15,62.0,24.0,28.26,5.22,-33.54,-0.062249243,0.2896984,9.809045,0.004886922,-0.0061086523,-0.017715093,-0.029524626210331917,0.0063460213132202625,-1.3527888059616089,1018.3801,
2021.02.11 15:27:15,62.0,24.0,28.68,5.1,-33.6,-0.1604115,0.33997664,9.562442,0.040927973,0.0036651916,-0.018325957,-0.0355333648622036,0.016773587092757225,-1.3500885963439941,1018.3801,
2021.02.11 15:27:15,62.0,24.0,28.14,5.2799997,-33.6,-0.062249243,0.33039984,9.76116,0.017715093,-0.007941248,0.002443461,-0.03383481502532959,0.0063771517015993595,-1.344834327697754,1018.3801,
2021.02.11 15:27:15,62.0,24.0,28.26,5.4,-33.78,-0.04309563,0.34955344,9.64145,0.031154128,-0.012217305,0.010995574,-0.03623904287815094,0.004469798877835274,-1.3393319845199585,1018.3801,
2021.02.11 15:27:15,62.0,24.0,28.56,5.7,-33.239998,-0.04309563,0.37588966,9.727641,0.0018325958,-0.01160644,0.0061086523,-0.03862180560827255,0.004430194851011038,-1.3297642469406128,1018.3811,
2021.02.11 15:27:15,62.0,24.0,28.32,6.0,-33.059998,-0.10295067,0.35194764,9.655815,0.014660766,-0.019547688,0.0061086523,-0.03643109276890755,0.010661633685231209,-1.318440556526184,1018.3811,
2021.02.11 15:27:15,62.0,24.0,28.56,6.12,-33.18,0.01436521,0.35673606,9.82341,0.004276057,-0.01282817,0.022602014,-0.036298900842666626,-0.001462343381717801,-1.320348858833313,1018.3811,
2021.02.11 15:27:15,62.0,24.0,28.26,6.24,-33.48,-0.047884032,0.39983168,9.682152,0.025045475,-0.0030543262,0.013439035,-0.041271790862083435,0.004945557564496994,-1.3058764934539795,1018.3811,
2021.02.11 15:27:15,62.0,24.0,28.74,6.12,-33.84,0.05267244,0.36631286,9.770737,-0.0012217305,-0.02076942,0.009773844,-0.037472713738679886,-0.0053907837718725204,-1.321034550666809,1018.3833,
2021.02.11 15:27:15,62.0,24.0,28.5,5.46,-33.6,0.021547815,0.35913026,9.770737,0.005497787,-0.002443461,0.007330383,-0.03673906996846199,-0.002205338329076767,-1.3408713340759277,1018.3833,
2021.02.11 15:27:15,62.0,24.0,28.26,5.58,-33.54,0.04070143,0.33758244,9.799467,0.004276057,-0.0061086523,-0.0061086523,-0.03443514555692673,-0.004153409041464329,-1.338196873664856,1018.3833,
2021.02.11 15:27:15,62.0,24.0,28.98,5.3399997,-33.18,-0.12689269,0.36631286,9.65821,0.026267206,-0.004276057,-0.03176499,-0.03790617734193802,0.013137567788362503,-1.3432862758636475,1018.3833,
2021.02.11 15:27:15,62.0,24.0,28.98,5.16,-33.239998,-0.06703765,0.33997664,9.78989,-0.007941248,0.009773844,-0.012217305,-0.03471255302429199,0.00684753293171525,-1.3545118570327759,1018.37476,
2021.02.11 15:27:15,62.0,24.0,29.46,5.4,-33.239998,-0.023942016,0.36870706,9.813833,6.1086525E-4,-0.0018325958,-0.016493361,-0.0375523641705513,0.00243961438536644,-1.3482964038848877,1018.37476,
2021.02.11 15:27:15,62.0,24.0,29.76,4.74,-33.18,-0.1388637,0.37828386,9.742006,0.02076942,0.01038471,-0.026267206,-0.038806743919849396,0.01425315160304308,-1.36739182472229,1018.37476,
2021.02.11 15:27:15,62.0,24.0,29.699999,4.92,-33.18,-0.062249243,0.34476504,9.751583,0.035430185,0.005497787,-0.009773844,-0.03533933684229851,0.006383414380252361,-1.3669397830963135,1018.37476,
2021.02.11 15:27:15,62.0,24.0,29.4,5.22,-33.0,-0.10295067,0.36391866,9.751583,0.032986723,0.015882496,-0.01038471,-0.037299543619155884,0.01055693719536066,-1.3520315885543823,1018.3772,
2021.02.11 15:27:15,62.0,24.0,28.98,5.64,-32.94,-0.088585466,0.37588966,9.64145,0.014660766,-0.002443461,-0.0036651916,-0.038965463638305664,0.009187723509967327,-1.3337035179138184,1018.3772,
2021.02.11 15:27:15,62.0,24.0,28.56,6.54,-33.059998,-0.090979666,0.35913026,9.68694,0.0,0.008552114,0.0,-0.03705504909157753,0.009391715750098228,-1.3023681640625,1018.3772,
2021.02.11 15:27:15,62.0,24.0,27.66,5.94,-33.42,-0.05267244,0.37588966,9.722853,-0.004276057,-0.004276057,0.004276057,-0.038640618324279785,0.005417332053184509,-1.313432216644287,1018.3772,
2021.02.11 15:27:15,62.0,24.0,27.119999,6.2999997,-33.6,-0.1436521,0.39025488,9.744401,-0.0012217305,0.0018325958,-0.0036651916,-0.040023401379585266,0.014740945771336555,-1.2907954454421997,1018.3828,
2021.02.11 15:27:15,62.0,24.0,27.18,6.0,-34.14,-0.10295067,0.37828386,9.68694,0.002443461,0.007330383,0.01160644,-0.03902888298034668,0.010627379640936852,-1.303663730621338,1018.3828,
2021.02.11 15:27:15,62.0,24.0,27.359999,5.7599998,-34.44,-0.02873042,0.35434186,9.677363,-0.0036651916,0.0018325958,0.017715093,-0.03659902885556221,0.0029688184149563313,-1.3187556266784668,1018.3828,
2021.02.11 15:27:15,62.0,24.0,27.96,6.12,-34.14,-0.06703765,0.35194764,9.722853,-0.010995574,0.009773844,0.007330383,-0.03618131950497627,0.0068947444669902325,-1.3113781213760376,1018.3828,
2021.02.11 15:27:15,62.0,24.0,28.199999,5.7,-34.62,-0.07182605,0.40701428,9.749189,-0.007330383,-6.1086525E-4,0.005497787,-0.04172316566109657,0.007367253769189119,-1.320380449295044,1018.3838,
2021.02.11 15:27:16,62.0,24.0,28.08,6.0,-34.32,-0.11731588,0.39504328,9.758766,-0.0018325958,0.015271631,0.008552114,-0.04045585170388222,0.012021010741591454,-1.3095439672470093,1018.3838,
2021.02.11 15:27:16,62.0,24.0,27.66,5.94,-34.38,-0.090979666,0.34715924,9.68694,0.0012217305,0.0012217305,0.008552114,-0.03582095727324486,0.009391716681420803,-1.3140528202056885,1018.3838,
2021.02.11 15:27:16,62.0,24.0,27.84,6.3599997,-34.2,-0.076614454,0.35673606,9.622296,-6.1086525E-4,0.014660766,0.014660766,-0.03705575689673424,0.007962011732161045,-1.3007464408874512,1018.3838,
2021.02.11 15:27:16,62.0,24.0,27.9,6.3599997,-33.54,-0.10534488,0.40222588,9.674969,-0.0012217305,-0.009773844,0.002443461,-0.04154748097062111,0.010887964628636837,-1.296075463294983,1018.3911,
2021.02.11 15:27:16,62.0,24.0,27.96,6.06,-33.42,-0.045489833,0.40222588,9.763555,-0.02076942,0.023823744,0.018325957,-0.04117293655872345,0.004659113008528948,-1.3094747066497803,1018.3911,
2021.02.11 15:27:16,62.0,24.0,28.199999,5.8199997,-33.12,-0.088585466,0.38067806,9.749189,-0.0067195175,-0.007330383,0.0061086523,-0.03902571275830269,0.009086194448173046,-1.3209911584854126,1018.3911,
2021.02.11 15:27:16,62.0,24.0,27.84,5.58,-33.54,-0.076614454,0.35913026,9.667787,0.014049901,0.015882496,0.007330383,-0.03712886571884155,0.007924549281597137,-1.3280038833618164,1018.3911,
2021.02.11 15:27:16,62.0,24.0,28.019999,5.58,-33.66,-0.10055647,0.35194764,9.713276,-0.004276057,0.002443461,0.004886922,-0.0362158864736557,0.01035210769623518,-1.3296300172805786,1018.39624,
2021.02.11 15:27:16,62.0,24.0,28.26,5.58,-33.96,-0.093373865,0.36631286,9.560047,0.008552114,0.008552114,-6.1086525E-4,-0.038296498358249664,0.009766781702637672,-1.329025149345398,1018.39624,
2021.02.11 15:27:16,62.0,24.0,28.199999,6.0,-33.719997,-0.076614454,0.33997664,9.713276,-0.004886922,0.007941248,0.002443461,-0.03498586267232895,0.007887438870966434,-1.319081425666809,1018.39624,
2021.02.11 15:27:16,62.0,24.0,28.5,6.0,-33.719997,-0.12210429,0.39743748,9.722853,-0.010995574,0.007330383,-0.0030543262,-0.040850672870874405,0.012557823210954666,-1.3135182857513428,1018.39624,
2021.02.11 15:27:16,62.0,24.0,28.14,5.94,-34.02,-0.1604115,0.39743748,9.622296,0.0061086523,0.004886922,-0.0030543262,-0.04127461835741997,0.016669269651174545,-1.3099865913391113,1018.39136,
2021.02.11 15:27:16,62.0,24.0,27.84,6.06,-33.96,-0.110133275,0.37828386,9.701305,-0.007330383,0.01160644,0.0061086523,-0.03897083178162575,0.011351929977536201,-1.3078142404556274,1018.39136,
2021.02.11 15:27:16,62.0,24.0,27.72,5.7599998,-33.96,-0.06703765,0.34955344,9.701305,-0.0030543262,0.0061086523,0.002443461,-0.03601514548063278,0.006910058204084635,-1.3218913078308105,1018.39136,
2021.02.11 15:27:16,62.0,24.0,27.66,5.7599998,-33.96,-0.12210429,0.34715924,9.593566,0.0036651916,0.0061086523,-0.007941248,-0.036167968064546585,0.012727039866149426,-1.319244146347046,1018.39136,
2021.02.11 15:27:16,62.0,24.0,27.84,5.7,-33.899998,-0.1388637,0.37349546,9.67018,-0.009162978,0.004276057,-0.0036651916,-0.03860025852918625,0.0143590047955513,-1.3195757865905762,1018.39185,
2021.02.11 15:27:16,62.0,24.0,27.779999,5.58,-33.719997,-0.1436521,0.39504328,9.751583,-0.009162978,0.005497787,-0.0030543262,-0.04048415273427963,0.014730091206729412,-1.3211133480072021,1018.39185,
2021.02.11 15:27:16,62.0,24.0,27.96,5.52,-33.96,-0.18435353,0.3878607,9.660604,0.0030543262,0.0,-0.004276057,-0.040119852870702744,0.01908070780336857,-1.3233352899551392,1018.39185,
2021.02.11 15:27:16,62.0,24.0,28.08,5.64,-33.78,-0.1412579,0.35673606,9.651027,0.002443461,0.007330383,0.010995574,-0.03694276139140129,0.014635521918535233,-1.3257091045379639,1018.39185,
2021.02.11 15:27:16,62.0,24.0,28.08,5.8199997,-33.6,-0.038307227,0.2896984,9.6845455,6.1086525E-4,-0.0012217305,0.017715093,-0.02990432269871235,0.0039554801769554615,-1.3312596082687378,1018.38965,
2021.02.11 15:27:16,62.0,24.0,28.199999,5.8199997,-33.54,-0.1604115,0.38067806,9.555259,0.004886922,6.1086525E-4,-0.01038471,-0.039812974631786346,0.01678619533777237,-1.3169564008712769,1018.38965,
2021.02.11 15:27:16,62.0,24.0,28.08,5.7,-33.42,-0.16280572,0.39504328,9.720459,-0.008552114,0.004886922,-0.004276057,-0.0406123548746109,0.01674720272421837,-1.3192614316940308,1018.38965,
2021.02.11 15:27:16,62.0,24.0,27.9,5.52,-33.42,-0.095768064,0.40701428,9.725247,-0.0012217305,-0.0030543262,0.009162978,-0.04182486981153488,0.009847046807408333,-1.3247398138046265,1018.38965,
2021.02.11 15:27:16,62.0,24.0,27.84,5.4,-33.66,-0.07182605,0.36152446,9.734824,0.007330383,6.1086525E-4,0.0067195175,-0.037119168788194656,0.0073781246319413185,-1.3341825008392334,1018.39136,
2021.02.11 15:27:16,62.0,24.0,27.72,5.52,-33.78,-0.12928689,0.35673606,9.718064,0.013439035,0.004276057,-0.0030543262,-0.03668883442878723,0.013302984647452831,-1.3274846076965332,1018.39136,
2021.02.11 15:27:17,62.0,24.0,28.08,5.52,-33.54,-0.11971009,0.4141969,9.595961,0.022602014,-0.0012217305,-0.01282817,-0.04313354566693306,0.012474402785301208,-1.3237346410751343,1018.39136,
2021.02.11 15:27:17,62.0,24.0,28.38,5.58,-33.66,-0.14844051,0.35913026,9.631873,0.014660766,0.0030543262,-0.004276057,-0.03726392611861229,0.015410166233778,-1.3298150300979614,1018.39136,
2021.02.11 15:27:17,62.0,24.0,28.56,5.3399997,-33.239998,-0.05267244,0.36391866,9.679757,0.0030543262,-0.002443461,0.0067195175,-0.037577591836452484,0.005441450513899326,-1.3425960540771484,1018.3938,
2021.02.11 15:27:17,62.0,24.0,28.859999,5.16,-33.0,-0.110133275,0.4213795,9.698911,0.007941248,-6.1086525E-4,-0.007941248,-0.043415963649749756,0.011354733258485794,-1.3430496454238892,1018.3938,
2021.02.11 15:27:17,62.0,24.0,28.619999,5.22,-33.239998,-0.1316811,0.4213795,9.667787,0.014049901,-0.0067195175,-0.008552114,-0.04355432838201523,0.013619761914014816,-1.3379502296447754,1018.3938,
2021.02.11 15:27:17,62.0,24.0,28.439999,4.8599997,-33.3,-0.08379706,0.37588966,9.639056,0.017104227,6.1086525E-4,-0.0018325958,-0.0389753021299839,0.008693273179233074,-1.3552436828613281,1018.3938,
2021.02.11 15:27:17,62.0,24.0,28.32,4.68,-33.36,-0.07182605,0.36870706,9.689334,0.0067195175,-0.007330383,-6.1086525E-4,-0.038033485412597656,0.007412762846797705,-1.3618278503417969,1018.38257,
2021.02.11 15:27:17,62.0,24.0,28.32,4.56,-33.239998,-0.12689269,0.39743748,9.662998,0.009773844,-0.004276057,-0.014049901,-0.041103120893239975,0.01313105784356594,-1.3609833717346191,1018.38257,
2021.02.11 15:27:17,62.0,24.0,28.619999,4.56,-33.0,-0.10295067,0.37588966,9.605537,0.009773844,-0.0012217305,-0.008552114,-0.03911039978265762,0.010717435739934444,-1.3664093017578125,1018.38257,
2021.02.11 15:27:17,62.0,24.0,28.859999,4.74,-33.0,-0.12210429,0.39504328,9.643845,0.0036651916,-0.007941248,-0.01160644,-0.040937092155218124,0.012660693377256393,-1.3594623804092407,1018.38257,
2021.02.11 15:27:17,62.0,24.0,28.32,4.8599997,-33.36,-0.1388637,0.39983168,9.696517,-0.012217305,-0.0018325958,-0.009773844,-0.041207000613212585,0.014320008456707,-1.350068211555481,1018.3762,
2021.02.11 15:27:17,62.0,24.0,28.56,4.7999997,-33.54,-0.06703765,0.39983168,9.737218,-0.0012217305,-6.1086525E-4,-0.0018325958,-0.04103818163275719,0.006884573493152857,-1.356005072593689,1018.3762,
2021.02.11 15:27:17,62.0,24.0,28.14,4.8599997,-33.66,-0.10055647,0.37828386,9.651027,0.0018325958,-0.004276057,-0.004886922,-0.039174050092697144,0.010418873280286789,-1.3517543077468872,1018.3762,
2021.02.11 15:27:17,62.0,24.0,27.96,4.92,-33.48,-0.093373865,0.37588966,9.653421,-0.0067195175,0.0036651916,-0.0067195175,-0.03891701251268387,0.00967231672257185,-1.3490856885910034,1018.3762,
2021.02.11 15:27:17,62.0,24.0,28.68,5.22,-33.48,-0.1316811,0.45250413,9.636662,-0.012217305,-0.018936822,-0.01038471,-0.04691768437623978,0.013663746416568756,-1.3342481851577759,1018.37573,
2021.02.11 15:27:17,62.0,24.0,28.08,5.8799996,-33.899998,-0.05267244,0.4213795,9.818622,-0.021991149,0.009773844,0.0012217305,-0.04288942366838455,0.0053644934669137,-1.3137065172195435,1018.37573,
2021.02.11 15:27:17,62.0,24.0,28.26,6.12,-34.26,-0.1388637,0.46926352,9.646238,0.005497787,-0.015882496,-0.01038471,-0.04860395938158035,0.014394638128578663,-1.2970203161239624,1018.37573,
2021.02.11 15:27:17,62.0,24.0,28.08,6.2999997,-34.38,-0.07182605,0.3878607,9.7324295,-0.005497787,6.1086525E-4,0.0030543262,-0.03983024135231972,0.007379940245300531,-1.3017551898956299,1018.37573,
2021.02.11 15:27:17,62.0,24.0,27.66,6.06,-34.38,-0.06464344,0.38307226,9.825804,-0.004886922,0.0030543262,-0.002443461,-0.038965776562690735,0.006578851956874132,-1.307261347770691,1018.38403,
2021.02.11 15:27:17,62.0,24.0,27.72,5.94,-34.14,-0.15322891,0.44771573,9.595961,0.023823744,-6.1086525E-4,-0.015882496,-0.046616945415735245,0.015966705977916718,-1.299942135810852,1018.38403,
2021.02.11 15:27:17,62.0,24.0,27.66,6.06,-33.96,-0.06943185,0.4237737,9.744401,0.0036651916,6.1086525E-4,-0.0018325958,-0.043460454791784286,0.007125186733901501,-1.3024812936782837,1018.38403,
2021.02.11 15:27:17,62.0,24.0,27.96,5.8799996,-33.78,-0.021547815,0.4165911,9.674969,0.017715093,0.004886922,-0.0018325958,-0.0430319681763649,0.002227167831733823,-1.313730001449585,1018.38403,
2021.02.11 15:27:17,62.0,24.0,27.96,5.94,-33.78,-0.08379706,0.4333505,9.68694,0.01160644,0.014049901,-0.019547688,-0.04470406472682953,0.008650303818285465,-1.307610273361206,1018.3821,
2021.02.11 15:27:17,62.0,24.0,27.72,5.64,-33.78,-0.24181437,0.4237737,9.648633,0.019547688,0.02321288,-0.02321288,-0.04387862607836723,0.025056788697838783,-1.3108083009719849,1018.3821,
2021.02.11 15:27:17,62.0,24.0,27.359999,5.4,-33.78,-0.21547815,0.38307226,9.6845455,0.012217305,0.005497787,0.0061086523,-0.0395246259868145,0.022246019914746284,-1.3221471309661865,1018.3821,
2021.02.11 15:27:18,62.0,24.0,27.42,5.04,-33.42,-0.22505496,0.45968673,9.653421,0.01282817,0.02321288,0.009162978,-0.04757019504904747,0.023309268057346344,-1.3259927034378052,1018.3821,
2021.02.11 15:27:18,62.0,24.0,27.48,5.52,-33.12,-0.23223756,0.37828386,9.579201,0.013439035,-0.014049901,0.03481932,-0.03945803642272949,0.02423919178545475,-1.3194471597671509,1018.36816,
2021.02.11 15:27:18,62.0,24.0,27.9,5.52,-33.12,-0.17477672,0.46686932,9.947908,-0.007941248,-0.089186326,0.051923547,-0.0468897707760334,0.017567384988069534,-1.316857933998108,1018.36816,
2021.02.11 15:27:18,62.0,24.0,28.439999,5.4,-33.42,-0.107739076,0.5674258,9.758766,0.035430185,-0.084910266,0.0720821,-0.05807631090283394,0.011039786972105503,-1.3147339820861816,1018.36816,
2021.02.11 15:27:18,62.0,24.0,28.14,5.94,-33.84,-0.011971008,0.48841715,9.837775,0.06047566,-0.07819075,0.077579886,-0.04960634931921959,0.0012168403482064605,-1.3062320947647095,1018.36816,
2021.02.11 15:27:18,62.0,24.0,28.08,5.7,-33.719997,0.07182605,0.50757074,10.022128,0.08857546,-0.105068825,0.093462385,-0.05060047656297684,-0.00716662360355258,-1.315616250038147,1018.3784,
2021.02.11 15:27:18,62.0,24.0,28.08,5.94,-33.96,0.50757074,0.7733272,8.492233,0.1826487,-0.1282817,0.0842994,-0.09065152704715729,-0.059697795659303665,-1.2849669456481934,1018.3784,
2021.02.11 15:27:18,62.0,24.0,27.66,6.12,-33.719997,-0.31603462,0.33518824,9.82341,0.09896017,0.13622294,0.020158553,-0.034090518951416016,0.03216048330068588,-1.3027423620224,1018.3784,
2021.02.11 15:27:18,62.0,24.0,27.72,5.8199997,-33.6,0.35434186,0.48841715,10.6158905,-0.07696902,-0.03970624,0.016493361,-0.04595014452934265,-0.03336605429649353,-1.3223096132278442,1018.3784,
2021.02.11 15:27:18,62.0,24.0,27.96,5.7,-34.14,0.062249243,0.7613561,9.92636,0.059253927,-0.16920967,0.007330383,-0.07654905319213867,-0.006271022371947765,-1.284929633140564,1018.37646,
