Time,X-cord,Y-cord,Mag_x,Mag_y,Mag_z,Acc_x,Acc_y,Acc_z,Gyro_x,Gyro_y,Gyro_z,Orn_x,Orn_y,Orn_z,Pressure,
2021.02.11 15:31:22,78.0,18.0,14.099999,-30.06,-38.579998,-0.079008654,0.260968,10.271125,0.007330383,-0.18325958,-0.055588737,-0.025401713326573372,0.00769215589389205,-2.698265790939331,1018.3235,
2021.02.11 15:31:22,78.0,18.0,14.04,-30.3,-38.76,0.1604115,0.4213795,9.7084875,0.03604105,-0.21013765,0.014049901,-0.043370068073272705,-0.016521308571100235,-2.6674344539642334,1018.3235,
2021.02.11 15:31:22,78.0,18.0,13.799999,-30.9,-38.399998,-0.45968673,0.59376204,9.212888,0.19853121,0.054367006,-0.1441642,-0.06428030878305435,0.04985470697283745,-2.744826316833496,1018.3301,
2021.02.11 15:31:22,78.0,18.0,13.799999,-30.779999,-38.46,-0.33039984,0.56982,9.224859,0.03848451,6.1086525E-4,-0.031154128,-0.061652231961488724,0.03580094128847122,-2.7284934520721436,1018.3301,
2021.02.11 15:31:22,78.0,18.0,13.92,-31.38,-38.399998,-0.3184288,0.50517654,9.782708,-0.105068825,-0.050701816,0.007941248,-0.051566656678915024,0.03253868222236633,-2.734097957611084,1018.3301,
2021.02.11 15:31:22,78.0,18.0,14.04,-31.74,-38.04,-0.21308395,0.4429273,9.923966,-0.059253927,-0.015882496,0.030543262,-0.04459222033619881,0.021468352526426315,-2.7265186309814453,1018.3301,
2021.02.11 15:31:22,78.0,18.0,14.4,-31.439999,-38.04,-0.12449849,0.521936,9.674969,0.015271631,0.004886922,0.02076942,-0.053890351206064224,0.012867392040789127,-2.698840856552124,1018.33545,
2021.02.11 15:31:22,78.0,18.0,14.4,-31.98,-37.86,-0.18195933,0.50038815,9.605537,0.01282817,-0.01038471,0.022602014,-0.05203734710812569,0.01894090510904789,-2.7131662368774414,1018.33545,
2021.02.11 15:31:22,78.0,18.0,14.28,-31.679998,-38.1,-0.1388637,0.44532153,9.734824,-0.016493361,0.01160644,0.032986723,-0.04570869356393814,0.014263665303587914,-2.7109358310699463,1018.33545,
2021.02.11 15:31:22,78.0,18.0,14.219999,-31.08,-38.04,-0.15801731,0.49799395,9.799467,0.0018325958,-0.0012217305,0.020158553,-0.05076820030808449,0.01612369529902935,-2.7042410373687744,1018.33545,
2021.02.11 15:31:22,78.0,18.0,13.679999,-30.96,-37.8,-0.18914193,0.533907,9.710882,0.028099801,0.0036651916,0.021991149,-0.05491458252072334,0.019474854692816734,-2.719594955444336,1018.3262,
2021.02.11 15:31:22,78.0,18.0,13.62,-30.48,-37.559998,-0.18674773,0.48602295,9.698911,0.026267206,0.004886922,0.019547688,-0.05005994066596031,0.019252127036452293,-2.717367649078369,1018.3262,
2021.02.11 15:31:22,78.0,18.0,13.98,-30.66,-37.14,-0.21787235,0.46686932,9.56723,0.036651913,0.01282817,0.02076942,-0.04874750226736069,0.022768836468458176,-2.713801383972168,1018.3262,
2021.02.11 15:31:22,78.0,18.0,13.74,-30.539999,-37.8,-0.10055647,0.4285621,9.56723,0.017715093,0.017104227,0.02565634,-0.04476240277290344,0.010510123334825039,-2.7079176902770996,1018.3262,
2021.02.11 15:31:22,78.0,18.0,14.099999,-31.14,-37.8,-0.06943185,0.4213795,9.557653,-0.0018325958,-0.008552114,0.015882496,-0.044058479368686676,0.00726440129801631,-2.7025649547576904,1018.3196,
2021.02.11 15:31:22,78.0,18.0,13.98,-31.019999,-38.1,-0.12210429,0.40701428,9.598354,-0.007941248,0.02443461,-0.0061086523,-0.042375776916742325,0.012720690108835697,-2.7109122276306152,1018.3196,
2021.02.11 15:31:22,78.0,18.0,13.799999,-30.779999,-37.739998,-0.2801216,0.46686932,9.636662,-0.01282817,-0.0018325958,-0.017104227,-0.048388946801424026,0.029060140252113342,-2.7276177406311035,1018.3196,
2021.02.11 15:31:22,78.0,18.0,14.04,-30.96,-37.26,-0.23942018,0.49081135,9.667787,-0.028099801,0.0067195175,-0.010995574,-0.05070864036679268,0.024759674444794655,-2.7171151638031006,1018.3196,
2021.02.11 15:31:22,78.0,18.0,13.92,-30.66,-37.92,-0.17956513,0.44532153,9.768343,-0.02443461,0.010995574,0.0030543262,-0.04554900899529457,0.018380284309387207,-2.71242094039917,1018.30566,
2021.02.11 15:31:22,78.0,18.0,14.099999,-30.9,-37.98,-0.15322891,0.48841715,9.61272,-0.0012217305,-0.031154128,0.004276057,-0.05075937137007713,0.01593887433409691,-2.705080986022949,1018.30566,
2021.02.11 15:31:22,78.0,18.0,14.04,-30.539999,-38.52,-0.25139117,0.40222588,9.691729,-0.0036651916,0.02565634,-0.007941248,-0.04146423935890198,0.0259329192340374,-2.7178657054901123,1018.30566,
2021.02.11 15:31:22,78.0,18.0,14.219999,-30.24,-39.0,-0.24420857,0.4261679,9.801862,-0.027488936,-0.005497787,0.004276057,-0.04343743249773979,0.024909356608986855,-2.7066152095794678,1018.30566,
2021.02.11 15:31:22,78.0,18.0,14.5199995,-30.3,-39.0,-0.39504328,0.47644615,9.8042555,-0.026267206,0.015882496,-0.009773844,-0.0485183447599411,0.04027125984430313,-2.713402032852173,1018.30444,
2021.02.11 15:31:23,78.0,18.0,14.94,-30.119999,-39.12,-0.37588966,0.44771573,9.667787,0.019547688,0.005497787,0.012217305,-0.04624209925532341,0.03886105865240097,-2.6984846591949463,1018.30444,
2021.02.11 15:31:23,78.0,18.0,14.94,-30.84,-38.76,-0.16280572,0.33279404,9.672575,0.002443461,0.02321288,0.048258353,-0.034387506544589996,0.016830094158649445,-2.690361976623535,1018.30444,
2021.02.11 15:31:23,78.0,18.0,15.24,-31.019999,-37.98,-0.1364695,0.39264908,9.7324295,-0.017715093,-0.015882496,0.040317107,-0.04031858220696449,0.014021221548318863,-2.6785354614257812,1018.30444,
2021.02.11 15:31:23,78.0,18.0,14.759999,-30.9,-37.38,-0.25139117,0.44532153,9.816227,-0.005497787,0.029932396,0.010995574,-0.04531992971897125,0.025604158639907837,-2.6995997428894043,1018.30176,
2021.02.11 15:31:23,78.0,18.0,14.4,-31.38,-37.26,-0.22744916,0.4261679,9.794679,-0.0012217305,0.012217305,0.018325957,-0.043471015989780426,0.02321753464639187,-2.7143137454986572,1018.30176,
2021.02.11 15:31:23,78.0,18.0,14.7,-31.32,-37.68,-0.2681506,0.4237737,9.68694,0.018936822,0.01160644,0.01038471,-0.043702319264411926,0.027674594894051552,-2.7098019123077393,1018.30176,
2021.02.11 15:31:23,78.0,18.0,13.799999,-31.08,-37.86,-0.21787235,0.4309563,9.627085,0.018325957,0.013439035,0.019547688,-0.04472368210554123,0.022627323865890503,-2.7262558937072754,1018.30176,
2021.02.11 15:31:23,78.0,18.0,14.28,-31.32,-37.86,-0.15322891,0.4237737,9.725247,-0.0067195175,0.004276057,0.015882496,-0.04354165121912956,0.01575447991490364,-2.7090423107147217,1018.29395,
2021.02.11 15:31:23,78.0,18.0,14.46,-31.14,-37.98,-0.22505496,0.4309563,9.713276,0.002443461,0.014660766,0.002443461,-0.04432680085301399,0.023165686056017876,-2.7091407775878906,1018.29395,
2021.02.11 15:31:23,78.0,18.0,14.34,-30.84,-37.26,-0.24181437,0.3878607,9.749189,0.002443461,0.02443461,0.002443461,-0.039750710129737854,0.024798450991511345,-2.712597608566284,1018.29395,
2021.02.11 15:31:23,78.0,18.0,14.88,-31.5,-37.44,-0.4141969,0.45489833,9.787497,-0.0067195175,0.009773844,-0.017715093,-0.04640260338783264,0.042293746024370193,-2.7210400104522705,1018.29395,
2021.02.11 15:31:23,78.0,18.0,14.34,-30.96,-37.8,-0.35673606,0.50278234,9.689334,0.012217305,0.021380283,-0.007330383,-0.05180875211954117,0.036800775676965714,-2.7210748195648193,1018.3142,
2021.02.11 15:31:23,78.0,18.0,14.34,-31.08,-37.32,-0.34237084,0.47405192,9.698911,0.0061086523,0.02076942,0.0012217305,-0.04880760610103607,0.03528527542948723,-2.722301721572876,1018.3142,
2021.02.11 15:31:23,78.0,18.0,13.92,-30.9,-37.86,-0.22026655,0.37828386,9.739613,-0.01282817,0.01282817,0.016493361,-0.03881029784679413,0.022611679509282112,-2.7234935760498047,1018.3142,
2021.02.11 15:31:23,78.0,18.0,14.34,-30.9,-37.559998,-0.2657564,0.34955344,9.734824,-0.0067195175,0.013439035,0.0,-0.0358787477016449,0.027292778715491295,-2.7180063724517822,1018.3142,
2021.02.11 15:31:23,78.0,18.0,14.4,-31.08,-37.079998,-0.37828386,0.47165772,9.662998,0.009773844,0.009773844,-0.015271631,-0.04873472452163696,0.039127688854932785,-2.724627733230591,1018.32764,
2021.02.11 15:31:23,78.0,18.0,14.34,-30.84,-37.739998,-0.4357447,0.46447513,9.768343,-0.0036651916,0.009162978,-0.0061086523,-0.04746610298752785,0.04457828775048256,-2.7302675247192383,1018.32764,
2021.02.11 15:31:23,78.0,18.0,14.7,-31.56,-37.32,-0.2896984,0.45729253,9.82341,-0.010995574,0.0061086523,0.023823744,-0.04649753123521805,0.029482068493962288,-2.7132725715637207,1018.32764,
2021.02.11 15:31:23,78.0,18.0,14.28,-31.019999,-37.38,-0.3184288,0.47884035,9.703699,0.021380283,-0.01160644,0.014660766,-0.04927968978881836,0.032803427428007126,-2.7203726768493652,1018.32764,
2021.02.11 15:31:23,78.0,18.0,14.219999,-31.56,-37.739998,-0.29448682,0.47405192,9.691729,0.035430185,0.0067195175,0.020158553,-0.048851579427719116,0.030376030132174492,-2.726600408554077,1018.32324,
2021.02.11 15:31:23,78.0,18.0,14.219999,-31.5,-36.899998,-0.23463176,0.4213795,9.876082,0.004276057,-0.008552114,0.029932396,-0.04262878745794296,0.023753104731440544,-2.7217657566070557,1018.32324,
2021.02.11 15:31:23,78.0,18.0,13.92,-31.019999,-37.26,-0.29448682,0.44771573,9.718064,0.025045475,-0.01160644,0.004276057,-0.046016816049814224,0.030293762683868408,-2.729579210281372,1018.32324,
2021.02.11 15:31:23,78.0,18.0,14.099999,-31.439999,-37.26,-0.35434186,0.47884035,9.507375,0.06658431,0.004886922,-0.008552114,-0.050287771970033646,0.03725297003984451,-2.7350215911865234,1018.32324,
2021.02.11 15:31:23,78.0,18.0,14.46,-30.72,-37.44,-0.33758244,0.49320555,9.648633,0.017104227,0.004276057,-0.002443461,-0.05104099586606026,0.034973323345184326,-2.712775707244873,1018.32495,
2021.02.11 15:31:23,78.0,18.0,14.4,-31.08,-37.86,-0.3184288,0.45010993,9.799467,-0.015271631,-0.009162978,0.0061086523,-0.04587564244866371,0.032483071088790894,-2.719247817993164,1018.32495,
2021.02.11 15:31:24,78.0,18.0,14.5199995,-30.84,-38.04,-0.2896984,0.40222588,9.636662,0.017715093,0.013439035,0.005497787,-0.041696105152368546,0.03005306050181389,-2.712327003479004,1018.32495,
2021.02.11 15:31:24,78.0,18.0,14.16,-30.72,-38.1,-0.4189853,0.47165772,9.545682,0.014660766,0.009162978,-0.0067195175,-0.04932302609086037,0.043864499777555466,-2.732499361038208,1018.32495,
2021.02.11 15:31:24,78.0,18.0,14.16,-31.26,-38.1,-0.33758244,0.5267244,9.6845455,-0.0067195175,-0.002443461,0.0012217305,-0.05430168658494949,0.03484373912215233,-2.726766586303711,1018.31665,
2021.02.11 15:31:24,78.0,18.0,14.58,-30.84,-37.92,-0.37349546,0.59136784,9.768343,-0.02687807,0.012217305,0.0036651916,-0.06042137369513512,0.03821667656302452,-2.709641695022583,1018.31665,
2021.02.11 15:31:24,78.0,18.0,14.639999,-30.96,-37.8,-0.2633622,0.48123455,9.768343,-0.017715093,0.0,0.022602014,-0.04920705780386925,0.026954255998134613,-2.703218936920166,1018.31665,
2021.02.11 15:31:24,78.0,18.0,15.0,-31.56,-37.559998,-0.21547815,0.46926352,9.667787,0.0030543262,-0.008552114,0.01160644,-0.048488788306713104,0.022284572944045067,-2.6965463161468506,1018.31665,
2021.02.11 15:31:24,78.0,18.0,14.5199995,-31.439999,-37.44,-0.2896984,0.5291186,9.667787,-0.0061086523,0.008552114,-0.009773844,-0.054651036858558655,0.029956365004181862,-2.713200330734253,1018.3225,
2021.02.11 15:31:24,78.0,18.0,14.16,-31.8,-37.559998,-0.37349546,0.533907,9.639056,-0.004276057,-0.008552114,-0.010995574,-0.05529201775789261,0.03872876241803169,-2.737006902694702,1018.3225,
2021.02.11 15:31:24,78.0,18.0,14.16,-32.399998,-37.5,-0.31364042,0.5386954,9.674969,-0.01282817,-0.0018325958,0.005497787,-0.05559271201491356,0.03240637108683586,-2.737351179122925,1018.3225,
2021.02.11 15:31:24,78.0,18.0,13.679999,-31.74,-38.16,-0.29448682,0.51475334,9.720459,-0.022602014,-0.015271631,0.002443461,-0.05288202688097954,0.030286304652690887,-2.742189645767212,1018.3225,
2021.02.11 15:31:24,78.0,18.0,14.099999,-31.679998,-37.86,-0.31124622,0.5315128,9.734824,-0.009162978,0.0012217305,-0.0018325958,-0.05451715737581253,0.03196156397461891,-2.730422258377075,1018.3181,
2021.02.11 15:31:24,78.0,18.0,13.5,-31.38,-38.1,-0.31364042,0.545878,9.715671,0.0,-0.013439035,-0.0036651916,-0.05609714239835739,0.032270703464746475,-2.7436211109161377,1018.3181,
2021.02.11 15:31:24,78.0,18.0,13.38,-30.9,-38.16,-0.24899697,0.50996494,9.720459,-0.004886922,-0.002443461,0.004276057,-0.05239783972501755,0.02561016194522381,-2.7355971336364746,1018.3181,
2021.02.11 15:31:24,78.0,18.0,13.559999,-30.42,-38.34,-0.29209262,0.49081135,9.615114,0.002443461,-0.015882496,-0.01282817,-0.05097807198762894,0.030369145795702934,-2.730316638946533,1018.3181,
2021.02.11 15:31:24,78.0,18.0,13.2,-30.48,-38.52,-0.23463176,0.4237737,9.627085,-6.1086525E-4,0.0030543262,-0.002443461,-0.043977461755275726,0.02436722442507744,-2.738497018814087,1018.32764,
2021.02.11 15:31:24,78.0,18.0,13.74,-30.359999,-38.64,-0.2896984,0.46926352,9.725247,-0.02321288,-0.01282817,-0.018325957,-0.048193346709012985,0.029779473319649696,-2.725088596343994,1018.32764,
2021.02.11 15:31:24,78.0,18.0,13.679999,-30.359999,-38.76,-0.4261679,0.557849,9.77792,-0.008552114,0.004886922,-0.031154128,-0.05693619325757027,0.04355715587735176,-2.7382712364196777,1018.32764,
2021.02.11 15:31:24,78.0,18.0,13.92,-31.32,-38.1,-0.35673606,0.47165772,9.739613,0.0,-0.004886922,-6.1086525E-4,-0.0483565628528595,0.03661096841096878,-2.7393386363983154,1018.32764,
2021.02.11 15:31:24,78.0,18.0,14.099999,-31.14,-38.04,-0.23463176,0.37349546,9.727641,-0.013439035,0.016493361,0.016493361,-0.03836527839303017,0.024115433916449547,-2.7232866287231445,1018.3181,
2021.02.11 15:31:24,78.0,18.0,14.28,-31.08,-37.92,-0.320823,0.44771573,9.514558,0.023823744,-0.010995574,-0.016493361,-0.04699451103806496,0.03370640426874161,-2.723447561264038,1018.3181,
2021.02.11 15:31:24,78.0,18.0,14.34,-31.019999,-37.68,-0.29209262,0.46447513,9.674969,-0.0036651916,0.015882496,0.0067195175,-0.047949276864528656,0.030181381851434708,-2.7165980339050293,1018.3181,
2021.02.11 15:31:24,78.0,18.0,14.099999,-30.66,-37.5,-0.33758244,0.49559975,9.892841,-0.05009095,-0.020158553,0.0036651916,-0.05002589151263237,0.03411067649722099,-2.722005844116211,1018.3181,
2021.02.11 15:31:24,78.0,18.0,14.16,-30.42,-37.739998,-0.25617957,0.45250413,9.67018,0.009773844,-0.0061086523,0.01282817,-0.046743281185626984,0.026485512033104897,-2.7105510234832764,1018.32227,
2021.02.11 15:31:24,78.0,18.0,13.74,-30.3,-37.68,-0.23942018,0.45250413,9.629479,0.019547688,0.0012217305,0.012217305,-0.046942513436079025,0.024858130142092705,-2.719268798828125,1018.32227,
2021.02.11 15:31:24,78.0,18.0,13.559999,-30.359999,-37.98,-0.20829555,0.4357447,9.677363,-0.015271631,-0.02443461,0.009162978,-0.04498641565442085,0.021520676091313362,-2.722648859024048,1018.32227,
2021.02.11 15:31:25,78.0,18.0,13.2,-30.179998,-38.1,-0.14844051,0.40701428,9.653421,0.0012217305,0.0036651916,0.0012217305,-0.04213276505470276,0.01537577249109745,-2.7254719734191895,1018.32227,
2021.02.11 15:31:25,78.0,18.0,13.139999,-30.179998,-37.92,-0.2753332,0.45010993,9.701305,-0.0012217305,-0.014049901,-0.02321288,-0.046344954520463943,0.02837343141436577,-2.7397258281707764,1018.3269,
2021.02.11 15:31:25,78.0,18.0,13.44,-30.06,-37.92,-0.33039984,0.47405192,9.689334,-0.0018325958,-0.0061086523,-0.035430185,-0.04885779693722725,0.03408613055944443,-2.734445333480835,1018.3269,
2021.02.11 15:31:25,78.0,18.0,13.74,-30.42,-37.68,-0.2777274,0.45010993,9.653421,0.01038471,-0.014049901,-0.015271631,-0.04657399654388428,0.028761906549334526,-2.725327968597412,1018.3269,
2021.02.11 15:31:25,78.0,18.0,13.92,-30.24,-37.86,-0.23463176,0.4429273,9.61272,0.004886922,-0.008552114,-0.017104227,-0.04603095352649689,0.02440362237393856,-2.7132225036621094,1018.3269,
2021.02.11 15:31:25,78.0,18.0,13.74,-30.24,-37.92,-0.20111294,0.4141969,9.662998,-0.0012217305,-0.013439035,-0.01282817,-0.04282873496413231,0.020809680223464966,-2.7161688804626465,1018.32764,
2021.02.11 15:31:25,78.0,18.0,13.74,-30.42,-37.739998,-0.16759412,0.37588966,9.617508,-0.002443461,-0.013439035,-0.02076942,-0.03905808925628662,0.01742417737841606,-2.716754198074341,1018.32764,
2021.02.11 15:31:25,78.0,18.0,13.44,-30.3,-37.739998,-0.24181437,0.4381389,9.677363,-0.0061086523,-0.008552114,-0.032375857,-0.04522961750626564,0.024982431903481483,-2.7290844917297363,1018.32764,
2021.02.11 15:31:25,78.0,18.0,13.62,-30.539999,-37.44,-0.30406362,0.46208093,9.734824,-0.0036651916,-0.002443461,-0.03359759,-0.04740810766816139,0.031224478036165237,-2.7326087951660156,1018.32764,
2021.02.11 15:31:25,78.0,18.0,13.799999,-30.539999,-37.5,-0.260968,0.41180268,9.627085,0.016493361,0.0030543262,-0.02687807,-0.04273368790745735,0.027101051062345505,-2.7251999378204346,1018.3313,
2021.02.11 15:31:25,78.0,18.0,13.86,-30.42,-37.2,-0.30166942,0.39743748,9.548077,0.0061086523,0.0,-0.029321533,-0.041580136865377426,0.031584277749061584,-2.7272841930389404,1018.3313,
2021.02.11 15:31:25,78.0,18.0,13.98,-30.119999,-37.26,-0.25857377,0.39025488,9.648633,-0.014049901,0.004886922,-0.021380283,-0.0404101200401783,0.02679259330034256,-2.715315341949463,1018.3313,
2021.02.11 15:31:25,78.0,18.0,13.679999,-29.76,-37.8,-0.3854665,0.47405192,9.67018,-0.015271631,-0.005497787,-0.02687807,-0.04894401133060455,0.03984026238322258,-2.729806900024414,1018.3313,
2021.02.11 15:31:25,78.0,18.0,13.44,-29.76,-37.86,-0.19393034,0.4189853,9.703699,-0.009773844,0.017104227,0.0061086523,-0.04314249008893967,0.019982537254691124,-2.7175211906433105,1018.32666,
2021.02.11 15:31:25,78.0,18.0,13.5,-29.699999,-38.76,-0.30645782,0.45968673,9.627085,-0.005497787,-0.015271631,-0.015882496,-0.047688961029052734,0.03182213008403778,-2.7262301445007324,1018.32666,
2021.02.11 15:31:25,78.0,18.0,13.5,-30.119999,-38.64,-0.21547815,0.39504328,9.588778,0.004886922,0.022602014,0.0,-0.041164837777614594,0.02246812917292118,-2.72438645362854,1018.32666,
2021.02.11 15:31:25,78.0,18.0,13.5,-30.179998,-38.46,-0.2657564,0.4213795,9.715671,-0.018325957,0.012217305,-0.0030543262,-0.04332777112722397,0.02734655886888504,-2.729550361633301,1018.32666,
2021.02.11 15:31:25,78.0,18.0,13.32,-30.24,-38.34,-0.32800564,0.4237737,9.655815,-0.013439035,6.1086525E-4,-0.009162978,-0.04383452981710434,0.03395669534802437,-2.742903232574463,1018.32275,
2021.02.11 15:31:25,78.0,18.0,12.9,-30.48,-38.34,-0.33279404,0.41180268,9.591172,0.013439035,0.021380283,-0.0012217305,-0.04288346692919731,0.034684035927057266,-2.7596898078918457,1018.32275,
2021.02.11 15:31:25,78.0,18.0,12.96,-29.88,-38.219997,-0.2896984,0.4165911,9.610326,-0.015882496,0.007941248,0.01038471,-0.04330151528120041,0.030135367065668106,-2.7449803352355957,1018.32275,
2021.02.11 15:31:25,78.0,18.0,13.2,-30.179998,-38.28,-0.35673606,0.4429273,9.61272,-0.015882496,0.0030543262,0.0067195175,-0.046013008803129196,0.037093810737133026,-2.7482402324676514,1018.32275,
2021.02.11 15:31:25,78.0,18.0,13.44,-30.42,-38.34,-0.21068975,0.36152446,9.583989,-0.01282817,0.005497787,0.03176499,-0.03769473731517792,0.02197997458279133,-2.731165647506714,1018.33105,
2021.02.11 15:31:25,78.0,18.0,13.559999,-30.779999,-38.1,-0.21787235,0.36391866,9.720459,-0.03604105,0.0012217305,0.028099801,-0.037411559373140335,0.022410040721297264,-2.732786178588867,1018.33105,
2021.02.11 15:31:25,78.0,18.0,14.28,-30.84,-38.34,-0.2681506,0.4333505,9.710882,-0.018325957,-0.0012217305,0.009162978,-0.04457869008183479,0.02760639786720276,-2.7150700092315674,1018.33105,
2021.02.11 15:31:25,78.0,18.0,14.34,-30.84,-38.1,-0.3184288,0.46208093,9.583989,0.009162978,0.0018325958,-0.002443461,-0.04815000668168068,0.03321286290884018,-2.717588186264038,1018.33105,
2021.02.11 15:31:26,78.0,18.0,14.5199995,-30.84,-37.8,-0.30406362,0.40940848,9.672575,-0.0061086523,-0.008552114,0.013439035,-0.042280618101358414,0.031425293534994125,-2.7134292125701904,1018.3313,
2021.02.11 15:31:26,78.0,18.0,14.82,-30.179998,-37.44,-0.21547815,0.39743748,9.715671,-0.015882496,-0.013439035,0.01282817,-0.04087401553988457,0.0221747774630785,-2.686924457550049,1018.3313,
2021.02.11 15:31:26,78.0,18.0,14.219999,-30.599998,-37.739998,-0.22266077,0.37588966,9.631873,0.0030543262,-0.008552114,0.01038471,-0.0389954037964344,0.023112962022423744,-2.711554765701294,1018.3313,
2021.02.11 15:31:26,78.0,18.0,14.46,-30.66,-38.219997,-0.22266077,0.39264908,9.61272,0.009162978,0.0061086523,0.008552114,-0.04081319645047188,0.023158999159932137,-2.704714059829712,1018.3313,
2021.02.11 15:31:26,78.0,18.0,14.219999,-30.72,-38.64,-0.2896984,0.40462008,9.624691,0.008552114,-0.007330383,-0.0036651916,-0.0419960618019104,0.030090417712926865,-2.7193973064422607,1018.3264,
2021.02.11 15:31:26,78.0,18.0,14.28,-31.08,-39.059998,-0.2633622,0.37110126,9.682152,0.002443461,6.1086525E-4,0.004886922,-0.038295481353998184,0.027194086462259293,-2.721096992492676,1018.3264,
2021.02.11 15:31:26,78.0,18.0,14.4,-31.019999,-38.879997,-0.24420857,0.40701428,9.713276,0.005497787,-0.01038471,-6.1086525E-4,-0.04186517372727394,0.025136437267065048,-2.7127954959869385,1018.3264,
2021.02.11 15:31:26,78.0,18.0,14.219999,-31.14,-38.82,-0.35194764,0.4405331,9.607931,0.025045475,-0.015271631,-0.013439035,-0.045788224786520004,0.03661457821726799,-2.730121374130249,1018.3264,
2021.02.11 15:31:26,78.0,18.0,14.28,-31.14,-38.82,-0.2777274,0.36870706,9.617508,0.02321288,0.005497787,0.009162978,-0.03830235078930855,0.028869248926639557,-2.7236199378967285,1018.3296,
2021.02.11 15:31:26,78.0,18.0,13.44,-30.96,-38.76,-0.23942018,0.36631286,9.722853,6.1086525E-4,-0.013439035,0.01038471,-0.03764624148607254,0.02461950294673443,-2.740924119949341,1018.3296,
2021.02.11 15:31:26,78.0,18.0,13.2,-30.96,-38.399998,-0.320823,0.4165911,9.660604,0.012217305,-0.019547688,-6.1086525E-4,-0.04307226836681366,0.03319721668958664,-2.7547903060913086,1018.3296,
2021.02.11 15:31:26,78.0,18.0,13.08,-30.539999,-38.34,-0.22984336,0.41180268,9.629479,0.028710667,-0.015271631,0.005497787,-0.04272659495472908,0.02386418916285038,-2.7428009510040283,1018.3296,
2021.02.11 15:31:26,78.0,18.0,12.84,-30.42,-38.399998,-0.28491,0.39743748,9.655815,0.009773844,-0.02443461,0.0067195175,-0.04111932963132858,0.029498012736439705,-2.7556650638580322,1018.32275,
2021.02.11 15:31:26,78.0,18.0,13.32,-30.599998,-38.1,-0.2801216,0.45968673,9.660604,0.01038471,-0.037873644,0.0018325958,-0.04752783849835396,0.02898816019296646,-2.73982310295105,1018.32275,
2021.02.11 15:31:26,78.0,18.0,13.259999,-30.06,-38.28,-0.24660277,0.4381389,9.665392,0.005497787,-0.01160644,0.016493361,-0.04528496414422989,0.025508461520075798,-2.7319705486297607,1018.32275,
2021.02.11 15:31:26,78.0,18.0,13.08,-30.359999,-38.16,-0.17238252,0.35913026,9.679757,-6.1086525E-4,-0.020158553,0.025045475,-0.03707828000187874,0.017806675285100937,-2.7365305423736572,1018.32275,
2021.02.11 15:31:26,78.0,18.0,13.259999,-30.359999,-38.16,-0.12210429,0.38067806,9.703699,-0.0018325958,-0.025045475,0.018325957,-0.039206989109516144,0.012582608498632908,-2.724426507949829,1018.3262,
2021.02.11 15:31:26,78.0,18.0,12.9,-30.119999,-38.64,-0.23702596,0.4165911,9.651027,0.010995574,-0.023823744,-0.005497787,-0.0431257039308548,0.024554727599024773,-2.743547201156616,1018.3262,
2021.02.11 15:31:26,78.0,18.0,12.78,-30.42,-38.64,-0.25378537,0.4381389,9.617508,0.017104227,-0.027488936,-0.0061086523,-0.04550908878445625,0.026381729170680046,-2.7517850399017334,1018.3262,
2021.02.11 15:31:26,78.0,18.0,13.0199995,-30.119999,-39.239998,-0.23223756,0.4333505,9.682152,0.004886922,-0.026267206,0.008552114,-0.04471496865153313,0.023981552571058273,-2.7385776042938232,1018.3262,
2021.02.11 15:31:26,78.0,18.0,12.84,-29.82,-39.36,-0.21308395,0.40940848,9.76116,0.004276057,-0.028099801,0.004276057,-0.04190806671977043,0.021826310083270073,-2.739083766937256,1018.3198,
2021.02.11 15:31:26,78.0,18.0,13.2,-30.06,-39.3,-0.10534488,0.46686932,9.682152,0.03481932,-0.06169739,-0.004886922,-0.048179417848587036,0.010879887267947197,-2.7153398990631104,1018.3198,
2021.02.11 15:31:26,78.0,18.0,13.08,-30.0,-39.54,-0.15322891,0.47884035,9.595961,0.059864793,-0.06719518,-0.021991149,-0.04985249787569046,0.015966705977916718,-2.723055124282837,1018.3198,
2021.02.11 15:31:26,78.0,18.0,12.66,-30.359999,-38.82,-0.0047884034,0.4405331,9.959879,0.039095376,-0.08552113,-0.026267206,-0.04420195147395134,4.8076920211315155E-4,-2.725597620010376,1018.3198,
2021.02.11 15:31:26,78.0,18.0,12.66,-30.359999,-38.52,0.2873042,0.6919243,9.112331,0.06780604,-0.19425514,-0.043982297,-0.07574979960918427,-0.03151872009038925,-2.6729085445404053,1018.31885,
2021.02.11 15:31:27,78.0,18.0,12.48,-30.66,-38.34,-0.37110126,0.48602295,9.442732,0.08979719,0.07574729,-0.07880162,-0.05138561129570007,0.039279986172914505,-2.775803327560425,1018.31885,
2021.02.11 15:31:27,78.0,18.0,12.54,-30.599998,-38.46,0.21068975,0.50038815,10.263943,-0.06414085,-0.053145275,0.015882496,-0.04870322719216347,-0.020524291321635246,-2.7069311141967773,1018.31885,
