Time,X-cord,Y-cord,Mag_x,Mag_y,Mag_z,Acc_x,Acc_y,Acc_z,Gyro_x,Gyro_y,Gyro_z,Orn_x,Orn_y,Orn_z,Pressure,
2021.01.10 21:24:08,1.0,27.0,19.08,-39.42,-19.14,-0.30646718,1.2593886,9.761458,0.0049919905,-0.039202277,-0.02798557,-0.12824515998363495,0.03138532489538193,-2.6739397048950195,1021.2317,
2021.01.10 21:24:08,1.0,27.0,19.199999,-39.18,-19.08,-0.43096948,1.3958622,9.8237095,-0.023107812,-0.014767668,-0.020655185,-0.14101247489452362,0.04384222626686096,-2.670231342315674,1021.2317,
2021.01.10 21:24:08,1.0,27.0,20.16,-39.36,-19.5,-0.37829542,1.2713599,9.783007,-0.026773002,-0.009880745,-4.9663347E-4,-0.12913624942302704,0.03864936903119087,-2.6523613929748535,1021.2317,
2021.01.10 21:24:08,1.0,27.0,21.06,-39.96,-20.46,-0.3232271,1.1612233,10.048771,0.0013267993,0.010888672,0.012331536,-0.11498948931694031,0.03215475007891655,-2.6409835815429688,1021.2283,
2021.01.10 21:24:09,1.0,27.0,22.02,-39.84,-21.48,-0.36871833,1.2402344,9.991309,-0.018220888,0.0053908858,-0.009659612,-0.12341642379760742,0.036887165158987045,-2.6186153888702393,1021.2278,
2021.01.10 21:24:09,1.0,27.0,22.8,-40.5,-22.32,-0.4189981,1.297697,9.972155,-0.012112236,-0.0123242065,-0.01760086,-0.1292920559644699,0.041992105543613434,-2.6102259159088135,1021.2278,
2021.01.10 21:24:09,1.0,27.0,22.8,-40.559998,-22.68,-0.3615355,1.1803775,9.783007,-0.013333966,-0.011713341,-0.0023292291,-0.11999433487653732,0.03693864867091179,-2.6115596294403076,1021.2241,
2021.01.10 21:24:09,1.0,27.0,22.14,-40.62,-22.859999,-0.28731298,1.158829,9.974549,-0.014555697,-0.0104916105,0.006222884,-0.11561254411935806,0.028796644881367683,-2.623159646987915,1021.2241,
2021.01.10 21:24:09,1.0,27.0,21.96,-40.86,-23.039999,-0.4932206,1.297697,9.905115,-0.014555697,-0.0086590145,-0.038370278,-0.1301114559173584,0.04975344240665436,-2.634162187576294,1021.23364,
2021.01.10 21:24:09,1.0,27.0,22.619999,-40.739998,-23.1,-0.44533512,1.3024855,10.017646,-0.0060035833,-0.009880745,-0.038981143,-0.12916764616966248,0.04442581906914711,-2.6172423362731934,1021.2324,
2021.01.10 21:24:09,1.0,27.0,22.859999,-40.62,-23.279999,-0.36632404,1.1708003,9.890749,0.0068245865,-0.01843286,0.0013359623,-0.11774500459432602,0.037020113319158554,-2.611453056335449,1021.2324,
2021.01.10 21:24:09,1.0,27.0,23.1,-40.44,-23.1,-0.38787252,1.2593886,9.890749,0.014765834,-0.0037720928,-0.0011074987,-0.12655220925807953,0.039195604622364044,-2.6026880741119385,1021.2388,
2021.01.10 21:24:09,1.0,27.0,23.4,-40.68,-22.56,-0.36392978,1.2306572,10.029617,0.034924388,0.041431934,-0.0029400946,-0.12201251834630966,0.036269597709178925,-2.600226402282715,1021.2388,
2021.01.10 21:24:09,1.0,27.0,22.68,-40.62,-22.56,-0.35674694,1.2258687,9.77343,-0.029827328,-0.0049938234,0.012942402,-0.12469491362571716,0.03648551553487778,-2.6129872798919678,1021.23315,
2021.01.10 21:24:09,1.0,27.0,22.32,-40.44,-22.26,-0.38787252,1.1803775,9.981731,-0.027994731,0.018829921,0.010498942,-0.11761918663978577,0.0388386994600296,-2.621649980545044,1021.23535,
2021.01.10 21:24:09,1.0,27.0,22.38,-40.5,-22.199999,-0.37350687,1.1253091,9.964972,-0.05548367,0.0047800206,-4.9663347E-4,-0.11237184703350067,0.0374644435942173,-2.6222240924835205,1021.23535,
2021.01.10 21:24:09,1.0,27.0,22.56,-40.2,-22.8,-0.32562137,1.1564348,9.840469,-5.0579646E-4,0.009666943,1.142318E-4,-0.11691829562187195,0.03307795524597168,-2.6114115715026855,1021.23486,
2021.01.10 21:24:09,1.0,27.0,22.439999,-40.26,-23.1,-0.36392978,1.1564348,10.024829,-0.024940407,0.009666943,-0.0072161513,-0.11477446556091309,0.03628690540790558,-2.616461753845215,1021.23486,
2021.01.10 21:24:09,1.0,27.0,22.08,-40.379997,-22.859999,-0.36871833,1.1827718,9.859624,0.012933239,0.0053908858,-0.006605286,-0.11930801719427109,0.03737937659025192,-2.6242711544036865,1021.22925,
2021.01.10 21:24:09,1.0,27.0,22.199999,-40.14,-22.68,-0.36632404,1.1468576,9.941029,-5.0579646E-4,0.0145538645,-0.010881343,-0.11478109657764435,0.03683304786682129,-2.6204147338867188,1021.2329,
2021.01.10 21:24:09,1.0,27.0,21.96,-40.559998,-22.199999,-0.37111259,1.2162915,9.945818,-0.022496944,0.0011148291,-0.013324804,-0.12160374969244003,0.037296123802661896,-2.628391981124878,1021.2329,
2021.01.10 21:24:10,1.0,27.0,22.14,-40.44,-21.3,-0.43336374,1.1444633,9.993703,0.013544105,0.009056077,-0.014546535,-0.11391561478376389,0.04333653301000595,-2.628833532333374,1021.23364,
2021.01.10 21:24:10,1.0,27.0,22.08,-39.96,-21.359999,-0.47885495,1.2067145,9.75667,0.003159395,0.009056077,-0.015157399,-0.12290960550308228,0.049040403217077255,-2.6241884231567383,1021.23364,
2021.01.10 21:24:10,1.0,27.0,22.199999,-40.079998,-21.0,-0.38068968,1.2067145,9.981731,-0.00905791,-0.006826419,-0.0029400946,-0.12022191286087036,0.038120169192552567,-2.6195690631866455,1021.23804,
2021.01.10 21:24:10,1.0,27.0,22.199999,-39.54,-21.48,-0.40463245,1.1540405,9.885961,-0.0047818534,-0.0074372846,-0.0059944205,-0.11611297726631165,0.040907178074121475,-2.6154513359069824,1021.23804,
2021.01.10 21:24:10,1.0,27.0,21.96,-39.0,-21.84,-0.4668836,1.2091088,9.926663,0.010489778,0.007223482,-0.008437881,-0.12107454985380173,0.04699864983558655,-2.6148486137390137,1021.23804,
2021.01.10 21:24:10,1.0,27.0,22.26,-39.42,-21.3,-0.4668836,1.2067145,9.921875,0.0013267993,0.009666943,-0.009048747,-0.12089475244283676,0.047021299600601196,-2.6139798164367676,1021.2388,
2021.01.10 21:24:10,1.0,27.0,21.66,-39.36,-21.66,-0.42139238,1.2091088,9.8787775,0.009268047,-0.0062155537,-0.0011074987,-0.12167926877737045,0.04263048246502876,-2.623337507247925,1021.2388,
2021.01.10 21:24:10,1.0,27.0,21.48,-39.719997,-21.0,-0.48843205,1.23784,9.996098,0.009268047,0.0023365596,-0.0011074987,-0.12305978685617447,0.04882344231009483,-2.6338369846343994,1021.23486,
2021.01.10 21:24:10,1.0,27.0,21.06,-39.96,-20.939999,-0.45730647,1.2043202,9.833286,0.010489778,-0.0025503624,0.0068337494,-0.12173663824796677,0.04647248238325119,-2.6447536945343018,1021.23804,
2021.01.10 21:24:10,1.0,27.0,20.58,-40.32,-21.66,-0.3974496,1.2426286,9.881172,0.007435452,0.006001751,0.0031685582,-0.12500044703483582,0.040201254189014435,-2.6547646522521973,1021.23804,
2021.01.10 21:24:10,1.0,27.0,21.24,-40.079998,-21.6,-0.37111259,1.1875603,9.953,0.003159395,-0.00804815,0.011109806,-0.11867369711399078,0.037269238382577896,-2.6389858722686768,1021.22876,
2021.01.10 21:24:10,1.0,27.0,21.3,-39.96,-21.539999,-0.51716334,1.201926,9.811738,0.017820163,-0.0025503624,0.0068337494,-0.1217242032289505,0.052659906446933746,-2.642235279083252,1021.22876,
2021.01.10 21:24:10,1.0,27.0,21.96,-40.26,-21.3,-0.38787252,1.2186859,9.964972,-0.0084470445,5.0396385E-4,-4.9663347E-4,-0.12160149216651917,0.03890395909547806,-2.6262238025665283,1021.2368,
2021.01.10 21:24:10,1.0,27.0,22.08,-39.96,-21.24,-0.39505535,1.2234744,9.866806,-0.022496944,-0.006826419,0.010498942,-0.12327152490615845,0.04001745209097862,-2.620310068130493,1021.2368,
2021.01.10 21:24:10,1.0,27.0,21.6,-40.02,-21.48,-0.45730647,1.1875603,9.921875,0.003159395,-0.009880745,0.007444615,-0.11899928003549576,0.046058133244514465,-2.6346423625946045,1021.2368,
2021.01.10 21:24:10,1.0,27.0,21.6,-40.14,-22.02,-0.3998439,1.2330515,9.957788,0.0019376645,0.0047800206,-0.0017183638,-0.12310250103473663,0.040132325142621994,-2.631857395172119,1021.24536,
2021.01.10 21:24:10,1.0,27.0,21.42,-40.14,-22.199999,-0.37829542,1.2043202,9.873989,-0.022496944,-0.0074372846,0.0025576928,-0.12128138542175293,0.038293588906526566,-2.6352293491363525,1021.24536,
2021.01.10 21:24:11,1.0,27.0,21.779999,-40.079998,-21.84,-0.3902668,1.2210802,9.957788,1.0506882E-4,-1.0690142E-4,0.006222884,-0.12192379683256149,0.03917206823825836,-2.627528667449951,1021.23535,
2021.01.10 21:24:11,1.0,27.0,21.96,-40.5,-21.9,-0.48843205,1.2306572,9.8548355,0.005602856,0.012721268,-0.00477269,-0.12408462166786194,0.04952215775847435,-2.6324360370635986,1021.2383,
2021.01.10 21:24:11,1.0,27.0,22.02,-40.02,-22.14,-0.43575802,1.23784,9.91948,-0.0060035833,-1.0690142E-4,0.005001154,-0.12402865290641785,0.043901294469833374,-2.6231391429901123,1021.2383,
2021.01.10 21:24:11,1.0,27.0,21.84,-39.6,-21.9,-0.38787252,1.2665714,9.924269,-0.0023383922,0.004169155,0.0019468275,-0.12684163451194763,0.03906335309147835,-2.6190402507781982,1021.2407,
2021.01.10 21:24:11,1.0,27.0,22.08,-40.02,-21.9,-0.47885495,1.2258687,9.885961,0.0037702604,0.002947425,1.142318E-4,-0.12322819977998734,0.048400044441223145,-2.6242692470550537,1021.2407,
2021.01.10 21:24:11,1.0,27.0,21.72,-39.66,-21.72,-0.4740664,1.2809371,9.873989,-0.0060035833,0.0023365596,-4.9663347E-4,-0.12886114418506622,0.04797479882836342,-2.625598907470703,1021.2405,
2021.01.10 21:24:11,1.0,27.0,21.539999,-39.6,-21.119999,-0.31604427,1.2474172,10.032011,-0.010279641,-0.0074372846,0.0031685582,-0.12364799529314041,0.0314931645989418,-2.6236002445220947,1021.24,
2021.01.10 21:24:11,1.0,27.0,22.32,-39.899998,-21.24,-0.44294083,1.1947432,9.771035,0.0068245865,-0.00926988,-0.0017183638,-0.12154641002416611,0.04530101269483566,-2.6174862384796143,1021.24,
2021.01.10 21:24:11,1.0,27.0,21.6,-39.48,-21.0,-0.45251793,1.2402344,10.005674,0.009268047,0.00355829,-0.02676384,-0.12319941073656082,0.045195333659648895,-2.6269659996032715,1021.2417,
2021.01.10 21:24:11,1.0,27.0,21.3,-39.239998,-20.22,-0.45970076,1.2426286,9.79019,-0.020053484,-0.015989399,-0.015157399,-0.12611332535743713,0.0469207838177681,-2.630657196044922,1021.2417,
2021.01.10 21:24:11,1.0,27.0,20.939999,-39.239998,-19.56,-0.45012367,1.2546,9.90272,-0.007836179,-0.0013286319,-0.012713939,-0.12589246034622192,0.04542328044772148,-2.6380302906036377,1021.24097,
2021.01.10 21:24:11,1.0,27.0,20.16,-38.879997,-19.14,-0.47167215,1.2713599,9.964972,-0.010890506,-0.0062155537,-0.0011074987,-0.1267569363117218,0.04729771614074707,-2.6512858867645264,1021.2339,
2021.01.10 21:24:11,1.0,27.0,20.16,-38.64,-19.02,-0.44772938,1.1875603,9.905115,0.008046317,5.0396385E-4,-0.0029400946,-0.11920351535081863,0.04517108574509621,-2.6498708724975586,1021.2339,
2021.01.10 21:24:11,1.0,27.0,19.98,-38.76,-19.26,-0.39266106,1.2091088,9.90272,0.0043811253,-0.012935072,0.00805548,-0.1214028149843216,0.03963107615709305,-2.6521644592285156,1021.2312,
2021.01.10 21:24:11,1.0,27.0,20.16,-38.64,-19.38,-0.41420954,1.1947432,9.912297,-0.013333966,-0.0031612278,0.008666346,-0.11984916031360626,0.041763145476579666,-2.648144006729126,1021.2312,
2021.01.10 21:24:11,1.0,27.0,19.74,-38.76,-19.68,-0.40463245,1.2210802,9.905115,-0.006614449,-0.00804815,0.009277211,-0.12255766987800598,0.0408281534910202,-2.657325029373169,1021.23096,
2021.01.10 21:24:12,1.0,27.0,19.74,-39.0,-19.56,-0.4668836,1.2091088,9.859624,-0.0047818534,-0.0056046885,0.0031685582,-0.12188786268234253,0.0473177395761013,-2.662997245788574,1021.2295,
2021.01.10 21:24:12,1.0,27.0,19.74,-39.18,-19.619999,-0.32801566,1.1995317,9.979338,-0.0047818534,-0.0031612278,0.0019468275,-0.11956363916397095,0.03285765275359154,-2.659635305404663,1021.2295,
2021.01.10 21:24:12,1.0,27.0,19.74,-39.42,-19.92,-0.34956414,1.201926,9.90272,-0.005392718,-0.011102476,0.0031685582,-0.12070806324481964,0.035285159945487976,-2.662806510925293,1021.23413,
2021.01.10 21:24:12,1.0,27.0,20.279999,-39.0,-19.56,-0.45970076,1.1971374,9.885961,0.005602856,-0.0019394971,-0.009048747,-0.12037912011146545,0.0464668907225132,-2.651381731033325,1021.23413,
2021.01.10 21:24:12,1.0,27.0,19.8,-38.7,-19.32,-0.36392978,1.2067145,9.991309,0.010489778,0.007834347,-0.011492208,-0.12011536210775375,0.03640853613615036,-2.654400110244751,1021.2334,
2021.01.10 21:24:12,1.0,27.0,19.74,-38.7,-19.32,-0.39266106,1.23784,9.857229,0.010489778,5.0396385E-4,-0.012103073,-0.12482499331235886,0.03981378301978111,-2.655766010284424,1021.2324,
2021.01.10 21:24:12,1.0,27.0,19.439999,-38.52,-19.439999,-0.4070267,1.2474172,9.972155,0.0049919905,0.0017256943,-0.010270477,-0.12434118241071701,0.040793683379888535,-2.6607728004455566,1021.2324,
2021.01.10 21:24:12,1.0,27.0,19.199999,-39.0,-19.56,-0.46927786,1.2522057,9.864412,0.015987566,0.0145538645,-0.0059944205,-0.1261252909898758,0.04753697291016579,-2.673746347427368,1021.2334,
2021.01.10 21:24:12,1.0,27.0,19.38,-39.239998,-20.16,-0.3974496,1.1995317,9.945818,-0.0029492574,0.002947425,-0.006605286,-0.11993209272623062,0.039940230548381805,-2.670689344406128,1021.2334,
2021.01.10 21:24:12,1.0,27.0,19.32,-39.12,-19.92,-0.35914123,1.2306572,9.962578,0.014154969,0.0047800206,-0.0011074987,-0.12282638251781464,0.036033425480127335,-2.6683104038238525,1021.23535,
2021.01.10 21:24:12,1.0,27.0,19.619999,-39.3,-19.8,-0.43096948,1.2450229,9.871595,-0.0047818534,0.0011148291,-0.0017183638,-0.12534117698669434,0.04362982511520386,-2.6663286685943604,1021.2285,
2021.01.10 21:24:12,1.0,27.0,19.199999,-39.059998,-19.74,-0.4070267,1.2426286,9.943423,0.003159395,-0.0056046885,-0.00477269,-0.12422239035367966,0.04091142490506172,-2.672051429748535,1021.2285,
2021.01.10 21:24:12,1.0,27.0,19.08,-38.94,-19.98,-0.4285752,1.2641771,9.864412,-0.007225314,-0.0025503624,-0.0029400946,-0.12734174728393555,0.04341929778456688,-2.673452615737915,1021.2285,
2021.01.10 21:24:12,1.0,27.0,19.5,-39.12,-20.22,-0.34716985,1.2713599,9.972155,7.1593403E-4,-0.0074372846,7.250971E-4,-0.12673094868659973,0.03479987010359764,-2.6625490188598633,1021.2285,
2021.01.10 21:24:12,1.0,27.0,19.26,-38.94,-19.8,-0.42378664,1.2234744,9.895537,-0.0035601228,-0.0062155537,-0.0029400946,-0.12290318310260773,0.04279988259077072,-2.6705501079559326,1021.2383,
2021.01.10 21:24:12,1.0,27.0,19.32,-39.3,-19.92,-0.3998439,1.2617828,9.90272,0.0019376645,0.002947425,-0.0041618245,-0.12663279473781586,0.04035525396466255,-2.6710617542266846,1021.2346,
2021.01.10 21:24:12,1.0,27.0,19.439999,-39.42,-19.38,-0.409421,1.2306572,9.941029,-0.004170988,-0.0025503624,-0.0041618245,-0.12306582927703857,0.041161708533763885,-2.671358823776245,1021.2346,
2021.01.10 21:24:13,1.0,27.0,19.439999,-39.239998,-18.9,-0.3902668,1.2354459,9.890749,0.0043811253,0.0023365596,-0.0078270165,-0.12416999787092209,0.03943730145692825,-2.6686153411865234,1021.23315,
2021.01.10 21:24:13,1.0,27.0,19.38,-39.48,-19.199999,-0.37590113,1.2474172,9.873989,-0.004170988,-0.011102476,-0.0035509595,-0.125577911734581,0.038051459938287735,-2.6714508533477783,1021.23315,
2021.01.10 21:24:13,1.0,27.0,19.439999,-39.239998,-18.96,-0.43096948,1.2330515,9.921875,-0.0035601228,-0.0074372846,-0.0011074987,-0.12352683395147324,0.04340900480747223,-2.6703617572784424,1021.2295,
2021.01.10 21:24:13,1.0,27.0,19.32,-39.059998,-19.02,-0.34956414,1.2234744,9.976943,0.0043811253,-0.0037720928,-0.0017183638,-0.12194687128067017,0.03502287343144417,-2.6679999828338623,1021.23804,
2021.01.10 21:24:13,1.0,27.0,19.02,-38.64,-18.96,-0.37111259,1.2354459,9.943423,-0.012112236,-0.0104916105,0.0031685582,-0.12352891266345978,0.03730510175228119,-2.670450448989868,1021.23804,
2021.01.10 21:24:13,1.0,27.0,19.14,-38.46,-18.6,-0.35435268,1.2210802,9.93624,0.009878913,-0.0049938234,-0.0017183638,-0.12220156192779541,0.035647545009851456,-2.665675640106201,1021.23804,
2021.01.10 21:24:13,1.0,27.0,18.779999,-38.46,-18.66,-0.32801566,1.2641771,9.816526,0.012933239,-0.00804815,-4.9663347E-4,-0.12800492346286774,0.0334022082388401,-2.6711513996124268,1021.23804,
2021.01.10 21:24:13,1.0,27.0,18.96,-38.579998,-18.779999,-0.4189981,1.2138973,9.871595,-0.0011166617,-0.0025503624,-0.0059944205,-0.12224548310041428,0.04241935908794403,-2.673642635345459,1021.2351,
2021.01.10 21:24:13,1.0,27.0,19.14,-39.059998,-19.02,-0.3328042,1.2234744,10.015251,0.0013267993,0.002947425,-0.0053835553,-0.1214924305677414,0.03321751952171326,-2.6713247299194336,1021.23,
2021.01.10 21:24:13,1.0,27.0,19.32,-39.0,-19.199999,-0.37350687,1.2306572,9.8787775,-5.0579646E-4,-1.0690142E-4,-0.0029400946,-0.1238497719168663,0.03779101371765137,-2.6678354740142822,1021.23,
2021.01.10 21:24:13,1.0,27.0,19.5,-39.48,-19.56,-0.39505535,1.1971374,9.943423,0.008046317,0.010277809,-0.0017183638,-0.11972464621067047,0.0397094301879406,-2.670945644378662,1021.2317,
2021.01.10 21:24:13,1.0,27.0,19.439999,-39.36,-19.439999,-0.38068968,1.2737542,9.957788,-0.0023383922,-0.0013286319,-0.0023292291,-0.1271326094865799,0.03821173310279846,-2.6683316230773926,1021.2317,
2021.01.10 21:24:13,1.0,27.0,19.32,-38.94,-19.32,-0.35435268,1.185166,9.929058,0.0013267993,0.002947425,-0.0029400946,-0.11872642487287521,0.03567330911755562,-2.667639970779419,1021.23926,
2021.01.10 21:24:13,1.0,27.0,19.439999,-38.82,-19.26,-0.35914123,1.2186859,9.888355,0.0062137214,-0.0019394971,1.142318E-4,-0.12254618108272552,0.03630365431308746,-2.6629152297973633,1021.2407,
2021.01.10 21:24:13,1.0,27.0,19.74,-38.28,-18.96,-0.38308397,1.2258687,9.933846,0.0068245865,0.006001751,-0.006605286,-0.12269219011068344,0.03854440897703171,-2.651231288909912,1021.2407,
2021.01.10 21:24:13,1.0,27.0,20.039999,-38.34,-18.9,-0.39266106,1.2522057,9.897932,0.034313522,0.04692972,-0.009048747,-0.12574544548988342,0.03965022787451744,-2.644987106323242,1021.2429,
2021.01.10 21:24:13,1.0,27.0,20.039999,-38.82,-18.84,-0.43815228,1.2593886,9.840469,-0.0017275269,0.013332134,-0.008437881,-0.12716396152973175,0.04449616000056267,-2.652097225189209,1021.2429,
2021.01.10 21:24:14,1.0,27.0,19.68,-39.0,-18.3,-0.40463245,1.2569942,9.976943,0.005602856,0.002947425,-0.0041618245,-0.125227689743042,0.04053454101085663,-2.6611971855163574,1021.23755,
2021.01.10 21:24:14,1.0,27.0,19.74,-39.12,-18.24,-0.43096948,1.2641771,9.914692,-0.004170988,0.002947425,-0.0035509595,-0.12670275568962097,0.04344041645526886,-2.661993980407715,1021.2324,
2021.01.10 21:24:14,1.0,27.0,19.74,-39.36,-18.66,-0.44294083,1.228263,9.838076,0.009268047,-0.0043829577,-0.00477269,-0.12408080697059631,0.044992733746767044,-2.6657817363739014,1021.2324,
2021.01.10 21:24:14,1.0,27.0,19.8,-39.059998,-18.84,-0.42378664,1.2905141,10.010463,0.0013267993,0.010277809,-0.0053835553,-0.12809590995311737,0.04230910912156105,-2.6588923931121826,1021.23364,
2021.01.10 21:24:14,1.0,27.0,19.98,-39.0,-19.439999,-0.40223816,1.2857256,9.950606,-0.007225314,-0.0013286319,0.0019468275,-0.12839512526988983,0.04040148854255676,-2.653118848800659,1021.23364,
2021.01.10 21:24:14,1.0,27.0,19.38,-39.239998,-19.26,-0.49082634,1.2402344,9.802161,0.0043811253,-0.0043829577,0.0068337494,-0.12570200860500336,0.05003149062395096,-2.673691749572754,1021.2285,
2021.01.10 21:24:14,1.0,27.0,19.08,-38.94,-18.6,-0.45012367,1.3144568,9.945818,-0.010279641,-0.0037720928,0.0031685582,-0.13126742839813232,0.045226722955703735,-2.67374849319458,1021.23364,
2021.01.10 21:24:14,1.0,27.0,19.56,-39.12,-18.42,-0.41420954,1.2306572,9.91948,-0.01150137,-0.0037720928,7.250971E-4,-0.12332756817340851,0.04173293709754944,-2.666053295135498,1021.23364,
2021.01.10 21:24:14,1.0,27.0,19.38,-38.879997,-18.48,-0.37829542,1.2498114,9.8548355,-0.006614449,-0.0049938234,0.0037794232,-0.12605683505535126,0.03836794197559357,-2.6652231216430664,1021.23047,
2021.01.10 21:24:14,1.0,27.0,19.619999,-38.64,-18.66,-0.3998439,1.2713599,9.828498,-0.01150137,-0.0043829577,0.0031685582,-0.1285349726676941,0.04065967723727226,-2.6573805809020996,1021.23047,
2021.01.10 21:24:14,1.0,27.0,19.68,-38.64,-19.199999,-0.37350687,1.23784,9.859624,0.014154969,-7.1776664E-4,0.0025576928,-0.12480433285236359,0.037864360958337784,-2.6556694507598877,1021.2229,
2021.01.10 21:24:14,1.0,27.0,19.38,-38.64,-19.08,-0.43815228,1.2761484,9.931452,7.1593403E-4,0.004169155,-0.009048747,-0.12767253816127777,0.04408905655145645,-2.664064407348633,1021.2217,
2021.01.10 21:24:14,1.0,27.0,19.26,-38.82,-18.66,-0.3328042,1.2522057,9.931452,-0.010890506,-0.006826419,-0.0053835553,-0.1253533959388733,0.03349759057164192,-2.6653354167938232,1021.2217,
2021.01.10 21:24:14,1.0,27.0,19.56,-39.239998,-18.66,-0.37111259,1.211503,9.842864,0.011100643,-0.0019394971,-0.008437881,-0.12238232791423798,0.03768586739897728,-2.6659252643585205,1021.23267,
2021.01.10 21:24:14,1.0,27.0,19.8,-39.12,-18.24,-0.45970076,1.2450229,9.883567,0.007435452,-0.0031612278,-0.012103073,-0.12517504394054413,0.04647812992334366,-2.662277936935425,1021.2388,
2021.01.10 21:24:14,1.0,27.0,19.68,-39.059998,-18.72,-0.36632404,1.2809371,9.929058,0.0049919905,0.0017256943,-0.012103073,-0.1282140016555786,0.03687741234898567,-2.6593844890594482,1021.2388,
2021.01.10 21:24:15,1.0,27.0,19.98,-39.239998,-18.779999,-0.3615355,1.2641771,9.979338,-0.0011166617,-0.009880745,-0.0035509595,-0.12592653930187225,0.03621256723999977,-2.6552646160125732,1021.24023,
2021.01.10 21:24:15,1.0,27.0,20.22,-38.76,-19.08,-0.4189981,1.2234744,9.862018,0.017209295,-0.0049938234,-0.00477269,-0.12331847846508026,0.04246050491929054,-2.647671699523926,1021.24023,
2021.01.10 21:24:15,1.0,27.0,19.98,-39.18,-19.439999,-0.38068968,1.2474172,9.873989,-0.009668776,-0.00804815,-0.0017183638,-0.12557561695575714,0.0385357141494751,-2.655203342437744,1021.23535,
2021.01.10 21:24:15,1.0,27.0,20.16,-39.059998,-19.8,-0.3998439,1.2426286,9.871595,-0.004170988,-0.011102476,0.0037794232,-0.12511904537677765,0.040482357144355774,-2.650688409805298,1021.23535,
2021.01.10 21:24:15,1.0,27.0,19.98,-38.64,-20.279999,-0.36392978,1.23784,9.893144,0.0062137214,0.0017256943,0.0068337494,-0.1243908628821373,0.036769479513168335,-2.648115873336792,1021.24097,
2021.01.10 21:24:15,1.0,27.0,19.74,-38.7,-20.039999,-0.3232271,1.2186859,9.957788,1.0506882E-4,-0.0019394971,0.007444615,-0.12171611934900284,0.032448336482048035,-2.6531405448913574,1021.2322,
2021.01.10 21:24:15,1.0,27.0,19.439999,-38.219997,-20.039999,-0.41181526,1.2306572,9.91948,-0.010890506,-7.1776664E-4,0.0025576928,-0.1233288049697876,0.04149198159575462,-2.6576108932495117,1021.2322,
2021.01.10 21:24:15,1.0,27.0,19.14,-38.219997,-19.68,-0.29689008,1.2546,9.955395,0.0037702604,0.0023365596,0.004390288,-0.1253061443567276,0.029813192784786224,-2.6589252948760986,1021.2334,
2021.01.10 21:24:15,1.0,27.0,19.32,-38.64,-19.5,-0.3328042,1.228263,9.885961,-0.010890506,-0.014156803,0.004390288,-0.12354046106338501,0.03365161642432213,-2.6619904041290283,1021.2334,
2021.01.10 21:24:15,1.0,27.0,19.32,-38.46,-19.5,-0.4070267,1.2881198,9.905115,0.0153767,-0.00804815,1.142318E-4,-0.12921231985092163,0.04106947034597397,-2.661426305770874,1021.23926,
2021.01.10 21:24:15,1.0,27.0,19.38,-38.7,-19.32,-0.3998439,1.1779832,9.991309,0.012322374,0.0011148291,-0.0035509595,-0.11726599186658859,0.03999782353639603,-2.6658377647399902,1021.2417,
2021.01.10 21:24:15,1.0,27.0,19.56,-39.0,-19.38,-0.36871833,1.2713599,9.797373,0.012322374,-0.0013286319,-0.0017183638,-0.12895400822162628,0.037616655230522156,-2.660984992980957,1021.2417,
2021.01.10 21:24:15,1.0,27.0,19.56,-38.879997,-19.26,-0.34956414,1.3024855,9.972155,-0.0035601228,-0.0013286319,0.007444615,-0.12979818880558014,0.03503967449069023,-2.6584179401397705,1021.24634,
2021.01.10 21:24:15,1.0,27.0,19.56,-39.3,-19.02,-0.31125572,1.1899546,9.93624,0.0062137214,0.007223482,0.007444615,-0.11913350969552994,0.03131506219506264,-2.664726495742798,1021.24634,
2021.01.10 21:24:15,1.0,27.0,19.98,-39.3,-18.779999,-0.4070267,1.3479767,9.907509,0.007435452,0.004169155,-0.00477269,-0.1351131647825241,0.04105955734848976,-2.6552822589874268,1021.24976,
2021.01.10 21:24:15,1.0,27.0,19.859999,-39.059998,-18.6,-0.2681588,1.2091088,9.888355,0.014765834,-0.012935072,0.0013359623,-0.12162775546312332,0.027112001553177834,-2.653594970703125,1021.2444,
2021.01.10 21:24:15,1.0,27.0,19.5,-39.059998,-18.42,-0.36392978,1.297697,9.802161,0.009878913,0.006612616,-0.0017183638,-0.13153386116027832,0.037110455334186554,-2.6626791954040527,1021.2444,
2021.01.10 21:24:16,1.0,27.0,19.439999,-38.82,-18.3,-0.3519584,1.2809371,9.996098,-0.00905791,0.008445213,-0.0023292291,-0.12737105786800385,0.035195041447877884,-2.661759853363037,1021.2366,
2021.01.10 21:24:16,1.0,27.0,19.32,-39.059998,-18.66,-0.40223816,1.2953026,9.785401,0.012933239,0.0011148291,-0.006605286,-0.13149602711200714,0.04108281433582306,-2.6680376529693604,1021.2366,
2021.01.10 21:24:16,1.0,27.0,19.74,-39.18,-18.6,-0.40223816,1.3719195,9.905115,0.012322374,-1.0690142E-4,-0.0041618245,-0.13751859962940216,0.04058683291077614,-2.65838623046875,1021.2307,
2021.01.10 21:24:16,1.0,27.0,19.68,-39.059998,-19.08,-0.3304099,1.2953026,9.945818,0.005602856,0.0023365596,0.005001154,-0.12943635880947113,0.03320877626538277,-2.6573400497436523,1021.2263,
2021.01.10 21:24:16,1.0,27.0,19.439999,-39.0,-19.5,-0.38068968,1.2737542,9.866806,0.0025485298,-0.0049938234,0.005612019,-0.12829042971134186,0.03856373950839043,-2.6641125679016113,1021.2263,
2021.01.10 21:24:16,1.0,27.0,19.14,-38.82,-19.199999,-0.4285752,1.3048798,9.885961,0.0068245865,0.002947425,-0.0053835553,-0.13111285865306854,0.04332477226853371,-2.670055627822876,1021.23,
2021.01.10 21:24:16,1.0,27.0,18.359999,-38.82,-19.26,-0.3974496,1.3623424,9.941029,0.008046317,0.00355829,-0.012103073,-0.1360866278409958,0.03995944932103157,-2.6846678256988525,1021.23,
2021.01.10 21:24:16,1.0,27.0,18.3,-38.94,-19.14,-0.33759275,1.3551595,9.967366,0.008657183,0.0017256943,-0.009659612,-0.1350545585155487,0.03385686129331589,-2.685131311416626,1021.2361,
2021.01.10 21:24:16,1.0,27.0,18.3,-39.239998,-18.9,-0.44294083,1.2881198,9.814133,-0.007225314,-0.0043829577,-0.0023292291,-0.13037431240081787,0.04510234668850899,-2.694439649581909,1021.2395,
2021.01.10 21:24:16,1.0,27.0,18.42,-39.059998,-18.84,-0.44054657,1.3551595,9.914692,0.0019376645,0.0053908858,-0.010881343,-0.13570794463157654,0.04440450668334961,-2.6881260871887207,1021.2395,
2021.01.10 21:24:16,1.0,27.0,18.539999,-38.94,-18.42,-0.37829542,1.2474172,10.0200405,-0.017610023,0.016997326,-0.006605286,-0.12376772612333298,0.0377359613776207,-2.684799909591675,1021.24,
2021.01.10 21:24:16,1.0,27.0,18.72,-38.879997,-18.119999,-0.37829542,1.3431882,9.771035,0.0062137214,-0.0043829577,0.005001154,-0.13650910556316376,0.03869667649269104,-2.677341938018799,1021.24,
2021.01.10 21:24:16,1.0,27.0,18.84,-38.879997,-18.06,-0.38068968,1.2905141,9.859624,0.012933239,-0.0037720928,0.0025576928,-0.1300530880689621,0.03859180584549904,-2.6763806343078613,1021.23315,
2021.01.10 21:24:16,1.0,27.0,19.32,-39.18,-18.24,-0.339987,1.2354459,9.9889145,-0.006614449,0.009666943,0.004390288,-0.12298625707626343,0.03402329981327057,-2.66912841796875,1021.23413,
2021.01.10 21:24:16,1.0,27.0,19.5,-39.239998,-18.359999,-0.4070267,1.3551595,9.90272,-0.0023383922,0.00355829,-0.010270477,-0.13588906824588776,0.04107939451932907,-2.665081739425659,1021.23413,
2021.01.10 21:24:16,1.0,27.0,19.56,-39.18,-18.66,-0.32562137,1.2067145,9.814133,0.010489778,-0.006826419,0.0025576928,-0.12227612733840942,0.03316665440797806,-2.6635184288024902,1021.2329,
2021.01.10 21:24:16,1.0,27.0,19.56,-39.12,-19.14,-0.44054657,1.2953026,10.0200405,-0.016999159,-1.0690142E-4,-0.011492208,-0.12843553721904755,0.04393824562430382,-2.665199041366577,1021.2329,
2021.01.10 21:24:17,1.0,27.0,19.439999,-39.0,-19.199999,-0.41420954,1.2546,9.869201,-0.0023383922,-0.00926988,-0.013324804,-0.1263345181941986,0.04194530099630356,-2.6662240028381348,1021.2339,
2021.01.10 21:24:17,1.0,27.0,19.98,-38.94,-19.74,-0.4070267,1.2857256,9.871595,-0.0029492574,-0.0025503624,-0.0072161513,-0.1294071525335312,0.041208770126104355,-2.652294635772705,1021.23755,
2021.01.10 21:24:17,1.0,27.0,20.22,-39.239998,-19.74,-0.36871833,1.2785428,9.984126,-0.013944832,0.0011148291,-4.9663347E-4,-0.12727853655815125,0.0369136817753315,-2.649387836456299,1021.23755,
2021.01.10 21:24:17,1.0,27.0,20.1,-39.36,-18.9,-0.37829542,1.2809371,9.859624,0.007435452,-0.011713341,-0.00477269,-0.12909987568855286,0.03834932669997215,-2.653921127319336,1021.2388,
2021.01.10 21:24:17,1.0,27.0,19.8,-39.3,-18.72,-0.44054657,1.3048798,9.981731,0.013544105,-0.0074372846,-0.009659612,-0.1298646479845047,0.04410666599869728,-2.6618661880493164,1021.2388,
2021.01.10 21:24:17,1.0,27.0,19.68,-39.36,-18.66,-0.39505535,1.2665714,9.974549,-0.012723101,-0.00804815,0.0019468275,-0.12620647251605988,0.03958564251661301,-2.6643757820129395,1021.24,
2021.01.10 21:24:17,1.0,27.0,19.619999,-39.0,-18.72,-0.33519846,1.2498114,9.888355,-0.004170988,-0.006826419,0.0031685582,-0.1256541758775711,0.03388532996177673,-2.6595375537872314,1021.2368,
2021.01.10 21:24:17,1.0,27.0,20.039999,-38.64,-19.38,-0.36392978,1.2498114,9.976943,0.0025485298,-1.0690142E-4,-0.0023292291,-0.1245388314127922,0.03646092116832733,-2.647230386734009,1021.2368,
2021.01.10 21:24:17,1.0,27.0,19.859999,-38.94,-19.56,-0.42378664,1.2713599,9.90272,-0.0035601228,-0.0019394971,-0.0072161513,-0.12757092714309692,0.04276887699961662,-2.6561858654022217,1021.23315,
2021.01.10 21:24:17,1.0,27.0,19.8,-38.76,-19.439999,-0.30886146,1.2761484,9.895537,-0.006614449,-0.009880745,-0.0029400946,-0.12819238007068634,0.03120206668972969,-2.6505846977233887,1021.23315,
2021.01.10 21:24:17,1.0,27.0,19.56,-38.7,-19.5,-0.34716985,1.2857256,9.893144,0.0068245865,-0.0019394971,-0.0017183638,-0.12915831804275513,0.035077571868896484,-2.6563947200775146,1021.23315,
2021.01.10 21:24:17,1.0,27.0,19.08,-38.579998,-19.02,-0.30167863,1.2809371,9.972155,0.009878913,-0.0074372846,-0.0059944205,-0.1276940405368805,0.030242877081036568,-2.664386034011841,1021.2334,
2021.01.10 21:24:17,1.0,27.0,19.439999,-38.579998,-18.96,-0.45012367,1.324034,9.845258,-0.007225314,-0.011102476,-0.00477269,-0.13354451954364777,0.04568803310394287,-2.66110897064209,1021.2334,
2021.01.10 21:24:17,1.0,27.0,18.96,-38.64,-18.96,-0.3328042,1.2833313,9.943423,0.0013267993,-0.0031612278,-0.006605286,-0.12828274071216583,0.03345729038119316,-2.668905019760132,1021.2373,
2021.01.10 21:24:17,1.0,27.0,18.9,-38.82,-18.96,-0.33519846,1.3312168,9.93624,-0.013333966,-0.0062155537,0.0025576928,-0.1331080049276352,0.033722151070833206,-2.671025276184082,1021.24243,
2021.01.10 21:24:17,1.0,27.0,19.439999,-39.0,-19.26,-0.37829542,1.2593886,9.871595,0.012322374,-0.0019394971,-0.0041618245,-0.12679946422576904,0.038302868604660034,-2.664567708969116,1021.24243,
2021.01.10 21:24:18,1.0,27.0,19.38,-38.7,-19.199999,-0.37350687,1.3312168,9.91948,-0.0017275269,0.0011148291,-0.0029400946,-0.13331183791160583,0.03763609379529953,-2.660423755645752,1021.2346,
2021.01.10 21:24:18,1.0,27.0,19.619999,-38.879997,-18.84,-0.35674694,1.2450229,9.794978,0.0025485298,-0.0049938234,0.0013359623,-0.12634742259979248,0.03640532121062279,-2.6589105129241943,1021.2346,
2021.01.10 21:24:18,1.0,27.0,19.8,-39.3,-18.9,-0.36871833,1.3072741,9.967366,-0.0047818534,-0.0104916105,0.0013359623,-0.13032293319702148,0.036975692957639694,-2.658818006515503,1021.23413,
2021.01.10 21:24:18,1.0,27.0,19.859999,-39.12,-18.779999,-0.3423813,1.2593886,9.847652,0.0019376645,-0.0031612278,-0.0011074987,-0.1271207630634308,0.03475381061434746,-2.6555962562561035,1021.23755,
2021.01.10 21:24:18,1.0,27.0,20.039999,-39.18,-18.96,-0.3328042,1.2593886,9.924269,-0.0060035833,-0.0025503624,0.006222884,-0.1261550486087799,0.03352181613445282,-2.6520631313323975,1021.23755,
2021.01.10 21:24:18,1.0,27.0,19.98,-39.18,-19.199999,-0.3519584,1.2713599,9.953,-0.012723101,0.010277809,1.142318E-4,-0.1269698292016983,0.035347308963537216,-2.6536777019500732,1021.22925,
2021.01.10 21:24:18,1.0,27.0,19.859999,-38.579998,-19.26,-0.31125572,1.2546,9.862018,-0.0029492574,-1.0690142E-4,0.0013359623,-0.1264733523130417,0.031550586223602295,-2.6479837894439697,1021.22925,
2021.01.10 21:24:18,1.0,27.0,19.439999,-38.7,-19.08,-0.39266106,1.297697,9.964972,-0.0029492574,-0.0025503624,0.005612019,-0.12939780950546265,0.03938375785946846,-2.6610071659088135,1021.228,
2021.01.10 21:24:18,1.0,27.0,19.08,-38.64,-18.6,-0.31604427,1.1684061,9.883567,-0.0017275269,-0.0056046885,0.0068337494,-0.1176113560795784,0.03196584805846214,-2.6687793731689453,1021.228,
2021.01.10 21:24:18,1.0,27.0,19.5,-38.579998,-18.359999,-0.31125572,1.228263,9.931452,0.022096219,0.013332134,-0.008437881,-0.1229894682765007,0.03133014962077141,-2.657381534576416,1021.228,
2021.01.10 21:24:18,1.0,27.0,19.5,-38.82,-17.76,-0.6464542,1.2665714,8.693612,-0.012112236,-0.009880745,7.250971E-4,-0.14427921175956726,0.07422307878732681,-2.671278238296509,1021.22705,
2021.01.10 21:24:18,1.0,27.0,19.439999,-38.7,-17.88,-0.14365649,1.5347302,10.398335,-0.0029492574,-0.0043829577,-0.0017183638,-0.14652211964130402,0.013814456760883331,-2.647595167160034,1021.22705,
