Time,X-cord,Y-cord,Mag_x,Mag_y,Mag_z,Acc_x,Acc_y,Acc_z,Gyro_x,Gyro_y,Gyro_z,Orn_x,Orn_y,Orn_z,Pressure,
2021.01.10 21:27:09,10.0,24.0,23.82,-3.9599998,-33.3,-0.38547826,0.90982443,9.718362,-0.07197703,-0.027595837,-0.006605286,-0.09327411651611328,0.039644159376621246,-1.6044009923934937,1021.30493,
2021.01.10 21:27:09,10.0,24.0,24.18,-3.54,-33.6,-0.31125572,0.749408,9.974549,0.071576305,-0.0025503624,-0.034094222,-0.07495477050542831,0.031194869428873062,-1.612237811088562,1021.2949,
2021.01.10 21:27:09,10.0,24.0,24.9,-3.72,-34.079998,-0.30646718,0.7589851,9.778218,-0.042044632,-0.022708915,-0.024931245,-0.07742678374052048,0.031331565231084824,-1.6133289337158203,1021.2949,
2021.01.10 21:27:09,10.0,24.0,25.32,-4.2,-34.92,-0.33519846,0.81644773,10.168485,-0.07380962,-0.01843286,-0.049976718,-0.08007679134607315,0.03295251354575157,-1.6257189512252808,1021.29614,
2021.01.10 21:27:09,10.0,24.0,26.039999,-4.2,-36.36,-0.51955765,0.90503585,9.8237095,-0.038990308,0.009056077,-0.057917964,-0.09174088388681412,0.05283890292048454,-1.6010973453521729,1021.29614,
2021.01.10 21:27:09,10.0,24.0,26.46,-4.68,-37.14,-0.40223816,0.87151605,10.269045,-0.04387723,0.0023365596,-0.050587587,-0.08460081368684769,0.03914995491504669,-1.6283578872680664,1021.30225,
2021.01.10 21:27:09,10.0,24.0,26.22,-4.5,-37.26,-0.5243462,0.9577099,9.96976,-0.057316266,-0.0037720928,-0.03287249,-0.09563625603914261,0.052545249462127686,-1.6035939455032349,1021.3052,
2021.01.10 21:27:09,10.0,24.0,26.16,-4.3199997,-37.32,-0.25858167,0.749408,10.034406,0.019652756,0.009056077,-0.023709513,-0.07452080398797989,0.025763804093003273,-1.6294910907745361,1021.3052,
2021.01.10 21:27:10,10.0,24.0,26.099998,-4.38,-37.5,-0.70631105,0.9960183,9.890749,0.034313522,-0.0049938234,-0.05975056,-0.10011043399572372,0.0712902620434761,-1.589367151260376,1021.30225,
2021.01.10 21:27:10,10.0,24.0,26.279999,-4.38,-37.02,-0.55307746,0.9960183,9.996098,-0.004170988,-0.009880745,-0.047533255,-0.09916222840547562,0.05527298152446747,-1.5937467813491821,1021.30225,
2021.01.10 21:27:10,10.0,24.0,26.519999,-4.3199997,-37.32,-0.57462597,0.96489275,9.8787775,0.008657183,-0.034315355,-0.016989997,-0.09720119088888168,0.05810225382447243,-1.5927783250808716,1021.30444,
2021.01.10 21:27:10,10.0,24.0,26.88,-4.44,-37.5,-0.41420954,0.9074302,9.708784,0.053250343,-0.014156803,-0.012713939,-0.09310990571975708,0.042637523263692856,-1.6036792993545532,1021.3098,
2021.01.10 21:27:10,10.0,24.0,27.3,-4.62,-36.96,-0.505192,0.9337672,9.960183,-0.05181848,-0.031871896,-0.0011074987,-0.09335747361183167,0.05067772418260574,-1.6113332509994507,1021.3098,
2021.01.10 21:27:10,10.0,24.0,27.06,-4.56,-36.899998,-0.6153286,0.7589851,9.821315,-0.014555697,0.006001751,7.250971E-4,-0.0769757628440857,0.06257058680057526,-1.6348522901535034,1021.3096,
2021.01.10 21:27:10,10.0,24.0,26.76,-4.62,-36.36,-0.44294083,0.888276,10.28341,-0.06831183,0.013332134,-0.009659612,-0.086086206138134,0.0430467315018177,-1.62558913230896,1021.3096,
2021.01.10 21:27:10,10.0,24.0,26.64,-4.74,-36.48,-0.65363705,1.0127783,10.060742,-0.067700975,-0.0300393,-0.0292073,-0.10011870414018631,0.06487788259983063,-1.608149528503418,1021.3174,
2021.01.10 21:27:10,10.0,24.0,26.58,-4.38,-37.02,-0.46927786,1.1157321,10.012857,0.034924388,-0.10639745,0.005001154,-0.1108514592051506,0.046833258122205734,-1.5758179426193237,1021.31616,
2021.01.10 21:27:10,10.0,24.0,26.279999,-4.14,-37.2,-0.4166038,0.91700727,9.907509,0.07951755,-0.06546948,0.014774998,-0.09221282601356506,0.04202454164624214,-1.5950206518173218,1021.31616,
2021.01.10 21:27:10,10.0,24.0,26.039999,-4.02,-37.5,-0.44772938,0.90024734,9.783007,0.05630467,-0.006826419,-0.016989997,-0.09166769683361053,0.045734114944934845,-1.5899313688278198,1021.3069,
2021.01.10 21:27:10,10.0,24.0,25.74,-3.36,-37.26,-0.5243462,0.96489275,9.897932,0.027594006,0.0047800206,-0.01760086,-0.0970420092344284,0.052925851196050644,-1.5542470216751099,1021.3069,
2021.01.10 21:27:10,10.0,24.0,25.199999,-3.48,-37.44,-0.50758624,0.8786988,9.948212,-0.00905791,0.048762318,-0.01637913,-0.08798481523990631,0.050978656858205795,-1.5737230777740479,1021.31104,
2021.01.10 21:27:10,10.0,24.0,25.019999,-3.48,-37.44,-0.3998439,0.8547561,9.957788,-0.006614449,0.019440787,0.010498942,-0.08555945008993149,0.040132325142621994,-1.578653335571289,1021.3135,
2021.01.10 21:27:10,10.0,24.0,24.9,-2.9399998,-37.14,-0.3974496,0.888276,9.979338,-0.023107812,-0.009880745,0.028214034,-0.08870759606361389,0.03980621322989464,-1.551697015762329,1021.3135,
2021.01.10 21:27:10,10.0,24.0,24.48,-3.48,-36.96,-0.3902668,0.9026416,10.017646,-0.02188608,-0.00804815,0.026992302,-0.08979474008083344,0.0389382429420948,-1.5737794637680054,1021.3015,
2021.01.10 21:27:11,10.0,24.0,24.539999,-3.4199998,-36.719997,-0.38068968,0.84996754,9.93624,-0.03104906,-0.016600264,0.03249009,-0.0852721706032753,0.03829452395439148,-1.5795539617538452,1021.3015,
2021.01.10 21:27:11,10.0,24.0,24.6,-3.24,-36.66,-0.28731298,0.84996754,10.024829,-0.029827328,-0.015989399,0.03249009,-0.08454939723014832,0.028652295470237732,-1.5739524364471436,1021.3008,
2021.01.10 21:27:11,10.0,24.0,24.779999,-3.36,-36.6,-0.32562137,0.888276,10.1541195,-0.030438194,-0.013545937,0.033711817,-0.08721263706684113,0.03205692023038864,-1.574684977531433,1021.30444,
2021.01.10 21:27:11,10.0,24.0,25.08,-2.6399999,-36.36,-0.31843856,0.8140534,9.897932,-0.013333966,-0.0300393,0.03615528,-0.08201786875724792,0.03216113895177841,-1.5535483360290527,1021.30444,
2021.01.10 21:27:11,10.0,24.0,24.779999,-2.58,-36.18,-0.26097596,0.80687064,10.00328,0.007435452,-0.00804815,0.025770573,-0.0804591029882431,0.026083122938871384,-1.554549217224121,1021.3013,
2021.01.10 21:27:11,10.0,24.0,24.9,-2.52,-36.0,-0.1699935,0.87630457,10.194822,-0.0035601228,0.006001751,0.013553267,-0.08573322743177414,0.016672948375344276,-1.5458186864852905,1021.3013,
2021.01.10 21:27:11,10.0,24.0,25.019999,-2.34,-36.48,-0.29689008,0.7805336,9.797373,0.019652756,0.0011148291,0.0025576928,-0.0794634073972702,0.03029375895857811,-1.5447814464569092,1021.3059,
2021.01.10 21:27:11,10.0,24.0,25.08,-2.34,-36.719997,-0.35674694,0.7637737,9.993703,0.017820163,0.0011148291,-0.009048747,-0.07622885704040527,0.03568202257156372,-1.5485063791275024,1021.3047,
2021.01.10 21:27:11,10.0,24.0,25.199999,-2.46,-36.66,-0.19393626,0.88588166,9.991309,-0.01150137,-0.00804815,-0.006605286,-0.08841739594936371,0.019408056512475014,-1.5369360446929932,1021.3047,
2021.01.10 21:27:11,10.0,24.0,25.14,-2.8799999,-36.96,-0.35914123,0.82123625,9.967366,-0.0011166617,-0.0056046885,-0.009048747,-0.08215374499559402,0.036016128957271576,-1.5609188079833984,1021.3042,
2021.01.10 21:27:11,10.0,24.0,24.779999,-3.3,-36.96,-0.28013015,0.84039044,9.900327,0.02576141,0.004169155,-0.012713939,-0.08464840054512024,0.02828749269247055,-1.5752350091934204,1021.3042,
2021.01.10 21:27:11,10.0,24.0,24.72,-3.78,-36.84,-0.30646718,0.81644773,10.010463,-0.026162136,0.007834347,0.00805548,-0.08134137094020844,0.030605126172304153,-1.6010710000991821,1021.3069,
2021.01.10 21:27:11,10.0,24.0,24.539999,-3.6599998,-37.02,-0.24421602,0.7877164,9.933846,-0.035325114,0.022495113,0.012331536,-0.07910682260990143,0.024579284712672234,-1.5994174480438232,1021.29736,
2021.01.10 21:27:11,10.0,24.0,24.84,-3.84,-37.32,-0.32562137,0.85236186,10.192428,-0.027383868,0.002947425,-0.0017183638,-0.0833904966711998,0.031936515122652054,-1.5984444618225098,1021.29736,
2021.01.10 21:27:11,10.0,24.0,24.96,-3.6599998,-36.78,-0.31604427,0.85236186,9.917087,-0.02188608,5.0396385E-4,-0.0017183638,-0.0856948122382164,0.03185787796974182,-1.588969111442566,1021.29443,
2021.01.10 21:27:11,10.0,24.0,25.14,-3.24,-36.84,-0.3040729,0.81644773,10.1206,-0.0060035833,-0.014767668,0.006222884,-0.08046140521764755,0.03003591112792492,-1.5795034170150757,1021.29443,
2021.01.10 21:27:11,10.0,24.0,25.26,-3.12,-36.78,-0.3232271,0.8092649,9.885961,-5.0579646E-4,-0.022098051,0.011109806,-0.08163446933031082,0.032683927565813065,-1.5726561546325684,1021.2937,
2021.01.10 21:27:12,10.0,24.0,25.019999,-2.6399999,-36.059998,-0.30167863,0.7781393,9.943423,0.013544105,-0.015989399,0.015996728,-0.07806174457073212,0.03033020906150341,-1.560846209526062,1021.2949,
2021.01.10 21:27:12,10.0,24.0,25.019999,-2.46,-36.12,-0.2777359,0.8379962,9.98652,0.012322374,-0.0049938234,0.014164132,-0.08368440717458725,0.02780391089618206,-1.5447782278060913,1021.2949,
2021.01.10 21:27:12,10.0,24.0,24.84,-2.7,-36.059998,-0.27055305,0.82123625,9.938635,-5.0579646E-4,-0.0019394971,0.014774998,-0.08241300284862518,0.027215633541345596,-1.5568699836730957,1021.2859,
2021.01.10 21:27:12,10.0,24.0,24.84,-2.9399998,-36.12,-0.22266756,0.82602483,10.00328,0.014765834,0.006001751,0.006222884,-0.08236817270517349,0.022255780175328255,-1.5671972036361694,1021.2859,
2021.01.10 21:27:12,10.0,24.0,24.779999,-3.12,-35.7,-0.28970724,0.79250497,9.953,0.010489778,-0.009880745,-0.0017183638,-0.07942359894514084,0.02909931354224682,-1.58013916015625,1021.2903,
2021.01.10 21:27:12,10.0,24.0,24.6,-3.6599998,-35.88,-0.34477556,0.8332076,9.926663,0.013544105,0.006612616,-0.010270477,-0.08368980139493942,0.034718312323093414,-1.5955700874328613,1021.2925,
2021.01.10 21:27:12,10.0,24.0,24.24,-3.54,-35.34,-0.1987248,0.7853221,10.063137,0.011100643,0.002947425,-0.006605286,-0.07786652445793152,0.0197452325373888,-1.602376103401184,1021.2925,
2021.01.10 21:27:12,10.0,24.0,24.0,-3.06,-34.98,-0.3423813,0.7972935,9.895537,0.017209295,0.013942999,-0.01637913,-0.08034946769475937,0.03458576649427414,-1.5785936117172241,1021.29736,
2021.01.10 21:27:12,10.0,24.0,23.519999,-2.76,-35.04,-0.23224466,0.83081335,9.974549,0.011100643,0.00355829,-0.016989997,-0.08307909220457077,0.023279517889022827,-1.5619012117385864,1021.2971,
2021.01.10 21:27:12,10.0,24.0,22.859999,-2.3999999,-34.32,-0.32083282,0.8356019,10.00328,0.0043811253,0.012721268,-0.013324804,-0.08329667896032333,0.03206177428364754,-1.5467408895492554,1021.2971,
2021.01.10 21:27:12,10.0,24.0,22.859999,-2.1599998,-34.5,-0.36871833,0.8379962,9.9889145,0.0049919905,0.004169155,-0.012713939,-0.08363993465900421,0.036896001547575,-1.5338088274002075,1021.2964,
2021.01.10 21:27:12,10.0,24.0,22.56,-2.1599998,-34.26,-0.35435268,0.82602483,9.912297,0.009878913,5.0396385E-4,-0.00477269,-0.08308839797973633,0.035733576864004135,-1.5353606939315796,1021.2964,
2021.01.10 21:27:12,10.0,24.0,22.619999,-2.34,-34.5,-0.2944958,0.7781393,9.962578,0.0068245865,0.0023365596,7.250971E-4,-0.07791407406330109,0.029551595449447632,-1.5521208047866821,1021.2991,
2021.01.10 21:27:12,10.0,24.0,22.859999,-2.22,-34.92,-0.31125572,0.81165916,9.984126,-0.013333966,-0.0031612278,0.011109806,-0.08107735961675644,0.03116496466100216,-1.5399373769760132,1021.2991,
2021.01.10 21:27:12,10.0,24.0,22.32,-2.28,-34.86,-0.35435268,0.8379962,9.945818,7.1593403E-4,0.004169155,0.012942402,-0.08400455117225647,0.03561324253678322,-1.5367323160171509,1021.3052,
2021.01.10 21:27:12,10.0,24.0,22.92,-2.3999999,-34.8,-0.30886146,0.82602483,10.00328,-0.012112236,-7.1776664E-4,0.016607594,-0.08234941959381104,0.030866215005517006,-1.546643853187561,1021.3152,
2021.01.10 21:27:13,10.0,24.0,22.859999,-2.52,-34.079998,-0.2466103,0.8092649,9.964972,-0.0047818534,0.007223482,0.02088365,-0.0810084342956543,0.024742666631937027,-1.5575788021087646,1021.3152,
2021.01.10 21:27:13,10.0,24.0,22.98,-2.58,-33.899998,-0.30167863,0.7853221,10.008069,-0.016388291,-0.0025503624,0.016607594,-0.07827302813529968,0.03013441525399685,-1.5648012161254883,1021.3091,
2021.01.10 21:27:13,10.0,24.0,23.46,-2.46,-33.66,-0.2561874,0.8475733,10.010463,-0.007836179,0.019440787,0.010498942,-0.08443976938724518,0.025586379691958427,-1.551440715789795,1021.30835,
2021.01.10 21:27:13,10.0,24.0,23.039999,-2.52,-33.719997,-0.28013015,0.79250497,9.962578,-5.0579646E-4,0.0053908858,-0.0023292291,-0.07934980094432831,0.02811083383858204,-1.5612385272979736,1021.30835,
2021.01.10 21:27:13,10.0,24.0,22.74,-2.46,-33.899998,-0.31843856,0.80687064,9.938635,0.0025485298,0.012721268,-0.006605286,-0.08096621930599213,0.032029516994953156,-1.5547504425048828,1021.3054,
2021.01.10 21:27:13,10.0,24.0,22.859999,-2.52,-33.84,-0.28252444,0.84278476,10.151725,-0.042044632,5.0396385E-4,-0.016989997,-0.08279702812433243,0.027823008596897125,-1.5553343296051025,1021.3054,
2021.01.10 21:27:13,10.0,24.0,22.619999,-2.76,-33.84,-0.3328042,0.75659084,9.967366,-0.0023383922,-0.0031612278,-0.020655185,-0.07571948319673538,0.03337698057293892,-1.5771522521972656,1021.30225,
2021.01.10 21:27:13,10.0,24.0,22.439999,-2.6399999,-34.02,-0.36632404,0.7877164,9.91948,0.018431026,-0.0037720928,-0.021266052,-0.07919100672006607,0.03691298887133598,-1.5649758577346802,1021.3115,
2021.01.10 21:27:13,10.0,24.0,22.5,-2.52,-34.02,-0.32801566,0.81644773,10.05356,0.014765834,0.007223482,-0.021876916,-0.08098907768726349,0.03261524811387062,-1.5568398237228394,1021.3115,
2021.01.10 21:27:13,10.0,24.0,22.439999,-2.04,-34.26,-0.34956414,0.77574503,9.885961,0.0049919905,0.0011148291,-0.012103073,-0.07826019078493118,0.0353449285030365,-1.537576675415039,1021.31104,
2021.01.10 21:27:13,10.0,24.0,22.38,-1.62,-33.84,-0.23942748,0.77574503,9.945818,0.025150543,0.008445213,-0.006605286,-0.07781706005334854,0.02406853251159191,-1.521822214126587,1021.31104,
2021.01.10 21:27:13,10.0,24.0,22.56,-1.4399999,-33.42,-0.43575802,0.8332076,9.953,-0.012723101,0.0053908858,-0.006605286,-0.0834399163722992,0.04375363513827324,-1.5030566453933716,1021.312,
2021.01.10 21:27:13,10.0,24.0,22.439999,-1.3199999,-33.719997,-0.2561874,0.81165916,10.041589,-0.005392718,-0.00804815,0.0019468275,-0.08062828332185745,0.02550710365176201,-1.5038976669311523,1021.312,
2021.01.10 21:27:13,10.0,24.0,22.38,-1.38,-33.239998,-0.30646718,0.8284191,9.955395,-0.005392718,-0.0049938234,1.142318E-4,-0.08298267424106598,0.03077431209385395,-1.50364089012146,1021.3059,
2021.01.10 21:27:13,10.0,24.0,22.439999,-1.56,-34.02,-0.29689008,0.83081335,9.993703,-0.0029492574,-0.0062155537,-0.0029400946,-0.08290654420852661,0.02969898097217083,-1.509409785270691,1021.3059,
2021.01.10 21:27:13,10.0,24.0,22.02,-1.9799999,-34.14,-0.24900457,0.81644773,10.022434,-0.0011166617,-0.0031612278,-0.0072161513,-0.08125757426023483,0.0248396098613739,-1.531075119972229,1021.3059,
2021.01.10 21:27:13,10.0,24.0,22.32,-1.86,-34.02,-0.33519846,0.7733508,9.883567,0.02576141,-0.0019394971,-0.012103073,-0.07804233580827713,0.03390173241496086,-1.5303804874420166,1021.302,
2021.01.10 21:27:14,10.0,24.0,22.14,-1.92,-34.38,-0.3974496,0.7637737,9.943423,0.008046317,-1.0690142E-4,-0.014546535,-0.07660047709941864,0.03994983807206154,-1.5331188440322876,1021.29834,
2021.01.10 21:27:14,10.0,24.0,22.26,-1.9799999,-34.26,-0.24182175,0.7972935,9.976943,-5.0579646E-4,-0.0013286319,-0.006605286,-0.07972083240747452,0.024233315140008926,-1.533621072769165,1021.29834,
2021.01.10 21:27:14,10.0,24.0,22.56,-1.92,-34.02,-0.32083282,0.7446195,9.917087,-0.005392718,-0.0049938234,-0.0059944205,-0.07490482926368713,0.032340239733457565,-1.5388920307159424,1021.29736,
2021.01.10 21:27:14,10.0,24.0,22.619999,-2.22,-33.899998,-0.26097596,0.8379962,9.955395,-0.0029492574,0.023105977,-0.009659612,-0.08394840359687805,0.02620852366089821,-1.5395480394363403,1021.29736,
2021.01.10 21:27:14,10.0,24.0,22.619999,-2.28,-33.719997,-0.29689008,0.818842,10.015251,-0.026773002,0.007223482,-0.012103073,-0.08154240250587463,0.029635120183229446,-1.5463910102844238,1021.3013,
2021.01.10 21:27:14,10.0,24.0,22.02,-2.22,-33.42,-0.31843856,0.7637737,9.976943,-0.004170988,0.016386459,-0.015768265,-0.0763661116361618,0.0319066159427166,-1.552250623703003,1021.3013,
2021.01.10 21:27:14,10.0,24.0,21.84,-2.28,-33.66,-0.32801566,0.7901107,9.967366,-0.004170988,0.006001751,-0.015768265,-0.07906172424554825,0.032897088676691055,-1.5495233535766602,1021.3093,
2021.01.10 21:27:14,10.0,24.0,22.26,-2.1,-33.78,-0.4070267,0.7972935,10.005674,-0.016388291,0.006001751,-0.01637913,-0.07945068180561066,0.040657173842191696,-1.539312481880188,1021.31104,
2021.01.10 21:27:14,10.0,24.0,22.199999,-2.1599998,-33.78,-0.35435268,0.81165916,9.991309,-0.0029492574,0.024327708,-0.013935669,-0.08100781589746475,0.03545123338699341,-1.5401947498321533,1021.31104,
2021.01.10 21:27:14,10.0,24.0,22.439999,-1.92,-33.84,-0.30886146,0.8092649,9.984126,0.0019376645,5.0396385E-4,1.142318E-4,-0.0808398425579071,0.030925391241908073,-1.5299623012542725,1021.3154,
2021.01.10 21:27:14,10.0,24.0,22.92,-1.5,-33.66,-0.35435268,0.79250497,9.948212,0.014154969,5.0396385E-4,7.250971E-4,-0.0794450044631958,0.03560468554496765,-1.513776183128357,1021.312,
2021.01.10 21:27:14,10.0,24.0,22.5,-1.38,-33.48,-0.32801566,0.7901107,9.98652,0.02453968,-0.0031612278,0.0013359623,-0.07891087234020233,0.032834041863679886,-1.5091463327407837,1021.312,
2021.01.10 21:27:14,10.0,24.0,22.56,-1.26,-33.3,-0.34956414,0.82123625,9.938635,0.013544105,-0.0043829577,-4.9663347E-4,-0.08239267766475677,0.03515775874257088,-1.4984838962554932,1021.312,
2021.01.10 21:27:14,10.0,24.0,22.8,-1.3199999,-33.36,-0.3615355,0.75659084,9.955395,0.021485351,-0.00926988,-0.0011074987,-0.07580249011516571,0.036299582570791245,-1.5119452476501465,1021.312,
2021.01.10 21:27:14,10.0,24.0,22.619999,-1.68,-33.48,-0.36632404,0.83081335,9.991309,0.012322374,-0.0037720928,-0.0017183638,-0.0829072818160057,0.03664785251021385,-1.516350507736206,1021.30566,
2021.01.10 21:27:14,10.0,24.0,22.56,-1.8,-33.42,-0.38068968,0.7733508,9.962578,0.011100643,-0.0074372846,-4.9663347E-4,-0.07741393893957138,0.03819338232278824,-1.5306289196014404,1021.30566,
2021.01.10 21:27:14,10.0,24.0,22.74,-1.92,-33.719997,-0.28731298,0.8236305,9.953,0.0062137214,-0.0074372846,0.007444615,-0.08252964168787003,0.028858957812190056,-1.5285735130310059,1021.3108,
2021.01.10 21:27:15,10.0,24.0,22.619999,-2.22,-33.6,-0.38547826,0.8379962,10.225947,0.009268047,5.0396385E-4,-0.0017183638,-0.08170754462480545,0.037678252905607224,-1.5428105592727661,1021.31396,
2021.01.10 21:27:15,10.0,24.0,22.8,-2.22,-33.18,-0.29928434,0.8236305,9.725544,0.047141694,0.0023365596,-0.0041618245,-0.08444597572088242,0.030763309448957443,-1.5412061214447021,1021.31396,
2021.01.10 21:27:15,10.0,24.0,22.859999,-2.3999999,-33.42,-0.31604427,0.7805336,10.132571,0.053250343,-0.0123242065,0.005001154,-0.07684309035539627,0.031180817633867264,-1.5604277849197388,1021.3152,
2021.01.10 21:27:15,10.0,24.0,22.26,-2.34,-33.18,-0.3328042,0.9217958,9.833286,0.028815735,-0.00804815,-0.0041618245,-0.09341606497764587,0.03383174538612366,-1.5313513278961182,1021.3152,
2021.01.10 21:27:15,10.0,24.0,22.26,-2.58,-33.36,-0.2849187,0.90503585,9.943423,0.033091795,-0.013545937,-0.0011074987,-0.09073139727115631,0.02864614687860012,-1.5468618869781494,1021.3135,
2021.01.10 21:27:15,10.0,24.0,22.08,-2.34,-33.78,-0.38068968,0.8739103,10.039194,0.018431026,-0.0043829577,-0.0053835553,-0.08676891028881073,0.03790218383073807,-1.5387355089187622,1021.3125,
2021.01.10 21:27:15,10.0,24.0,22.38,-2.28,-33.6,-0.28731298,0.9122187,9.814133,0.014765834,-0.011102476,-0.0059944205,-0.09264373034238815,0.029267074540257454,-1.5288606882095337,1021.3125,
2021.01.10 21:27:15,10.0,24.0,22.74,-2.22,-33.96,-0.32562137,0.94095,10.072714,-0.013944832,-0.0043829577,0.0013359623,-0.09309706836938858,0.03231581673026085,-1.5239864587783813,1021.31055,
2021.01.10 21:27:15,10.0,24.0,22.56,-2.1,-33.899998,-0.35914123,0.9026416,9.907509,-0.015777428,-0.0074372846,-0.006605286,-0.09079667925834656,0.036233533173799515,-1.5213687419891357,1021.3042,
2021.01.10 21:27:15,10.0,24.0,22.14,-2.46,-33.6,-0.2849187,0.89067024,10.027223,-0.007225314,0.007223482,-0.00477269,-0.0885571539402008,0.02840687334537506,-1.5436179637908936,1021.3042,
2021.01.10 21:27:15,10.0,24.0,21.9,-2.58,-33.719997,-0.34716985,0.8786988,9.909904,-0.017610023,-0.0043829577,-0.0035509595,-0.08838353306055069,0.03501829504966736,-1.5479885339736938,1021.3013,
2021.01.10 21:27:15,10.0,24.0,21.9,-2.52,-33.48,-0.37350687,0.89545876,10.032011,-5.0579646E-4,0.0047800206,0.0025576928,-0.08896290510892868,0.03721431642770767,-1.544887900352478,1021.3013,
2021.01.10 21:27:15,10.0,24.0,22.08,-2.3999999,-33.42,-0.27294734,0.90503585,9.976943,-0.015777428,-0.017211128,0.005612019,-0.09043148905038834,0.02735099196434021,-1.5386059284210205,1021.3037,
2021.01.10 21:27:15,10.0,24.0,22.5,-1.9799999,-33.96,-0.3040729,0.8786988,9.953,-0.018831754,-0.014156803,0.010498942,-0.08801567554473877,0.030541379004716873,-1.5208752155303955,1021.3037,
2021.01.10 21:27:15,10.0,24.0,22.439999,-2.1,-34.2,-0.2849187,0.90982443,9.962578,-0.0047818534,0.00355829,0.005612019,-0.09103456139564514,0.02859109826385975,-1.5207370519638062,1021.303,
2021.01.10 21:27:15,10.0,24.0,22.619999,-2.46,-34.44,-0.28013015,0.86193895,10.075109,-0.013944832,-0.0019394971,0.0025576928,-0.08531072735786438,0.027797019109129906,-1.5460522174835205,1021.3015,
2021.01.10 21:27:16,10.0,24.0,22.38,-2.28,-34.32,-0.2849187,0.8834874,9.921875,-0.006614449,0.007834347,-0.0041618245,-0.08877376466989517,0.02870832569897175,-1.5321264266967773,1021.3015,
2021.01.10 21:27:16,10.0,24.0,22.26,-2.22,-34.2,-0.22027329,0.818842,10.079897,0.018431026,-0.0086590145,-0.0035509595,-0.08103790134191513,0.0218492541462183,-1.5431638956069946,1021.3098,
2021.01.10 21:27:16,10.0,24.0,22.14,-1.9799999,-34.38,-0.30167863,0.888276,9.811738,0.021485351,5.0396385E-4,-0.013324804,-0.09024342149496078,0.030737021937966347,-1.5145621299743652,1021.3098,
2021.01.10 21:27:16,10.0,24.0,21.84,-1.62,-34.68,-0.32562137,0.9074302,10.046377,0.014765834,0.006612616,-0.016989997,-0.0900326669216156,0.032400473952293396,-1.4952751398086548,1021.302,
2021.01.10 21:27:16,10.0,24.0,22.02,-1.68,-35.219997,-0.27294734,0.84996754,9.888355,-0.0011166617,-0.0037720928,-0.010270477,-0.08571315556764603,0.027595898136496544,-1.5047249794006348,1021.2998,
2021.01.10 21:27:16,10.0,24.0,22.02,-1.68,-35.16,-0.28252444,0.9217958,10.005674,-0.0035601228,0.013942999,-0.016989997,-0.09183157980442047,0.028228919953107834,-1.4944870471954346,1021.2998,
2021.01.10 21:27:16,10.0,24.0,22.32,-1.62,-34.26,-0.35914123,0.8475733,10.008069,-0.026162136,-7.1776664E-4,-0.024931245,-0.08443330228328705,0.0358697734773159,-1.5072739124298096,1021.2998,
2021.01.10 21:27:16,10.0,24.0,22.619999,-1.92,-33.78,-0.27294734,0.81644773,9.967366,-0.005392718,0.010888672,-0.021876916,-0.08169913291931152,0.027377257123589516,-1.5296595096588135,1021.2998,
2021.01.10 21:27:16,10.0,24.0,22.619999,-2.28,-33.66,-0.339987,0.88109314,9.964972,-0.007836179,-0.0086590145,-0.015157399,-0.08813866227865219,0.03410498425364494,-1.5354912281036377,1021.3054,
2021.01.10 21:27:16,10.0,24.0,22.98,-2.7,-33.96,-0.23942748,0.81644773,10.0368,0.007435452,0.015775595,-0.014546535,-0.08114372193813324,0.023850437253713608,-1.5660525560379028,1021.3047,
2021.01.10 21:27:16,10.0,24.0,22.619999,-2.76,-34.8,-0.32083282,0.86912173,9.900327,0.016598431,-0.00804815,-0.0072161513,-0.08751699328422546,0.03239494934678078,-1.5542851686477661,1021.3047,
2021.01.10 21:27:16,10.0,24.0,22.56,-2.58,-34.8,-0.27055305,0.8236305,10.05356,0.011100643,0.0053908858,-0.009048747,-0.0817122608423233,0.026904674246907234,-1.5561071634292603,1021.303,
2021.01.10 21:27:16,10.0,24.0,22.14,-2.3999999,-34.44,-0.3040729,0.86912173,9.900327,1.0506882E-4,-0.0049938234,1.142318E-4,-0.08752163499593735,0.030703766271471977,-1.5386525392532349,1021.303,
2021.01.10 21:27:16,10.0,24.0,21.539999,-2.34,-34.079998,-0.27294734,0.85954463,10.046377,0.022707082,-0.0037720928,1.142318E-4,-0.08531849831342697,0.02716205269098282,-1.5406490564346313,1021.3076,
2021.01.10 21:27:16,10.0,24.0,21.6,-2.28,-33.48,-0.2466103,0.8547561,9.900327,0.0153767,0.0053908858,0.0037794232,-0.08609601855278015,0.0249041598290205,-1.539363980293274,1021.30884,
2021.01.10 21:27:16,10.0,24.0,21.18,-2.04,-33.36,-0.23224466,0.90503585,10.0368,0.015987566,-7.1776664E-4,7.250971E-4,-0.08990459889173508,0.02313518337905407,-1.5214991569519043,1021.30884,
2021.01.10 21:27:16,10.0,24.0,21.84,-2.04,-33.54,-0.24900457,0.86912173,9.957788,0.020263622,0.0011148291,-0.0029400946,-0.08703289926052094,0.0250008013099432,-1.5265443325042725,1021.3069,
2021.01.10 21:27:17,10.0,24.0,22.32,-1.86,-33.48,-0.29210153,0.8978531,9.881172,0.017209295,0.0011148291,-0.008437881,-0.09057684242725372,0.029552819207310677,-1.5129683017730713,1021.3069,
2021.01.10 21:27:17,10.0,24.0,22.14,-1.68,-33.66,-0.2777359,0.9217958,9.991309,0.011100643,0.0053908858,-0.011492208,-0.0919639989733696,0.02779059112071991,-1.5013883113861084,1021.3071,
2021.01.10 21:27:17,10.0,24.0,22.38,-1.74,-33.719997,-0.2849187,0.888276,9.890749,-0.007836179,0.002947425,-0.009659612,-0.0895315408706665,0.028798619285225868,-1.5083391666412354,1021.29834,
2021.01.10 21:27:17,10.0,24.0,21.9,-1.8,-33.239998,-0.32801566,0.8571504,9.883567,-0.0029492574,0.012110403,-0.010881343,-0.08646099269390106,0.03317580744624138,-1.516088604927063,1021.29834,
2021.01.10 21:27:17,10.0,24.0,21.779999,-1.62,-33.3,-0.30167863,0.91461295,10.082292,-0.023107812,0.009666943,-0.0072161513,-0.09042692184448242,0.029912708327174187,-1.5010535717010498,1021.30273,
2021.01.10 21:27:17,10.0,24.0,21.96,-1.92,-33.3,-0.33519846,0.8834874,9.912297,-0.018831754,0.007223482,-0.006605286,-0.08884500712156296,0.0338035449385643,-1.51771080493927,1021.30273,
2021.01.10 21:27:17,10.0,24.0,21.96,-1.92,-33.36,-0.30167863,0.90503585,10.060742,-0.023107812,-1.0690142E-4,1.142318E-4,-0.08967559784650803,0.0299767404794693,-1.5167738199234009,1021.30273,
2021.01.10 21:27:17,10.0,24.0,22.02,-1.86,-33.96,-0.30646718,0.84996754,10.010463,7.1593403E-4,-0.0013286319,-0.0035509595,-0.08466526865959167,0.030605126172304153,-1.5196216106414795,1021.30566,
2021.01.10 21:27:17,10.0,24.0,21.96,-1.86,-33.78,-0.30886146,0.84039044,9.883567,0.0019376645,0.0047800206,-0.0035509595,-0.08478383719921112,0.031239833682775497,-1.519919991493225,1021.30566,
2021.01.10 21:27:17,10.0,24.0,21.84,-1.74,-33.719997,-0.30646718,0.8667275,10.012857,0.011100643,0.00355829,7.250971E-4,-0.08630599826574326,0.030597811564803123,-1.5117571353912354,1021.3071,
2021.01.10 21:27:17,10.0,24.0,21.96,-1.92,-33.899998,-0.29928434,0.845179,9.979338,0.0025485298,0.006001751,7.250971E-4,-0.08445347100496292,0.02998141385614872,-1.5230318307876587,1021.3071,
2021.01.10 21:27:17,10.0,24.0,21.84,-1.74,-33.6,-0.29928434,0.845179,9.926663,0.0013267993,-0.0019394971,0.0013359623,-0.08489906042814255,0.030140411108732224,-1.514654278755188,1021.30664,
2021.01.10 21:27:17,10.0,24.0,22.02,-2.22,-33.899998,-0.30167863,0.8571504,10.0439825,-0.0047818534,0.006001751,-4.9663347E-4,-0.08509522676467896,0.03002673201262951,-1.5363131761550903,1021.3052,
2021.01.10 21:27:17,10.0,24.0,21.9,-2.34,-33.78,-0.31125572,0.8140534,9.907509,-0.0029492574,0.010277809,-0.0059944205,-0.08194088935852051,0.03140581399202347,-1.5473884344100952,1021.3052,
2021.01.10 21:27:17,10.0,24.0,21.779999,-1.9799999,-33.54,-0.35674694,0.8475733,9.8548355,0.008657183,0.019440787,-0.0017183638,-0.08573881536722183,0.036184389144182205,-1.523876428604126,1021.30615,
2021.01.10 21:27:17,10.0,24.0,22.32,-2.04,-33.54,-0.2777359,0.87151605,10.058349,-0.007836179,0.021273382,-0.0035509595,-0.08639740198850632,0.027605459094047546,-1.528091311454773,1021.30615,
2021.01.10 21:27:18,10.0,24.0,22.26,-1.4399999,-33.54,-0.36632404,0.81644773,9.862018,-0.010890506,0.021884248,-0.01760086,-0.0825420692563057,0.03712787106633186,-1.504395842552185,1021.3059,
2021.01.10 21:27:18,10.0,24.0,22.56,-1.62,-33.84,-0.32083282,0.79250497,9.976943,0.0068245865,0.035323285,-0.020655185,-0.07922643423080444,0.03214634954929352,-1.5186876058578491,1021.30835,
2021.01.10 21:27:18,10.0,24.0,22.26,-1.9799999,-33.84,-0.39266106,0.9217958,10.00328,-0.012723101,0.024938574,-0.030429032,-0.09181953221559525,0.039233092218637466,-1.5130654573440552,1021.30835,
2021.01.10 21:27:18,10.0,24.0,22.26,-2.1599998,-34.2,-0.4956149,0.72785956,9.93624,-0.021275215,0.03715588,-0.03592682,-0.0730319395661354,0.04983821511268616,-1.5503863096237183,1021.31055,
2021.01.10 21:27:18,10.0,24.0,22.14,-2.22,-34.079998,-0.42378664,0.7901107,10.082292,-0.010890506,0.015775595,-0.0292073,-0.07813763618469238,0.042008038610219955,-1.5458017587661743,1021.31055,
2021.01.10 21:27:18,10.0,24.0,22.199999,-1.74,-33.54,-0.46209505,0.72546524,9.852441,-0.0060035833,0.00355829,-0.024931245,-0.07341999560594559,0.046867236495018005,-1.5320580005645752,1021.30615,
2021.01.10 21:27:18,10.0,24.0,22.92,-1.38,-33.6,-0.44533512,0.75659084,10.122993,-0.007225314,0.0023365596,-0.01760086,-0.07452931255102158,0.04396408423781395,-1.514915108680725,1021.3052,
2021.01.10 21:27:18,10.0,24.0,22.619999,-1.26,-33.54,-0.46209505,0.7781393,9.876384,0.016598431,-0.011713341,-0.013324804,-0.0785398930311203,0.04675378277897835,-1.5016895532608032,1021.3052,
2021.01.10 21:27:18,10.0,24.0,23.039999,-1.62,-33.84,-0.37590113,0.72785956,9.996098,0.014765834,-0.009880745,-0.010881343,-0.07263493537902832,0.03758707642555237,-1.5293906927108765,1021.30225,
2021.01.10 21:27:18,10.0,24.0,22.859999,-1.8,-34.38,-0.45251793,0.75180227,9.976943,7.1593403E-4,-0.0019394971,-0.0023292291,-0.07513488084077835,0.04532530903816223,-1.5303609371185303,1021.30225,
2021.01.10 21:27:18,10.0,24.0,22.68,-1.86,-34.38,-0.4285752,0.74701375,9.8237095,-0.0017275269,0.002947425,-0.0029400946,-0.07582401484251022,0.0435989648103714,-1.5319650173187256,1021.3086,
2021.01.10 21:27:18,10.0,24.0,22.8,-1.86,-33.899998,-0.46927786,0.7877164,10.055954,-0.022496944,0.004169155,0.0025576928,-0.07808906584978104,0.04663283750414848,-1.529760718345642,1021.30225,
2021.01.10 21:27:18,10.0,24.0,22.199999,-1.1999999,-33.54,-0.4836435,0.79250497,9.8787775,-0.018220888,-0.015378532,0.012331536,-0.07995618134737015,0.048918768763542175,-1.494667410850525,1021.30225,
2021.01.10 21:27:18,10.0,24.0,22.439999,-1.0799999,-33.54,-0.27055305,0.7039168,10.0368,-0.018831754,0.0011148291,0.026381437,-0.06999359279870987,0.026949580758810043,-1.510032057762146,1021.30884,
2021.01.10 21:27:18,10.0,24.0,22.859999,-1.26,-33.48,-0.3232271,0.69673395,9.909904,0.0043811253,-0.0062155537,0.02088365,-0.07015415281057358,0.032605014741420746,-1.5184035301208496,1021.30884,
2021.01.10 21:27:18,10.0,24.0,22.74,-1.1999999,-33.719997,-0.46209505,0.77574503,10.151725,-0.018831754,0.021273382,-0.0035509595,-0.07618829607963562,0.04548747092485428,-1.502634882926941,1021.302,
2021.01.10 21:27:18,10.0,24.0,23.46,-1.74,-33.66,-0.38787252,0.76616794,9.974549,-0.012723101,0.024938574,-0.011492208,-0.07660408318042755,0.038866639137268066,-1.5297569036483765,1021.30176,
2021.01.10 21:27:19,10.0,24.0,23.58,-1.86,-33.84,-0.49082634,0.73743665,9.852441,0.019652756,-0.0049938234,-0.0053835553,-0.07461662590503693,0.0497765876352787,-1.536411166191101,1021.30176,
2021.01.10 21:27:19,10.0,24.0,23.1,-1.86,-33.96,-0.46927786,0.7877164,10.149331,0.022707082,0.012110403,-0.0072161513,-0.07737502455711365,0.04620441421866417,-1.5312819480895996,1021.30835,
2021.01.10 21:27:19,10.0,24.0,23.279999,-1.62,-33.899998,-0.4740664,0.818842,9.775824,0.033702657,-0.0043829577,0.014164132,-0.08346923440694809,0.048455797135829926,-1.5105907917022705,1021.3059,
2021.01.10 21:27:19,10.0,24.0,23.16,-1.1999999,-33.96,-0.28013015,0.67279124,9.996098,0.037367847,0.013942999,0.011109806,-0.06717774271965027,0.028016619384288788,-1.5201629400253296,1021.3059,
2021.01.10 21:27:19,10.0,24.0,22.92,-1.26,-33.66,-0.38547826,0.80687064,10.202005,-0.0035601228,0.038988475,0.012331536,-0.07886908203363419,0.03776659071445465,-1.5033074617385864,1021.3081,
2021.01.10 21:27:19,10.0,24.0,22.56,-0.9,-33.48,-0.19633053,0.9505271,10.472558,-0.100076824,-0.0043829577,0.01966192,-0.09049977362155914,0.018744945526123047,-1.4722874164581299,1021.3081,
