Time,X-cord,Y-cord,Mag_x,Mag_y,Mag_z,Acc_x,Acc_y,Acc_z,Gyro_x,Gyro_y,Gyro_z,Orn_x,Orn_y,Orn_z,Pressure,
2021.01.10 21:41:12,72.0,24.0,30.0,3.12,-30.0,-0.39266106,0.5770202,9.529214,0.19497108,0.058536164,-0.019433456,-0.06042775884270668,0.041182730346918106,-1.3985741138458252,1021.1626,
2021.01.10 21:41:12,72.0,24.0,30.0,2.7,-30.24,-0.0670397,0.24900457,10.247497,0.13083023,-0.023930646,-0.026152974,-0.02429376356303692,0.0065419627353549,-1.4559234380722046,1021.1626,
2021.01.10 21:41:12,72.0,24.0,30.72,2.34,-31.56,-0.18435916,0.6344828,9.725544,0.06424592,-0.0049938234,-0.068302676,-0.06513480842113495,0.01895391009747982,-1.4248524904251099,1021.16064,
2021.01.10 21:41:12,72.0,24.0,32.16,2.04,-32.579998,-0.12689656,0.7015225,10.067925,0.010489778,-0.03248276,-0.08846123,-0.06956101208925247,0.012603376060724258,-1.4353176355361938,1021.1636,
2021.01.10 21:41:12,72.0,24.0,33.059998,1.4399999,-33.78,-0.16759923,0.62251145,9.804555,0.026372274,0.016386459,-0.07563306,-0.06339772045612335,0.017092352733016014,-1.460014820098877,1021.1636,
2021.01.10 21:41:12,72.0,24.0,33.6,1.4399999,-34.739998,-0.39266106,0.6201172,10.060742,0.022707082,0.018219056,-0.08846123,-0.06151272729039192,0.03900923579931259,-1.4579366445541382,1021.15674,
2021.01.10 21:41:12,72.0,24.0,33.899998,1.1999999,-34.5,-0.2561874,0.6656084,9.897932,-0.0029492574,-0.011102476,-0.046922393,-0.06712371110916138,0.025877146050333977,-1.4630390405654907,1021.15674,
2021.01.10 21:41:12,72.0,24.0,33.36,1.26,-34.32,0.021548472,0.51955765,9.869201,0.032480925,-0.020265454,-0.016989997,-0.05259567126631737,-0.002183402655646205,-1.479568600654602,1021.1553,
2021.01.10 21:41:12,72.0,24.0,33.48,1.68,-34.2,-0.1699935,0.6153286,9.914692,0.015987566,0.02921463,-0.020655185,-0.06197371333837509,0.017143936827778816,-1.454860806465149,1021.147,
2021.01.10 21:41:12,72.0,24.0,33.6,1.86,-34.02,-0.05027977,0.6081458,9.96976,0.013544105,0.018829921,-0.024931245,-0.0609227754175663,0.005043185316026211,-1.4535269737243652,1021.147,
2021.01.10 21:41:12,72.0,24.0,33.12,1.9799999,-34.32,-0.15802214,0.5219519,10.096657,-0.034714248,-0.0025503624,-0.024931245,-0.05164323002099991,0.01564965955913067,-1.4554227590560913,1021.1482,
2021.01.10 21:41:12,72.0,24.0,33.54,2.1599998,-34.26,-0.10055954,0.4740664,9.917087,0.0049919905,-0.014156803,-0.03226163,-0.04776417836546898,0.01013968139886856,-1.4565218687057495,1021.1482,
2021.01.10 21:41:13,72.0,24.0,33.3,2.3999999,-34.44,-0.117319465,0.5602603,10.084685,-0.04387723,-0.06302602,-0.01760086,-0.0554947629570961,0.011632903479039669,-1.4399882555007935,1021.1531,
2021.01.10 21:41:13,72.0,24.0,33.42,2.3999999,-34.8,-0.22745611,0.5818088,10.108628,-0.029827328,-0.050808717,-0.0292073,-0.05747772008180618,0.0224973876029253,-1.4356154203414917,1021.15967,
2021.01.10 21:41:13,72.0,24.0,33.36,2.46,-34.739998,-0.0670397,0.5243462,9.93624,-0.02188608,-0.044700064,-0.0072161513,-0.05272098258137703,0.006746886298060417,-1.441733717918396,1021.15967,
2021.01.10 21:41:13,72.0,24.0,32.76,2.3999999,-35.1,-0.18914771,0.48843205,9.912297,0.02453968,0.002947425,-0.0023292291,-0.04922658950090408,0.01907981187105179,-1.442020297050476,1021.1577,
2021.01.10 21:41:13,72.0,24.0,32.76,2.3999999,-35.1,-0.16759923,0.57462597,10.113417,-0.022496944,0.020662518,0.004390288,-0.056749384850263596,0.016570452600717545,-1.4343491792678833,1021.1577,
2021.01.10 21:41:13,72.0,24.0,32.64,2.52,-34.86,-0.062251143,0.4956149,9.998491,-0.005392718,0.016386459,0.007444615,-0.049527473747730255,0.00622597336769104,-1.4403733015060425,1021.1526,
2021.01.10 21:41:13,72.0,24.0,33.059998,2.7,-34.739998,-0.045491222,0.50040346,9.900327,0.027594006,-0.016600264,0.009277211,-0.050500623881816864,0.004594889003783464,-1.436119556427002,1021.1526,
2021.01.10 21:41:13,72.0,24.0,33.12,2.3999999,-34.26,-0.09577099,0.57462597,10.072714,0.020874487,0.0017256943,-0.0011074987,-0.05698344483971596,0.009507676586508751,-1.438461184501648,1021.1526,
2021.01.10 21:41:13,72.0,24.0,33.12,2.28,-34.2,0.08140534,0.50998056,9.938635,0.022096219,-0.019654589,-0.006605286,-0.05126625671982765,-0.00819061417132616,-1.45114004611969,1021.1526,
2021.01.10 21:41:13,72.0,24.0,33.12,2.46,-34.02,0.0023942748,0.505192,10.082292,-0.010890506,-0.0019394971,-0.015157399,-0.05006498470902443,-2.3747327213641256E-4,-1.4459059238433838,1021.155,
2021.01.10 21:41:13,72.0,24.0,33.059998,2.52,-33.96,0.016759925,0.55307746,9.926663,0.016598431,-0.006826419,-0.030429032,-0.0556587278842926,-0.0016883728094398975,-1.4386439323425293,1021.155,
2021.01.10 21:41:13,72.0,24.0,32.94,2.76,-34.2,-0.14605077,0.5123748,9.979338,-0.035325114,-0.03492622,-0.027374703,-0.051293037831783295,0.014634272083640099,-1.4319026470184326,1021.15015,
2021.01.10 21:41:13,72.0,24.0,32.46,3.0,-34.14,-0.05027977,0.531529,9.869201,-0.01944262,-0.0581391,-0.028596435,-0.0538046732544899,0.005094570107758045,-1.4219764471054077,1021.15015,
2021.01.10 21:41:13,72.0,24.0,32.1,3.0,-34.38,-0.27294734,0.6273,10.065532,-0.014555697,0.035934146,-0.0059944205,-0.06221828982234001,0.02711038663983345,-1.4058822393417358,1021.1465,
2021.01.10 21:41:13,72.0,24.0,31.439999,3.06,-34.739998,0.13168511,0.38547826,9.830893,-0.013944832,-0.014767668,0.026381437,-0.03918732330203056,-0.013394230045378208,-1.4336775541305542,1021.14966,
2021.01.10 21:41:13,72.0,24.0,31.439999,3.1799998,-34.559998,-0.16281068,0.5554718,10.029617,0.0062137214,0.054260105,0.031879224,-0.05531935766339302,0.016231564804911613,-1.4066518545150757,1021.14966,
2021.01.10 21:41:14,72.0,24.0,31.56,3.1799998,-34.92,-0.0670397,0.41181526,10.099051,-0.027994731,0.044486262,0.03249009,-0.04075413942337036,0.006638119462877512,-1.4247335195541382,1021.1477,
2021.01.10 21:41:14,72.0,24.0,31.92,3.3,-34.8,-0.05506832,0.47885495,10.05356,1.0506882E-4,-0.041645736,0.06303335,-0.04759370535612106,0.005477439612150192,-1.41572105884552,1021.1477,
2021.01.10 21:41:14,72.0,24.0,32.219997,3.0,-34.26,-0.06943397,0.5219519,9.974549,0.051417753,-0.0049938234,0.061811622,-0.05227942019701004,0.006961001083254814,-1.4218835830688477,1021.155,
2021.01.10 21:41:14,72.0,24.0,31.8,2.9399998,-34.5,0.0047885496,0.5602603,9.941029,0.032480925,0.009666943,0.04531826,-0.056298814713954926,-4.8169554793275893E-4,-1.4187334775924683,1021.155,
2021.01.10 21:41:14,72.0,24.0,31.56,2.46,-34.079998,0.10055954,0.531529,10.163696,0.042865634,-0.0031612278,0.047150858,-0.05224667116999626,-0.009893670678138733,-1.439253568649292,1021.1592,
2021.01.10 21:41:14,72.0,24.0,31.439999,2.34,-33.899998,-0.014365649,0.5818088,9.926663,0.04469823,-0.037980545,0.02332711,-0.058543670922517776,0.0014471770264208317,-1.4339687824249268,1021.1592,
2021.01.10 21:41:14,72.0,24.0,31.26,2.6399999,-34.079998,-0.08858817,0.6344828,9.797373,0.08990226,-0.020265454,0.016607594,-0.06466756016016006,0.00904178712517023,-1.4152015447616577,1021.1592,
2021.01.10 21:41:14,72.0,24.0,31.8,2.6399999,-33.899998,0.0670397,0.69673395,10.146936,-0.005392718,-0.015989399,0.0019468275,-0.06855536997318268,-0.006606794893741608,-1.4176923036575317,1021.16187,
2021.01.10 21:41:14,72.0,24.0,31.98,2.9399998,-33.84,0.026337024,0.6368771,9.921875,-5.0579646E-4,-0.028206702,0.0013359623,-0.06410102546215057,-0.002654433948919177,-1.4132037162780762,1021.16187,
2021.01.10 21:41:14,72.0,24.0,31.98,2.34,-34.02,0.026337024,0.6895511,9.895537,0.05630467,0.024938574,0.009277211,-0.06957034021615982,-0.00266149896197021,-1.4254846572875977,1021.1594,
2021.01.10 21:41:14,72.0,24.0,32.16,1.86,-33.899998,-0.023942748,0.6344828,10.041589,0.014765834,0.03837761,-0.010881343,-0.06310142576694489,0.0023843541275709867,-1.4467802047729492,1021.1511,
2021.01.10 21:41:14,72.0,24.0,32.28,1.68,-34.26,0.023942748,0.749408,10.065532,0.06974371,0.05364924,-0.034705088,-0.07431557774543762,-0.0023786823730915785,-1.441327452659607,1021.1511,
2021.01.10 21:41:14,72.0,24.0,32.399998,1.4399999,-34.559998,-0.07422252,0.76616794,9.996098,0.016598431,0.008445213,-0.021876916,-0.07649504393339157,0.007425013463944197,-1.444071650505066,1021.14966,
2021.01.10 21:41:14,72.0,24.0,32.16,1.56,-34.44,-0.016759925,0.69912827,9.967366,0.022096219,0.0145538645,-0.010881343,-0.0700269415974617,0.0016814781120046973,-1.4477616548538208,1021.14966,
2021.01.10 21:41:14,72.0,24.0,32.399998,1.74,-34.62,-0.026337024,0.6751855,9.8787775,0.003159395,-0.0043829577,-0.0023292291,-0.0682407021522522,0.0026660142466425896,-1.4444900751113892,1021.14746,
2021.01.10 21:41:14,72.0,24.0,32.28,1.8,-34.32,-0.052674048,0.72546524,9.96976,-0.012723101,0.018219056,-0.009048747,-0.07263753563165665,0.00528333242982626,-1.4376766681671143,1021.1577,
2021.01.10 21:41:14,72.0,24.0,32.28,2.1599998,-34.14,-0.021548472,0.7350424,10.029617,-0.053040206,0.020662518,-0.012713939,-0.07315623015165329,0.0021484806202352047,-1.4272664785385132,1021.1577,
2021.01.10 21:41:15,72.0,24.0,32.28,2.34,-34.559998,0.019154198,0.65124273,10.010463,-0.06281405,0.024327708,-0.015157399,-0.06496453285217285,-0.0019134156173095107,-1.430299997329712,1021.1572,
2021.01.10 21:41:15,72.0,24.0,31.5,2.46,-34.68,-0.16759923,0.6177229,9.996098,0.0013267993,0.038988475,-0.01882259,-0.06170927360653877,0.016764895990490913,-1.4222488403320312,1021.1572,
2021.01.10 21:41:15,72.0,24.0,31.38,2.52,-34.5,-0.1699935,0.68715686,10.063137,-0.01944262,0.021273382,-0.016989997,-0.06816902756690979,0.01689108833670616,-1.4129937887191772,1021.1594,
2021.01.10 21:41:15,72.0,24.0,31.019999,2.46,-33.84,-0.14605077,0.65363705,10.055954,-0.0035601228,0.0047800206,-0.013935669,-0.06490187346935272,0.014522789046168327,-1.4187120199203491,1021.15845,
2021.01.10 21:41:15,72.0,24.0,30.9,2.6399999,-32.579998,-0.14844504,0.60335726,9.814133,1.0506882E-4,-0.0074372846,-0.009659612,-0.06139412149786949,0.015124486759305,-1.4186309576034546,1021.15845,
2021.01.10 21:41:15,72.0,24.0,31.08,3.1799998,-31.679998,-0.12450229,0.65842557,10.067925,-0.016388291,0.006001751,-0.0023292291,-0.0653003603219986,0.01236560009419918,-1.400861382484436,1021.1653,
2021.01.10 21:41:15,72.0,24.0,30.96,3.48,-31.08,-0.11253092,0.60335726,10.027223,-0.018220888,0.0053908858,7.250971E-4,-0.06009568274021149,0.011222070083022118,-1.3974082469940186,1021.1653,
2021.01.10 21:41:15,72.0,24.0,31.019999,3.54,-31.14,-0.12450229,0.6081458,9.929058,0.0025485298,0.002947425,1.142318E-4,-0.061167869716882706,0.012538527138531208,-1.3943578004837036,1021.16406,
2021.01.10 21:41:15,72.0,24.0,31.439999,3.12,-31.679998,-0.14365649,0.6464542,10.060742,-0.007225314,0.008445213,-0.0023292291,-0.06416039168834686,0.014277945272624493,-1.4053562879562378,1021.1626,
2021.01.10 21:41:15,72.0,24.0,31.619999,2.46,-32.16,-0.076616794,0.6081458,9.984126,-0.006614449,0.0053908858,-0.0011074987,-0.06083431467413902,0.007673710118979216,-1.4306610822677612,1021.1626,
2021.01.10 21:41:15,72.0,24.0,31.619999,2.76,-32.64,-0.083799616,0.6081458,10.058349,-0.0011166617,-0.0043829577,7.250971E-4,-0.060386184602975845,0.008331156335771084,-1.4207035303115845,1021.16187,
2021.01.10 21:41:15,72.0,24.0,31.38,2.8799999,-33.0,-0.15323359,0.6057515,9.967366,7.1593403E-4,0.002947425,-0.016989997,-0.06069166958332062,0.015372317284345627,-1.413206696510315,1021.16187,
2021.01.10 21:41:15,72.0,24.0,30.72,3.12,-32.94,-0.07901107,0.5818088,9.955395,0.010489778,0.010277809,-0.018211726,-0.05837332457304001,0.007936341688036919,-1.4064686298370361,1021.15967,
2021.01.10 21:41:15,72.0,24.0,30.42,3.36,-32.579998,-0.16041641,0.5818088,9.979338,-0.005392718,0.007834347,-0.014546535,-0.05822791904211044,0.016073470935225487,-1.3960145711898804,1021.15454,
2021.01.10 21:41:15,72.0,24.0,30.42,3.24,-32.76,-0.14365649,0.57223165,10.012857,0.0049919905,0.027992899,-0.016989997,-0.05708172544836998,0.01434621773660183,-1.4011914730072021,1021.15454,
2021.01.10 21:41:15,72.0,24.0,30.599998,3.06,-32.52,-0.12929083,0.6081458,9.98652,-0.0017275269,0.0011148291,-0.01637913,-0.06081647425889969,0.012945812195539474,-1.404829502105713,1021.1577,
2021.01.10 21:41:15,72.0,24.0,30.96,3.06,-32.52,-0.16759923,0.60335726,9.998491,-0.0023383922,0.004169155,-0.012103073,-0.06026329845190048,0.01676088199019432,-1.406429648399353,1021.1577,
2021.01.10 21:41:16,72.0,24.0,31.619999,3.0,-32.82,-0.15083931,0.61293435,10.115811,-0.015166562,-0.0019394971,-0.006605286,-0.060511019080877304,0.014910138212144375,-1.4112887382507324,1021.1565,
2021.01.10 21:41:16,72.0,24.0,31.619999,2.52,-32.399998,-0.18914771,0.5794145,9.895537,0.01904189,-0.0043829577,-0.0059944205,-0.05847567692399025,0.01911211758852005,-1.4283828735351562,1021.155,
2021.01.10 21:41:16,72.0,24.0,31.38,2.6399999,-32.1,-0.08140534,0.54828894,10.139753,0.0013267993,-1.0690142E-4,-0.00477269,-0.05401885509490967,0.008028163574635983,-1.4308849573135376,1021.155,
2021.01.10 21:41:16,72.0,24.0,31.5,2.9399998,-32.16,-0.11971374,0.52674043,9.866806,0.008657183,-0.0086590145,-0.0029400946,-0.05333055183291435,0.012132382020354271,-1.4217731952667236,1021.1482,
2021.01.10 21:41:16,72.0,24.0,31.38,2.9399998,-32.16,-0.14844504,0.5985687,10.082292,0.009268047,-0.0086590145,-0.0041618245,-0.05929230526089668,0.014722279272973537,-1.4145644903182983,1021.1555,
2021.01.10 21:41:16,72.0,24.0,31.26,3.24,-32.28,-0.13168511,0.53871185,9.976943,-0.012723101,-0.015378532,-0.0059944205,-0.0539386123418808,0.013198177330195904,-1.410096526145935,1021.1555,
2021.01.10 21:41:16,72.0,24.0,31.74,3.0,-32.82,-0.14365649,0.5147691,9.955395,7.1593403E-4,-0.0074372846,-4.9663347E-4,-0.051656175404787064,0.01442901324480772,-1.4211369752883911,1021.15137,
2021.01.10 21:41:16,72.0,24.0,31.74,2.82,-32.579998,-0.09577099,0.5770202,9.993703,-0.010279641,-0.0013286319,0.0037794232,-0.05767170339822769,0.009582840837538242,-1.4220088720321655,1021.15137,
2021.01.10 21:41:16,72.0,24.0,31.859999,2.9399998,-32.46,-0.17478207,0.5794145,10.034406,-0.014555697,-0.0056046885,0.0037794232,-0.05767000839114189,0.017416516318917274,-1.4174003601074219,1021.15186,
2021.01.10 21:41:16,72.0,24.0,32.1,3.0,-32.52,-0.09337672,0.5411061,9.967366,0.0019376645,0.006001751,0.0031685582,-0.054232157766819,0.009367969818413258,-1.4217376708984375,1021.1455,
2021.01.10 21:41:16,72.0,24.0,31.619999,3.12,-31.92,-0.12689656,0.5818088,9.976943,0.0049919905,-0.0031612278,7.250971E-4,-0.05824466794729233,0.012718296609818935,-1.4120707511901855,1021.1455,
2021.01.10 21:41:16,72.0,24.0,31.32,3.06,-32.16,-0.076616794,0.52913475,10.0439825,-0.0029492574,-0.0056046885,-0.0023292291,-0.05263157933950424,0.007627980783581734,-1.4187898635864258,1021.1426,
2021.01.10 21:41:16,72.0,24.0,30.66,3.24,-32.46,-0.057462595,0.54828894,9.984126,-0.0060035833,-0.00926988,-0.0035509595,-0.054860055446624756,0.005755332298576832,-1.4073768854141235,1021.1426,
2021.01.10 21:41:16,72.0,24.0,30.72,3.1799998,-32.219997,-0.098165266,0.57462597,9.993703,-0.0047818534,0.002947425,-0.009659612,-0.05743279680609703,0.00982239656150341,-1.4064655303955078,1021.14795,
2021.01.10 21:41:16,72.0,24.0,30.84,3.1799998,-32.579998,-0.057462595,0.5698374,9.972155,1.0506882E-4,5.0396385E-4,-0.013324804,-0.05707983300089836,0.005762241315096617,-1.4077131748199463,1021.14795,
2021.01.10 21:41:16,72.0,24.0,30.72,3.4199998,-32.76,-0.08858817,0.55786604,10.0368,0.0049919905,-0.009880745,-0.014546535,-0.055522769689559937,0.008826106786727905,-1.4000227451324463,1021.1511,
2021.01.10 21:41:16,72.0,24.0,30.96,3.24,-32.64,-0.035914123,0.54350036,10.096657,-0.016999159,-0.0031612278,-0.019433456,-0.05377748981118202,0.003557016374543309,-1.410223364830017,1021.1404,
2021.01.10 21:41:17,72.0,24.0,30.779999,3.36,-32.64,-0.117319465,0.5123748,9.967366,0.003159395,5.0396385E-4,-0.023709513,-0.0513564758002758,0.011769814416766167,-1.406160831451416,1021.1404,
2021.01.10 21:41:17,72.0,24.0,30.3,3.48,-32.579998,-0.08858817,0.5123748,10.027223,-0.00905791,0.0011148291,-0.024320377,-0.05105198547244072,0.008834537118673325,-1.4007956981658936,1021.1448,
2021.01.10 21:41:17,72.0,24.0,30.359999,3.6,-32.219997,-0.12210801,0.4836435,9.948212,0.0049919905,-0.0049938234,-0.020655185,-0.04857422783970833,0.012273751199245453,-1.3996635675430298,1021.1499,
2021.01.10 21:41:17,72.0,24.0,30.179998,3.6599998,-32.399998,-0.14605077,0.56265455,10.118205,-0.0084470445,-0.0062155537,-0.019433456,-0.055545154958963394,0.014433450996875763,-1.3884868621826172,1021.1499,
2021.01.10 21:41:17,72.0,24.0,30.179998,3.54,-32.82,-0.12450229,0.53392327,9.921875,0.012933239,0.002947425,-0.01882259,-0.05375665798783302,0.01254760380834341,-1.3939828872680664,1021.1548,
2021.01.10 21:41:17,72.0,24.0,30.42,3.3,-33.0,-0.13168511,0.5411061,10.168485,0.008046317,0.006612616,1.142318E-4,-0.0531594417989254,0.012949593365192413,-1.4033385515213013,1021.1548,
2021.01.10 21:41:17,72.0,24.0,30.539999,3.12,-33.12,-0.08858817,0.5770202,9.90272,0.0019376645,-1.0690142E-4,1.142318E-4,-0.05820072442293167,0.008945602923631668,-1.4051125049591064,1021.1587,
2021.01.10 21:41:17,72.0,24.0,30.96,3.12,-33.0,-0.026337024,0.4860378,10.075109,0.016598431,0.0047800206,0.005612019,-0.04820391163229942,0.002614062512293458,-1.4193941354751587,1021.1587,
2021.01.10 21:41:17,72.0,24.0,30.72,3.48,-32.82,-0.17238778,0.55786604,10.118205,0.0043811253,0.015775595,-0.0059944205,-0.055071137845516205,0.01703573949635029,-1.3965080976486206,1021.1555,
2021.01.10 21:41:17,72.0,24.0,30.66,3.48,-32.82,-0.09577099,0.51716334,9.869201,0.027594006,0.006001751,0.0013359623,-0.05235139653086662,0.009703722782433033,-1.4007954597473145,1021.1516,
2021.01.10 21:41:17,72.0,24.0,30.42,3.54,-33.059998,-0.08858817,0.61293435,10.012857,0.013544105,-0.0074372846,0.005001154,-0.061136048287153244,0.008847211487591267,-1.387984037399292,1021.1516,
2021.01.10 21:41:17,72.0,24.0,30.0,3.3,-33.059998,-0.052674048,0.5602603,10.000886,0.0062137214,-0.01843286,0.004390288,-0.05596179515123367,0.005266889464110136,-1.3997206687927246,1021.15454,
2021.01.10 21:41:17,72.0,24.0,30.42,3.0,-33.36,-0.052674048,0.52674043,9.972155,0.016598431,0.010888672,-0.0059944205,-0.052771344780921936,0.005282063968479633,-1.4145609140396118,1021.15454,
2021.01.10 21:41:17,72.0,24.0,30.599998,3.0,-33.18,-0.043096945,0.64166564,10.000886,0.045309097,-7.1776664E-4,-0.0078270165,-0.06407245993614197,0.004309286363422871,-1.4040311574935913,1021.1582,
2021.01.10 21:41:17,72.0,24.0,30.84,3.12,-32.94,-0.22027329,0.6368771,10.015251,0.023928814,-0.0062155537,-0.0017183638,-0.06348991394042969,0.02199024148285389,-1.3982840776443481,1021.1572,
2021.01.10 21:41:17,72.0,24.0,30.84,3.24,-32.82,-0.009577099,0.6081458,9.948212,0.01904189,-0.0086590145,0.009888076,-0.06105516105890274,9.626952814869583E-4,-1.4023767709732056,1021.1572,
2021.01.10 21:41:18,72.0,24.0,30.599998,2.82,-32.579998,-0.12929083,0.5865973,9.960183,0.012933239,-7.1776664E-4,0.0025576928,-0.058821339160203934,0.012980040162801743,-1.414543628692627,1021.15967,
2021.01.10 21:41:18,72.0,24.0,31.199999,3.24,-32.579998,-0.10055954,0.6057515,9.979338,-0.0017275269,0.0047800206,0.0031685582,-0.06062312051653862,0.010076434351503849,-1.4030685424804688,1021.15967,
2021.01.10 21:41:18,72.0,24.0,31.26,2.76,-33.12,-0.047885496,0.60335726,9.984126,-0.0035601228,0.0053908858,-4.9663347E-4,-0.060357559472322464,0.004796125926077366,-1.418866753578186,1021.155,
2021.01.10 21:41:18,72.0,24.0,31.38,2.52,-32.88,-0.071828246,0.6177229,9.993703,-0.010890506,0.008445213,-0.0035509595,-0.06173108145594597,0.007187226787209511,-1.425486445426941,1021.1587,
2021.01.10 21:41:18,72.0,24.0,31.32,3.0,-32.82,-0.11971374,0.65363705,9.8787775,0.0062137214,0.01516473,-0.015768265,-0.06606464087963104,0.012117681093513966,-1.4046509265899658,1021.1587,
2021.01.10 21:41:18,72.0,24.0,31.08,2.58,-33.059998,-0.11013664,0.64166564,10.161303,-0.007836179,0.023105977,-0.006605286,-0.06306053698062897,0.010838406160473824,-1.4196341037750244,1021.1565,
2021.01.10 21:41:18,72.0,24.0,30.84,2.52,-32.82,-0.10055954,0.5865973,9.8787775,0.007435452,0.015775595,-0.009659612,-0.059306833893060684,0.010178999044001102,-1.4249941110610962,1021.1587,
2021.01.10 21:41:18,72.0,24.0,30.539999,2.8799999,-33.18,-0.12210801,0.59378016,10.142148,-0.014555697,0.010277809,-0.009048747,-0.058474816381931305,0.012039078399538994,-1.4117082357406616,1021.1587,
2021.01.10 21:41:18,72.0,24.0,30.66,2.58,-33.059998,-0.15802214,0.62251145,9.943423,7.1593403E-4,0.008445213,-0.01760086,-0.06251586973667145,0.01589079014956951,-1.4170105457305908,1021.15674,
2021.01.10 21:41:18,72.0,24.0,30.72,2.76,-33.059998,-0.14844504,0.6177229,10.113417,0.003159395,-7.1776664E-4,-0.012103073,-0.06099721044301987,0.014676976948976517,-1.4134180545806885,1021.15674,
2021.01.10 21:41:18,72.0,24.0,31.019999,3.3,-32.88,-0.11971374,0.6105401,9.897932,0.013544105,-0.00926988,-0.01637913,-0.061601050198078156,0.012094233185052872,-1.3981105089187622,1021.16016,
2021.01.10 21:41:18,72.0,24.0,31.439999,3.0,-32.52,-0.11492519,0.5794145,10.032011,0.012933239,0.008445213,-0.018211726,-0.05768869072198868,0.011455346830189228,-1.4146473407745361,1021.16016,
2021.01.10 21:41:18,72.0,24.0,31.32,3.06,-32.82,-0.16759923,0.6895511,9.998491,-0.010890506,5.0396385E-4,-0.019433456,-0.06884684413671494,0.01676088385283947,-1.3987385034561157,1021.15405,
2021.01.10 21:41:18,72.0,24.0,31.14,2.8799999,-33.18,-0.1699935,0.59378016,10.07032,0.0043811253,-0.0025503624,-0.01760086,-0.0588868223130703,0.016879042610526085,-1.4132156372070312,1021.16064,
2021.01.10 21:41:18,72.0,24.0,30.66,2.76,-33.3,-0.076616794,0.60335726,9.957788,0.020263622,-0.0043829577,-0.015768265,-0.060515716671943665,0.007694005500525236,-1.4147515296936035,1021.16064,
2021.01.10 21:41:18,72.0,24.0,30.24,2.82,-33.48,-0.17478207,0.6344828,10.0200405,0.005602856,-0.0104916105,-0.01637913,-0.06322736293077469,0.017441479489207268,-1.4049620628356934,1021.1614,
2021.01.10 21:41:18,72.0,24.0,30.359999,2.6399999,-33.54,-0.10774237,0.59378016,9.964972,0.0062137214,-0.0025503624,-0.020655185,-0.059512898325920105,0.010811688378453255,-1.4170103073120117,1021.1614,
2021.01.10 21:41:19,72.0,24.0,30.359999,2.82,-33.12,-0.16759923,0.58420306,9.924269,0.011100643,-0.0043829577,-0.015768265,-0.05878988653421402,0.016886211931705475,-1.4113707542419434,1021.1582,
2021.01.10 21:41:19,72.0,24.0,30.84,3.12,-32.64,-0.16759923,0.5865973,10.101445,-0.013333966,0.0017256943,-0.013324804,-0.05799752473831177,0.016590086743235588,-1.4060626029968262,1021.15234,
2021.01.10 21:41:19,72.0,24.0,30.9,3.48,-32.76,-0.102953814,0.6249057,9.912297,-0.013333966,-0.0043829577,-0.009048747,-0.06295677274465561,0.01038610003888607,-1.3909976482391357,1021.15234,
2021.01.10 21:41:19,72.0,24.0,30.42,3.54,-32.46,-0.102953814,0.5554718,10.084685,0.0013267993,0.021884248,-0.013935669,-0.055022262036800385,0.010208571329712868,-1.3952453136444092,1021.15674,
2021.01.10 21:41:19,72.0,24.0,30.3,3.72,-32.579998,-0.16281068,0.5865973,9.938635,0.012322374,0.008445213,-0.013935669,-0.05894564092159271,0.016380129382014275,-1.382806658744812,1021.1572,
2021.01.10 21:41:19,72.0,24.0,30.3,3.48,-32.88,-0.117319465,0.600963,10.05356,-5.0579646E-4,0.004169155,-0.0078270165,-0.05970103293657303,0.0116689158603549,-1.3903731107711792,1021.1572,
2021.01.10 21:41:19,72.0,24.0,30.48,3.36,-33.059998,-0.11492519,0.5794145,9.90272,1.0506882E-4,-0.0037720928,-0.0072161513,-0.05844007804989815,0.011604894883930683,-1.3962863683700562,1021.1636,
2021.01.10 21:41:19,72.0,24.0,30.72,3.6599998,-33.18,-0.09577099,0.5770202,10.094262,0.0062137214,-0.0031612278,-0.0053835553,-0.05709848180413246,0.009487382136285305,-1.3897933959960938,1021.1636,
2021.01.10 21:41:19,72.0,24.0,30.779999,3.6,-33.12,-0.1699935,0.6296943,9.960183,-0.0035601228,0.004169155,-0.0059944205,-0.06312795728445053,0.01706564985215664,-1.3838297128677368,1021.16064,
2021.01.10 21:41:19,72.0,24.0,30.48,3.4199998,-32.88,-0.05506832,0.5818088,9.991309,-0.013333966,-0.0025503624,-0.0035509595,-0.058164916932582855,0.0055115665309131145,-1.3964898586273193,1021.16064,
2021.01.10 21:41:19,72.0,24.0,30.66,3.36,-32.579998,-0.08858817,0.5985687,9.938635,-0.004170988,0.007834347,-0.014546535,-0.06015139818191528,0.008913278579711914,-1.3970919847488403,1021.1553,
2021.01.10 21:41:19,72.0,24.0,30.599998,3.4199998,-32.7,-0.09577099,0.59378016,10.032011,-0.0029492574,-0.0013286319,-0.016989997,-0.05911689251661301,0.009546250104904175,-1.3955309391021729,1021.1482,
2021.01.10 21:41:19,72.0,24.0,30.66,3.4199998,-32.28,-0.14605077,0.5985687,9.938635,-0.020053484,-0.0025503624,-0.01882259,-0.06014730781316757,0.014694196172058582,-1.394364833831787,1021.1482,
2021.01.10 21:41:19,72.0,24.0,30.599998,3.6,-32.7,-0.021548472,0.5458947,10.0439825,-0.024940407,-0.0062155537,-0.025542108,-0.05429687723517418,0.002145407721400261,-1.3965916633605957,1021.1443,
2021.01.10 21:41:19,72.0,24.0,30.359999,3.54,-33.12,-0.031125572,0.531529,9.816526,-0.048764154,-0.05264131,-0.03165076,-0.05409324914216995,0.003170721000060439,-1.396392583847046,1021.1443,
2021.01.10 21:41:19,72.0,24.0,30.42,3.6599998,-33.48,0.047885496,0.54828894,10.1541195,-0.015777428,-0.0300393,-0.03592682,-0.05394371598958969,-0.004715833812952042,-1.3943471908569336,1021.1443,
2021.01.10 21:41:19,72.0,24.0,30.359999,3.4199998,-33.719997,-0.083799616,0.56744313,10.015251,-0.023107812,-0.016600264,-0.057917964,-0.05659542232751846,0.008367004804313183,-1.3952041864395142,1021.147,
2021.01.10 21:41:20,72.0,24.0,30.539999,3.6599998,-33.78,-0.10774237,0.51955765,9.931452,-0.0023383922,0.0017256943,-0.057917964,-0.05226365476846695,0.01084817759692669,-1.392512321472168,1021.147,
2021.01.10 21:41:20,72.0,24.0,30.72,3.72,-33.3,-0.03351985,0.48124924,10.084685,0.009268047,-0.016600264,-0.034094222,-0.047684360295534134,0.0033238246105611324,-1.3990943431854248,1021.15283,
2021.01.10 21:41:20,72.0,24.0,30.539999,3.48,-32.82,-0.14126222,0.53871185,9.890749,-0.0047818534,-0.0123242065,-0.022487782,-0.05440693348646164,0.014281285926699638,-1.3968664407730103,1021.15283,
2021.01.10 21:41:20,72.0,24.0,30.48,3.84,-32.76,-0.17717634,0.6201172,10.046377,0.0068245865,0.0017256943,-0.0072161513,-0.06163768097758293,0.017634015530347824,-1.376491665840149,1021.1526,
2021.01.10 21:41:20,72.0,24.0,30.539999,3.8999999,-32.7,-0.22506183,0.52913475,9.933846,-0.0017275269,-0.0104916105,0.009888076,-0.05320192873477936,0.022652186453342438,-1.3827325105667114,1021.1511,
2021.01.10 21:41:20,72.0,24.0,30.119999,3.9599998,-33.0,-0.038308397,0.47885495,10.175668,-0.007836179,-0.0086590145,0.035544414,-0.04702380299568176,0.0037646880373358727,-1.389058232307434,1021.1511,
2021.01.10 21:41:20,72.0,24.0,30.359999,4.3199997,-33.12,-0.045491222,0.43815228,9.821315,0.009268047,-0.022708915,0.030657494,-0.04458234831690788,0.004631854128092527,-1.3811547756195068,1021.15063,
2021.01.10 21:41:20,72.0,24.0,30.359999,4.2599998,-33.48,-0.031125572,0.53871185,10.060742,0.019652756,0.0145538645,0.01966192,-0.05349459499120712,0.0030937548726797104,-1.373470425605774,1021.15063,
2021.01.10 21:41:20,72.0,24.0,30.42,4.02,-33.66,0.2083019,0.40463245,10.05356,-0.03349252,0.007834347,0.02332711,-0.04021734744310379,-0.02071625366806984,-1.4006681442260742,1021.1467,
2021.01.10 21:41:20,72.0,24.0,30.84,3.8999999,-33.66,-0.0670397,0.505192,9.93624,0.0037702604,0.012110403,0.012942402,-0.05079847574234009,0.006746886298060417,-1.3894007205963135,1021.1477,
2021.01.10 21:41:20,72.0,24.0,30.779999,3.9599998,-33.54,-0.028731298,0.49800915,9.964972,-0.004170988,0.02921463,-0.0023292291,-0.04993422329425812,0.0028832214884459972,-1.3892136812210083,1021.1477,
2021.01.10 21:41:20,72.0,24.0,30.66,3.9599998,-33.18,0.023942748,0.48843205,10.185245,0.0049919905,0.02677117,-0.016989997,-0.04791802912950516,-0.002350724535062909,-1.3924360275268555,1021.1494,
2021.01.10 21:41:20,72.0,24.0,30.84,4.14,-32.46,-0.05506832,0.531529,10.067925,0.010489778,0.028603766,-0.020044321,-0.052744537591934204,0.005469624884426594,-1.3821334838867188,1021.1494,
2021.01.10 21:41:20,72.0,24.0,30.539999,4.74,-31.8,-0.08619389,0.45730647,9.96976,0.01904189,0.010277809,-0.020044321,-0.04583551734685898,0.0086453165858984,-1.3685972690582275,1021.1421,
2021.01.10 21:41:20,72.0,24.0,30.359999,4.3199997,-31.679998,-0.10774237,0.4932206,9.964972,0.016598431,0.006612616,-0.01882259,-0.04945219308137894,0.010811688378453255,-1.3768078088760376,1021.1382,
2021.01.10 21:41:20,72.0,24.0,30.599998,4.5,-31.98,-0.083799616,0.5650489,10.0439825,-0.007225314,-0.0025503624,-0.014546535,-0.056196264922618866,0.008343071676790714,-1.3659005165100098,1021.1382,
2021.01.10 21:41:21,72.0,24.0,30.42,4.74,-32.219997,-0.13886794,0.4932206,9.957788,0.017820163,-0.0049938234,-0.014546535,-0.049485884606838226,0.013944757170975208,-1.3620284795761108,1021.1384,
2021.01.10 21:41:21,72.0,24.0,30.66,4.56,-32.7,-0.08140534,0.49800915,10.08708,0.018431026,-0.0019394971,-0.009659612,-0.04932933300733566,0.008070083335042,-1.370239496231079,1021.1384,
2021.01.10 21:41:21,72.0,24.0,30.72,4.56,-32.7,-0.083799616,0.5219519,9.929058,0.020874487,-0.0025503624,0.0025576928,-0.052517909556627274,0.008439634926617146,-1.367242455482483,1021.13965,
2021.01.10 21:41:21,72.0,24.0,30.359999,4.56,-32.88,-0.14844504,0.4836435,10.058349,0.014154969,-0.0025503624,0.0025576928,-0.048041556030511856,0.014757320284843445,-1.3675884008407593,1021.13574,
2021.01.10 21:41:21,72.0,24.0,30.48,4.3199997,-33.18,-0.023942748,0.54350036,9.964972,0.0013267993,-0.0056046885,0.0068337494,-0.054486941546201706,0.0024026865139603615,-1.3719931840896606,1021.13574,
2021.01.10 21:41:21,72.0,24.0,30.359999,4.3199997,-33.18,-0.105348095,0.5219519,9.998491,0.015987566,-0.011102476,0.005612019,-0.052152831107378006,0.010536009445786476,-1.3715237379074097,1021.14404,
2021.01.10 21:41:21,72.0,24.0,30.48,4.2599998,-33.18,-0.045491222,0.4932206,9.9889145,0.0013267993,-0.0025503624,0.005612019,-0.04933621361851692,0.0045541394501924515,-1.3787250518798828,1021.14404,
2021.01.10 21:41:21,72.0,24.0,30.539999,3.9599998,-32.52,-0.102953814,0.55786604,9.921875,0.012322374,0.0053908858,0.006222884,-0.056163717061281204,0.01037607528269291,-1.381157398223877,1021.1516,
2021.01.10 21:41:21,72.0,24.0,30.48,3.84,-32.46,-0.08619389,0.5985687,10.084685,-0.0017275269,0.006001751,0.005001154,-0.05928250774741173,0.008546800352633,-1.3819632530212402,1021.14526,
2021.01.10 21:41:21,72.0,24.0,30.779999,3.48,-32.28,-0.07901107,0.5411061,10.015251,-0.005392718,0.009056077,0.0019468275,-0.05397405847907066,0.007888911291956902,-1.401124358177185,1021.14526,
2021.01.10 21:41:21,72.0,24.0,30.9,3.48,-32.46,-0.07422252,0.52674043,9.976943,0.011100643,0.00355829,-0.0017183638,-0.05274534225463867,0.007439267821609974,-1.4028263092041016,1021.156,
2021.01.10 21:41:21,72.0,24.0,31.38,3.54,-32.82,-0.047885496,0.56744313,10.07032,0.007435452,0.010888672,-0.0035509595,-0.05628791078925133,0.004755076020956039,-1.3998812437057495,1021.156,
2021.01.10 21:41:21,72.0,24.0,31.019999,3.48,-32.82,-0.13647367,0.5554718,9.905115,7.1593403E-4,0.008445213,-0.0072161513,-0.05601530149579048,0.013777229003608227,-1.3979666233062744,1021.15405,
2021.01.10 21:41:21,72.0,24.0,30.779999,3.78,-33.059998,-0.0670397,0.52674043,9.9889145,0.011711509,0.011499538,-0.0059944205,-0.05268251895904541,0.006711309310048819,-1.3918750286102295,1021.1592,
2021.01.10 21:41:21,72.0,24.0,30.66,3.8999999,-33.12,-0.11971374,0.5698374,9.931452,-0.0035601228,0.013942999,-0.0053835553,-0.05731005594134331,0.012053417973220348,-1.3810395002365112,1021.1592,
2021.01.10 21:41:21,72.0,24.0,30.66,3.72,-33.3,-0.11492519,0.5554718,9.996098,-0.015777428,0.015775595,-4.9663347E-4,-0.05550811439752579,0.011496498249471188,-1.3884947299957275,1021.15576,
2021.01.10 21:41:21,72.0,24.0,30.42,3.72,-33.0,-0.062251143,0.5961744,10.000886,-0.024940407,0.016997326,0.0068337494,-0.05954054743051529,0.006224482785910368,-1.3847070932388306,1021.15576,
2021.01.10 21:41:22,72.0,24.0,30.599998,3.78,-32.579998,-0.19393626,0.5865973,9.941029,0.014154969,0.08113818,-0.0023292291,-0.05892817676067352,0.019506197422742844,-1.3819122314453125,1021.1631,
2021.01.10 21:41:22,72.0,24.0,30.599998,4.14,-32.28,-0.23942748,0.56265455,9.981731,0.026983138,0.10862711,0.011109806,-0.056292690336704254,0.0239819698035717,-1.3725320100784302,1021.1587,
2021.01.10 21:41:22,72.0,24.0,30.66,4.3199997,-32.16,-0.24900457,0.531529,9.962578,0.020263622,0.06464481,0.016607594,-0.05328540876507759,0.02498878724873066,-1.3702582120895386,1021.1587,
2021.01.10 21:41:22,72.0,24.0,31.439999,4.74,-32.219997,-0.31365,0.61293435,9.955395,0.0153767,0.08419251,0.017218458,-0.06146002560853958,0.0314951129257679,-1.3517470359802246,1021.1487,
2021.01.10 21:41:22,72.0,24.0,31.38,4.56,-32.64,-0.23463893,0.5961744,9.98652,-0.014555697,0.05487097,0.031879224,-0.05961073189973831,0.02349124290049076,-1.3602755069732666,1021.1487,
2021.01.10 21:41:22,72.0,24.0,31.56,4.38,-32.88,-0.3328042,0.60335726,10.063137,0.01904189,0.07930558,0.026992302,-0.05985283851623535,0.03305956721305847,-1.3636620044708252,1021.14307,
2021.01.10 21:41:22,72.0,24.0,31.439999,4.2599998,-32.76,-0.44533512,0.4764607,9.301758,0.031259198,0.08663596,0.026381437,-0.05111946910619736,0.04783991724252701,-1.3722469806671143,1021.14404,
2021.01.10 21:41:22,72.0,24.0,31.439999,3.78,-32.52,0.0071828244,0.7853221,11.133378,0.027594006,0.012721268,0.038598742,-0.07042098045349121,-6.451611989177763E-4,-1.380586862564087,1021.14404,
