Time,X-cord,Y-cord,Mag_x,Mag_y,Mag_z,Acc_x,Acc_y,Acc_z,Gyro_x,Gyro_y,Gyro_z,Orn_x,Orn_y,Orn_z,Pressure,
2021.05.19 17:27:55,64.0,73.0,8.04,25.74,-35.1,-0.32561144,0.6679823,9.097966,0.004276057,0.040317107,-0.108123146,-0.07324282824993134,0.03577420860528946,-0.2354549616575241,1004.3623,
2021.05.19 17:27:55,64.0,73.0,7.98,25.68,-35.7,-0.031124622,0.7661445,10.010158,-0.16737708,-0.11362094,-0.02565634,-0.076387420296669,0.003109293757006526,-0.27091842889785767,1004.3623,
2021.05.19 17:27:55,64.0,73.0,8.04,25.74,-35.52,-0.22984336,0.62728083,9.744401,-0.07941248,-0.086132,-0.031154128,-0.06426694244146347,0.02358284965157509,-0.25187185406684875,1004.36255,
2021.05.19 17:27:55,64.0,73.0,7.98,26.099998,-35.399998,-0.20590134,0.6392518,9.722853,-0.021380283,-0.06169739,0.029321533,-0.06563819199800491,0.021173885092139244,-0.24943938851356506,1004.36255,
2021.05.19 17:27:55,64.0,73.0,8.46,25.98,-35.82,-0.18914193,0.5291186,9.82341,-0.02443461,-0.06841691,0.03481932,-0.053801070898771286,0.01925182342529297,-0.2717876732349396,1004.36255,
2021.05.19 17:27:55,64.0,73.0,7.9199996,25.8,-35.46,-0.19632454,0.4165911,9.895236,-0.039095376,-0.04886922,0.031154128,-0.04206705465912819,0.01983770728111267,-0.25860831141471863,1004.36255,
2021.05.19 17:27:55,64.0,73.0,7.7999997,26.22,-36.0,-0.16519992,0.36870706,9.55047,-0.009162978,-0.0030543262,0.03359759,-0.0385812409222126,0.017295842990279198,-0.2544277012348175,1004.3723,
2021.05.19 17:27:55,64.0,73.0,8.28,25.98,-36.059998,-0.02633622,0.5386954,9.31105,0.020158553,0.047036625,0.07941248,-0.057790838181972504,0.0028284830041229725,-0.28396686911582947,1004.3723,
2021.05.19 17:27:55,64.0,73.0,7.74,25.859999,-35.76,-0.12210429,0.58657944,9.076419,0.004886922,0.036651913,0.092240654,-0.06453117728233337,0.013452103361487389,-0.2526151239871979,1004.3723,
2021.05.19 17:27:55,64.0,73.0,8.34,26.34,-35.76,0.22744916,0.6536171,9.679757,-0.04337143,0.028710667,0.11911872,-0.06740322709083557,-0.023493081331253052,-0.30975937843322754,1004.3723,
2021.05.19 17:27:55,64.0,73.0,8.639999,25.8,-35.579998,0.031124622,0.61052144,10.529699,-0.122783914,-0.07391469,0.11301007,-0.057915810495615005,-0.0029558802489191294,-0.3046205937862396,1004.3655,
2021.05.19 17:27:55,64.0,73.0,8.4,25.98,-35.76,-0.05267244,0.8499416,9.121908,-0.027488936,0.020158553,0.118507855,-0.09290608018636703,0.005774214398115873,-0.27364999055862427,1004.3655,
2021.05.19 17:27:55,64.0,73.0,8.82,25.859999,-35.46,0.30406362,0.7445967,9.385271,0.014660766,0.02321288,0.1459968,-0.07912954688072205,-0.03238663077354431,-0.33568528294563293,1004.3655,
2021.05.19 17:27:55,64.0,73.0,8.58,26.099998,-35.52,0.1604115,0.24899697,10.254366,-0.10995574,-0.056199603,0.06841691,-0.024274304509162903,-0.015641964972019196,-0.3267790377140045,1004.3655,
2021.05.19 17:27:55,64.0,73.0,8.46,26.4,-35.399998,-0.19871874,0.08619126,10.596737,-0.076358154,-0.039095376,0.048258353,-0.0081321457400918,0.018750624731183052,-0.28416386246681213,1004.3655,
2021.05.19 17:27:55,64.0,73.0,7.7999997,25.859999,-35.52,0.19393034,0.7374141,9.150639,0.065973446,0.0061086523,0.18325958,-0.08039434254169464,-0.021189920604228973,-0.2903769314289093,1004.3655,
2021.05.19 17:27:55,64.0,73.0,7.56,26.279999,-35.7,0.47884035,1.1180922,9.516952,0.022602014,-0.08246681,0.16126843,-0.11680177599191666,-0.05027207359671593,-0.29996415972709656,1004.3655,
2021.05.19 17:27:55,64.0,73.0,7.62,25.92,-35.52,0.22744916,1.2521675,9.80665,-0.004276057,-0.06536258,0.06047566,-0.12696456909179688,-0.023189201951026917,-0.2726901173591614,1004.3655,
2021.05.19 17:27:55,64.0,73.0,7.56,26.22,-35.7,-0.25139117,0.9983821,10.000581,0.004276057,-0.06536258,-0.0012217305,-0.09947150200605392,0.02513236552476883,-0.2209441214799881,1004.37476,
2021.05.19 17:27:55,64.0,73.0,7.9199996,26.82,-36.059998,-0.18435353,0.7757214,9.768343,0.061086524,-0.054367006,0.03604105,-0.07923141866922379,0.018870307132601738,-0.23981638252735138,1004.37476,
2021.05.19 17:27:55,64.0,73.0,8.28,27.18,-36.059998,-0.035913024,0.50517654,9.797073,0.015882496,0.08735373,0.03481932,-0.05151805654168129,0.003665672615170479,-0.2738744914531708,1004.37476,
2021.05.19 17:27:56,64.0,73.0,8.04,27.0,-35.7,-0.045489833,0.4141969,9.514558,0.08735373,-0.052534413,0.019547688,-0.043504998087882996,0.004781040363013744,-0.2691423296928406,1004.37476,
2021.05.19 17:27:56,64.0,73.0,8.4,26.46,-35.28,-0.11492168,0.45250413,9.428367,0.03970624,0.07819075,0.010995574,-0.04795354977250099,0.012188324704766273,-0.27611300349235535,1004.3789,
2021.05.19 17:27:56,64.0,73.0,9.179999,26.22,-35.04,0.05267244,0.6560113,9.454702,0.03176499,0.01282817,0.048258353,-0.06927255541086197,-0.005570973269641399,-0.316980242729187,1004.3789,
2021.05.19 17:27:56,64.0,73.0,8.82,25.32,-34.739998,0.06464344,0.8595184,9.720459,0.0,0.02076942,0.050701816,-0.08819232136011124,-0.006650147493928671,-0.3097814619541168,1004.3789,
2021.05.19 17:27:56,64.0,73.0,9.059999,25.619999,-35.16,0.18195933,0.93613285,9.7084875,0.0036651916,-0.002443461,0.070249505,-0.09611021727323532,-0.018740100786089897,-0.3247923254966736,1004.3789,
2021.05.19 17:27:56,64.0,73.0,9.36,25.26,-35.1,0.16998832,0.8451532,10.043676,0.0012217305,-0.0842994,0.057421334,-0.08393806219100952,-0.016923295333981514,-0.34039798378944397,1004.3638,
2021.05.19 17:27:56,64.0,73.0,8.82,24.9,-35.1,0.031124622,0.6823475,10.129868,-0.0030543262,-0.0720821,0.052534413,-0.06725803762674332,-0.003072550054639578,-0.3171396255493164,1004.3638,
2021.05.19 17:27:56,64.0,73.0,9.0,25.019999,-35.399998,0.1436521,0.6919243,9.696517,0.06780604,-0.047036625,0.080634214,-0.071229487657547,-0.014813730493187904,-0.3337603211402893,1004.3638,
2021.05.19 17:27:56,64.0,73.0,9.42,24.96,-34.92,0.11731588,0.61770403,9.339781,0.084910266,-0.018325957,0.050701816,-0.06603551656007767,-0.012560220435261726,-0.34767475724220276,1004.3638,
2021.05.19 17:27:56,64.0,73.0,8.94,25.38,-35.16,0.01436521,0.5410896,9.569624,0.03726278,0.0,0.002443461,-0.05648220330476761,-0.0015011248178780079,-0.3179543912410736,1004.3689,
2021.05.19 17:27:56,64.0,73.0,9.0,25.859999,-35.34,-0.062249243,0.557849,9.234436,0.01282817,0.058643065,-0.018325957,-0.0603349506855011,0.006740888115018606,-0.30379676818847656,1004.3689,
2021.05.19 17:27:56,64.0,73.0,8.94,25.98,-35.64,-0.07182605,0.78290397,9.234436,-0.015271631,0.08674286,-0.013439035,-0.08457611501216888,0.007777908816933632,-0.29118508100509644,1004.3689,
2021.05.19 17:27:56,64.0,73.0,8.76,25.859999,-35.64,-0.09816227,0.7278373,9.643845,-0.06780604,0.055588737,-0.018325957,-0.07532501220703125,0.0101783974096179,-0.28675299882888794,1004.3689,
2021.05.19 17:27:56,64.0,73.0,9.12,25.5,-35.88,-0.088585466,0.7182605,9.931149,-0.086132,0.03604105,-0.010995574,-0.07219544053077698,0.008919725194573402,-0.304217666387558,1004.3721,
2021.05.19 17:27:56,64.0,73.0,9.48,25.5,-35.28,0.11252748,0.80205756,9.61272,-0.026267206,0.014049901,0.029321533,-0.0832386240363121,-0.011705568060278893,-0.3358845114707947,1004.3721,
2021.05.19 17:27:56,64.0,73.0,9.84,25.38,-34.98,0.23223756,0.6871359,10.053253,-0.03604105,-0.03359759,0.029321533,-0.06822531670331955,-0.023096630349755287,-0.36702972650527954,1004.3721,
2021.05.19 17:27:56,64.0,73.0,9.719999,24.9,-35.219997,0.35434186,0.8738836,9.315839,0.015882496,-0.014660766,0.009162978,-0.09346532821655273,-0.03801816701889038,-0.37542492151260376,1004.3721,
2021.05.19 17:27:56,64.0,73.0,9.48,25.199999,-35.219997,0.21068975,0.6344634,10.21127,-0.021991149,-0.028710667,-0.036651913,-0.062040701508522034,-0.020630134269595146,-0.3574399948120117,1004.35815,
2021.05.19 17:27:56,64.0,73.0,9.24,24.72,-35.46,-0.20350714,0.4261679,10.158598,-0.055588737,-0.05009095,-0.105068825,-0.04191846400499344,0.020030315965414047,-0.3147706687450409,1004.35815,
2021.05.19 17:27:56,64.0,73.0,9.3,24.96,-35.52,0.20590134,0.92176765,9.085996,0.0421497,0.026267206,0.017715093,-0.10107758641242981,-0.022657517343759537,-0.34181827306747437,1004.35815,
2021.05.19 17:27:56,64.0,73.0,9.24,25.68,-35.16,-0.050278235,0.80205756,9.085996,-0.009162978,-0.02321288,-0.03359759,-0.08804447948932648,0.005533540155738592,-0.3055466115474701,1004.35815,
2021.05.19 17:27:56,64.0,73.0,9.059999,25.74,-34.98,-0.10055647,0.5602432,9.907207,-0.06719518,-0.032986723,-0.040927973,-0.056485991925001144,0.010149482637643814,-0.3046896755695343,1004.35474,
2021.05.19 17:27:56,64.0,73.0,8.5199995,25.8,-35.04,-0.08619126,0.4189853,10.103531,-0.03726278,6.1086525E-4,-0.02321288,-0.04144394025206566,0.008530598133802414,-0.29317423701286316,1004.35474,
2021.05.19 17:27:56,64.0,73.0,8.22,25.5,-35.1,-0.02873042,0.40701428,9.825804,0.002443461,0.036651913,0.002443461,-0.04139915481209755,0.0029239682480692863,-0.29274338483810425,1004.35474,
2021.05.19 17:27:56,64.0,73.0,7.98,25.14,-35.46,0.079008654,0.46686932,9.473856,0.009162978,0.06719518,0.017715093,-0.049238212406635284,-0.008339458145201206,-0.2989562153816223,1004.35474,
2021.05.19 17:27:57,64.0,73.0,7.98,24.96,-35.399998,0.22266077,0.49320555,9.330204,-0.004276057,0.03176499,0.02076942,-0.05279701575636864,-0.023859981447458267,-0.3182078003883362,1004.3638,
2021.05.19 17:27:57,64.0,73.0,8.58,24.96,-35.579998,0.1340753,0.48123455,9.739613,-0.06169739,0.0030543262,0.004886922,-0.04936521127820015,-0.013765108771622181,-0.3276703655719757,1004.3638,
2021.05.19 17:27:57,64.0,73.0,8.76,25.08,-35.34,0.15801731,0.47405192,10.350134,-0.06841691,-0.03359759,0.004886922,-0.04576421529054642,-0.015265990048646927,-0.3355382978916168,1004.3638,
2021.05.19 17:27:57,64.0,73.0,9.179999,24.84,-35.1,0.1340753,0.5554548,9.847352,-0.009773844,0.025045475,0.018325957,-0.056341592222452164,-0.013614524155855179,-0.34621137380599976,1004.3638,
2021.05.19 17:27:57,64.0,73.0,9.12,24.72,-34.98,0.2633622,0.60333884,9.6845455,0.020158553,-0.03970624,0.037873644,-0.0621957927942276,-0.027187367901206017,-0.35897332429885864,1004.3684,
2021.05.19 17:27:57,64.0,73.0,8.76,25.08,-34.739998,0.2777274,0.5506664,9.483433,-0.0012217305,-0.026267206,0.018936822,-0.057976219803094864,-0.029277164489030838,-0.34688282012939453,1004.3684,
2021.05.19 17:27:57,64.0,73.0,8.76,24.96,-34.92,0.10534488,0.61770403,9.643845,-0.009773844,-0.06414085,0.0036651916,-0.06396045535802841,-0.010923100635409355,-0.3249315619468689,1004.3684,
2021.05.19 17:27:57,64.0,73.0,8.7,25.74,-34.68,0.02633622,0.6991069,9.478644,-0.01038471,-0.02076942,-0.020158553,-0.07362240552902222,-0.002778472611680627,-0.3021666705608368,1004.3684,
2021.05.19 17:27:57,64.0,73.0,9.0,26.279999,-34.92,-0.09816227,0.59615624,9.768343,-0.010995574,-0.040927973,-0.03848451,-0.060950737446546555,0.010048680938780308,-0.2959643304347992,1004.3699,
2021.05.19 17:27:57,64.0,73.0,9.179999,25.92,-34.8,-0.14604631,0.5506664,9.679757,0.002443461,-0.0018325958,-0.045814894,-0.05682075023651123,0.015086662024259567,-0.3011525273323059,1004.3699,
2021.05.19 17:27:57,64.0,73.0,9.3,26.22,-34.68,-0.019153614,0.46447513,9.844957,6.1086525E-4,0.018325957,-0.030543262,-0.04714393988251686,0.0019455228466540575,-0.32036423683166504,1004.3699,
2021.05.19 17:27:57,64.0,73.0,9.36,25.74,-35.28,-0.050278235,0.4165911,9.64145,0.002443461,0.04520403,-0.02443461,-0.04318090155720711,0.005214753095060587,-0.32490402460098267,1004.3699,
2021.05.19 17:27:57,64.0,73.0,9.36,25.8,-34.92,0.02873042,0.4381389,9.737218,0.0018325958,0.01282817,-0.002443461,-0.04496578499674797,-0.0029505693819373846,-0.3331899046897888,1004.3755,
2021.05.19 17:27:57,64.0,73.0,9.059999,26.34,-35.04,0.16280572,0.46926352,9.763555,-0.022602014,0.026267206,0.02443461,-0.048019152134656906,-0.016673294827342033,-0.3318440616130829,1004.3755,
2021.05.19 17:27:57,64.0,73.0,8.7,26.34,-35.219997,0.15083471,0.5530606,9.610326,-0.002443461,6.1086525E-4,0.056199603,-0.05747811123728752,-0.015693778172135353,-0.3158394694328308,1004.3755,
2021.05.19 17:27:57,64.0,73.0,8.82,26.22,-34.68,0.1436521,0.5267244,9.988609,-0.043982297,-0.02443461,0.049480084,-0.052678268402814865,-0.014380600303411484,-0.32122090458869934,1004.3755,
2021.05.19 17:27:57,64.0,73.0,8.34,25.98,-34.86,0.24899697,0.6344634,9.832987,-0.012217305,-0.052534413,0.07513642,-0.06441406160593033,-0.025317208841443062,-0.3164525330066681,1004.36694,
2021.05.19 17:27:57,64.0,73.0,8.58,25.619999,-34.739998,0.35434186,0.7469909,9.41879,0.037873644,-0.015271631,0.070249505,-0.07908722013235092,-0.03760300576686859,-0.33635836839675903,1004.36694,
2021.05.19 17:27:57,64.0,73.0,8.76,25.74,-34.8,0.12928689,0.58897364,9.945514,-0.007330383,-0.02443461,0.0067195175,-0.0591459646821022,-0.012998785823583603,-0.3205569088459015,1004.36694,
2021.05.19 17:27:57,64.0,73.0,8.639999,26.099998,-35.219997,-0.047884032,0.47644615,9.746795,0.008552114,-0.014660766,-0.025045475,-0.04884286969900131,0.004912758711725473,-0.295733779668808,1004.36694,
2021.05.19 17:27:57,64.0,73.0,9.0,26.46,-35.34,0.08140286,0.5650316,9.560047,0.02565634,0.007941248,0.01282817,-0.0590326227247715,-0.008514695800840855,-0.3154987394809723,1004.3689,
2021.05.19 17:27:57,64.0,73.0,9.24,26.699999,-35.34,0.07182605,0.5434838,9.821015,0.022602014,-0.04337143,0.022602014,-0.05528100207448006,-0.007313374895602465,-0.32056039571762085,1004.3689,
2021.05.19 17:27:57,64.0,73.0,9.36,26.34,-35.219997,0.12689269,0.45968673,9.854534,0.03604105,-0.031154128,0.036651913,-0.046609580516815186,-0.012875867076218128,-0.33767467737197876,1004.3689,
2021.05.19 17:27:57,64.0,73.0,9.3,25.98,-35.28,0.30406362,0.5530606,9.591172,0.061086524,-0.030543262,0.044593163,-0.05757085606455803,-0.03169183060526848,-0.3566476106643677,1004.3689,
2021.05.19 17:27:57,64.0,73.0,9.36,25.14,-35.34,0.1436521,0.5243302,9.543288,0.03604105,-0.017104227,0.008552114,-0.054880913347005844,-0.01505154650658369,-0.3507547378540039,1004.37134,
2021.05.19 17:27:58,64.0,73.0,9.059999,25.14,-35.16,0.31603462,0.5650316,9.581595,0.015882496,-0.01160644,0.023823744,-0.058870356529951096,-0.03297155350446701,-0.35987573862075806,1004.37134,
2021.05.19 17:27:58,64.0,73.0,9.059999,25.14,-35.34,0.24660277,0.5363012,9.572019,0.018936822,-0.02565634,0.0012217305,-0.05595096945762634,-0.025757184252142906,-0.3528761565685272,1004.37134,
2021.05.19 17:27:58,64.0,73.0,9.179999,25.199999,-35.579998,0.17238252,0.641646,9.483433,-0.007330383,0.008552114,-0.002443461,-0.06754559278488159,-0.01817522570490837,-0.342771053314209,1004.37134,
2021.05.19 17:27:58,64.0,73.0,9.179999,25.8,-35.399998,0.32800564,0.6631939,9.840169,-0.018325957,-0.04153884,-0.0061086523,-0.06725757569074631,-0.03332099691033363,-0.35305356979370117,1004.3718,
2021.05.19 17:27:58,64.0,73.0,9.42,25.68,-35.52,0.14844051,0.5793968,10.014946,-0.034208454,0.0067195175,-0.030543262,-0.05778246000409126,-0.014820813201367855,-0.3449327349662781,1004.3718,
2021.05.19 17:27:58,64.0,73.0,9.36,25.68,-35.219997,0.36870706,0.7278373,9.5385,0.034208454,6.1086525E-4,-6.1086525E-4,-0.07610101997852325,-0.03863538056612015,-0.36243364214897156,1004.3718,
2021.05.19 17:27:58,64.0,73.0,9.0,25.5,-34.559998,0.37349546,0.6775591,9.928755,-0.008552114,0.0012217305,-0.029932396,-0.06808845698833466,-0.037599824368953705,-0.3549749255180359,1004.3718,
2021.05.19 17:27:58,64.0,73.0,8.76,25.14,-35.04,0.1604115,0.5506664,9.746795,0.013439035,0.014049901,-0.06169739,-0.056429557502269745,-0.01645638793706894,-0.332115113735199,1004.36475,
2021.05.19 17:27:58,64.0,73.0,8.5199995,24.9,-34.8,0.2657564,0.6823475,9.41879,0.036651913,0.020158553,-0.03604105,-0.07229033857584,-0.028208071365952492,-0.33447539806365967,1004.36475,
2021.05.19 17:27:58,64.0,73.0,8.46,25.08,-34.98,0.24181437,0.59615624,9.816227,-0.0036651916,-0.009773844,-0.050701816,-0.060638852417469025,-0.02462916634976864,-0.33074456453323364,1004.36475,
2021.05.19 17:27:58,64.0,73.0,8.82,25.38,-35.399998,0.18674773,0.60573304,9.636662,0.014049901,-0.002443461,-0.06169739,-0.0627628043293953,-0.01937645673751831,-0.3323170840740204,1004.36475,
2021.05.19 17:27:58,64.0,73.0,8.76,25.56,-34.68,0.21068975,0.6560113,9.701305,0.008552114,0.009773844,-0.059253927,-0.06750227510929108,-0.021714257076382637,-0.32933342456817627,1004.35547,
2021.05.19 17:27:58,64.0,73.0,8.34,25.5,-35.16,0.16759412,0.61530983,9.768343,0.004886922,-0.012217305,-0.069027774,-0.06289784610271454,-0.017155177891254425,-0.3127780556678772,1004.35547,
2021.05.19 17:27:58,64.0,73.0,8.5199995,25.38,-35.399998,0.17477672,0.6775591,9.660604,0.009773844,-0.004886922,-0.055588737,-0.0700102224946022,-0.018089724704623222,-0.3184412717819214,1004.35547,
2021.05.19 17:27:58,64.0,73.0,8.34,25.199999,-34.98,0.047884032,0.6392518,9.696517,0.0061086523,-0.02565634,-0.052534413,-0.06582985818386078,-0.004938230849802494,-0.30077439546585083,1004.35547,
2021.05.19 17:27:58,64.0,73.0,8.5199995,25.08,-35.16,0.17238252,0.6775591,9.835381,0.004886922,-0.027488936,-0.03726278,-0.06877077370882034,-0.01752498187124729,-0.32151374220848083,1004.3616,
2021.05.19 17:27:58,64.0,73.0,8.82,24.96,-34.98,0.17717093,0.6991069,9.720459,0.0018325958,-0.020158553,-0.026267206,-0.07178567349910736,-0.018224583938717842,-0.33239370584487915,1004.3616,
2021.05.19 17:27:58,64.0,73.0,8.22,25.14,-35.219997,0.18195933,0.6703765,9.61272,0.029321533,-0.027488936,-0.032375857,-0.06961333006620407,-0.01892675831913948,-0.31231945753097534,1004.3616,
2021.05.19 17:27:58,64.0,73.0,7.98,25.38,-35.46,0.20829555,0.6631939,9.629479,0.0067195175,-0.015882496,-0.028099801,-0.06874658912420273,-0.021627657115459442,-0.30535104870796204,1004.3616,
2021.05.19 17:27:58,64.0,73.0,7.68,25.439999,-35.52,0.12928689,0.6344634,9.667787,0.01160644,-0.0421497,-0.03359759,-0.06552672386169434,-0.01337215956300497,-0.2862491309642792,1004.36475,
2021.05.19 17:27:58,64.0,73.0,7.62,26.099998,-35.82,0.19393034,0.7062895,9.734824,-0.016493361,-0.02565634,-0.01160644,-0.07241165637969971,-0.019918663427233696,-0.28337109088897705,1004.36475,
2021.05.19 17:27:58,64.0,73.0,7.5,26.16,-35.399998,0.22505496,0.7038953,9.634268,0.014660766,-0.036651913,-0.005497787,-0.07291222363710403,-0.023355593904852867,-0.2827233076095581,1004.36475,
2021.05.19 17:27:58,64.0,73.0,7.3799996,26.279999,-35.76,0.25617957,0.7302315,9.763555,-0.005497787,-0.010995574,-0.01282817,-0.07462698221206665,-0.02623233199119568,-0.28055259585380554,1004.36475,
2021.05.19 17:27:58,64.0,73.0,7.02,26.64,-36.18,0.050278235,0.62728083,9.679757,0.0030543262,0.01038471,-0.032375857,-0.06471201032400131,-0.00519411638379097,-0.24424484372138977,1004.3589,
2021.05.19 17:27:58,64.0,73.0,6.8399997,26.64,-36.0,0.16519992,0.7015011,9.617508,0.004886922,0.01160644,0.002443461,-0.07280036062002182,-0.017175309360027313,-0.2502138912677765,1004.3589,
2021.05.19 17:27:59,64.0,73.0,7.2599998,26.279999,-36.42,0.2753332,0.6799533,9.787497,-0.002443461,-0.002443461,0.008552114,-0.06933283805847168,-0.028123697265982628,-0.2806853950023651,1004.3589,
2021.05.19 17:27:59,64.0,73.0,7.74,26.34,-35.88,0.2777274,0.6679823,9.871294,6.1086525E-4,-0.0030543262,0.008552114,-0.0675395205616951,-0.028127431869506836,-0.29593735933303833,1004.3589,
2021.05.19 17:27:59,64.0,73.0,8.099999,25.8,-35.64,0.29209262,0.7374141,9.569624,0.022602014,0.025045475,0.015882496,-0.0768701583147049,-0.030513422563672066,-0.3123350739479065,1004.36304,
2021.05.19 17:27:59,64.0,73.0,8.4,25.32,-35.88,0.2753332,0.7086837,9.662998,0.01160644,0.0018325958,0.004886922,-0.07317927479743958,-0.028485851362347603,-0.3260367214679718,1004.36304,
2021.05.19 17:27:59,64.0,73.0,8.58,25.26,-35.88,0.29927522,0.6751649,9.713276,0.004886922,0.012217305,-0.0018325958,-0.06936506181955338,-0.03080120123922825,-0.3365974426269531,1004.36304,
2021.05.19 17:27:59,64.0,73.0,7.98,25.199999,-36.239998,0.1316811,0.62009823,9.65821,0.01282817,0.0018325958,-0.01038471,-0.06411031633615494,-0.01363326609134674,-0.2992710769176483,1004.36304,
2021.05.19 17:27:59,64.0,73.0,8.04,25.32,-36.36,0.2873042,0.6823475,9.595961,0.01282817,6.1086525E-4,0.01282817,-0.07095661014318466,-0.02993117645382881,-0.3169728219509125,1004.36743,
2021.05.19 17:27:59,64.0,73.0,7.68,25.74,-36.6,0.24899697,0.6440403,9.648633,-6.1086525E-4,0.004276057,0.005497787,-0.06662839651107788,-0.02580072544515133,-0.29764533042907715,1004.36743,
2021.05.19 17:27:59,64.0,73.0,7.7999997,26.039999,-36.12,0.22744916,0.63206923,9.703699,-0.009773844,0.017104227,-0.005497787,-0.06502723693847656,-0.023435136303305626,-0.2962569296360016,1004.36743,
2021.05.19 17:27:59,64.0,73.0,7.7999997,25.92,-35.88,0.22026655,0.6775591,9.591172,0.0,0.015882496,0.002443461,-0.07050833851099014,-0.022961514070630074,-0.29503315687179565,1004.36743,
2021.05.19 17:27:59,64.0,73.0,8.099999,25.98,-35.94,0.21787235,0.6799533,9.674969,-0.01282817,0.002443461,-0.002443461,-0.07014653831720352,-0.022515373304486275,-0.3036957383155823,1004.36304,
2021.05.19 17:27:59,64.0,73.0,8.28,25.56,-35.52,0.20111294,0.6727707,9.840169,-0.020158553,0.0061086523,-0.0012217305,-0.06824939697980881,-0.020435109734535217,-0.3120614290237427,1004.36304,
2021.05.19 17:27:59,64.0,73.0,7.98,25.26,-35.399998,0.25378537,0.6895301,9.672575,-0.0018325958,0.004886922,0.0061086523,-0.07114233821630478,-0.02623160369694233,-0.311104416847229,1004.36304,
2021.05.19 17:27:59,64.0,73.0,8.4,25.199999,-35.579998,0.25139117,0.6631939,9.600749,0.014660766,-0.0067195175,0.01160644,-0.06894419342279434,-0.026178555563092232,-0.3262055516242981,1004.36304,
2021.05.19 17:27:59,64.0,73.0,7.74,25.199999,-35.16,0.25617957,0.6631939,9.627085,-0.0030543262,-0.004276057,0.009162978,-0.06875541061162949,-0.02660401538014412,-0.30506619811058044,1004.36304,
2021.05.19 17:27:59,64.0,73.0,7.74,25.08,-35.34,0.17717093,0.6440403,9.593566,-0.01282817,0.017715093,-0.0030543262,-0.06702055037021637,-0.01846558228135109,-0.29737961292266846,1004.36304,
2021.05.19 17:27:59,64.0,73.0,7.62,25.5,-35.88,0.14604631,0.6727707,9.540894,-0.03481932,0.01282817,-0.012217305,-0.07038968801498413,-0.015306208282709122,-0.2843100130558014,1004.36304,
2021.05.19 17:27:59,64.0,73.0,7.3199997,25.5,-35.52,0.076614454,0.5674258,9.813833,-0.034208454,-0.0036651916,-0.007330383,-0.05775291845202446,-0.007806623354554176,-0.26949363946914673,1004.36304,
2021.05.19 17:27:59,64.0,73.0,7.68,25.26,-35.82,0.17238252,0.62967503,9.9790325,-0.055588737,0.012217305,0.0030543262,-0.06300688534975052,-0.01727275364100933,-0.29347890615463257,1004.3679,
2021.05.19 17:27:59,64.0,73.0,8.04,25.38,-35.16,0.37828386,0.7661445,9.811439,0.0012217305,0.029321533,0.007330383,-0.07787111401557922,-0.038536302745342255,-0.3233962953090668,1004.3679,
2021.05.19 17:27:59,64.0,73.0,8.76,25.26,-34.68,0.33758244,0.6440403,9.689334,0.010995574,-0.014049901,0.007941248,-0.06633123755455017,-0.03482653573155403,-0.3477727174758911,1004.3679,
2021.05.19 17:27:59,64.0,73.0,9.24,25.14,-34.559998,0.31364042,0.6799533,9.627085,0.015271631,0.028710667,-0.028710667,-0.07047484070062637,-0.03256744146347046,-0.3604333698749542,1004.3679,
2021.05.19 17:27:59,64.0,73.0,9.059999,25.619999,-34.38,0.076614454,0.56982,9.67018,0.01282817,-0.032375857,-0.02687807,-0.0588555745780468,-0.007922587916254997,-0.32612162828445435,1004.3645,
2021.05.19 17:27:59,64.0,73.0,8.58,25.56,-35.16,0.1364695,0.5554548,9.586384,0.010995574,-0.018325957,-0.013439035,-0.057871490716934204,-0.01423480175435543,-0.3184277415275574,1004.3645,
2021.05.19 17:27:59,64.0,73.0,7.7999997,25.439999,-35.76,0.09816227,0.5650316,9.7084875,-0.004276057,-0.009773844,-0.01038471,-0.05813121050596237,-0.010110629722476006,-0.28878849744796753,1004.3645,
2021.05.19 17:28:00,64.0,73.0,7.5,25.439999,-35.82,0.1436521,0.58418524,9.710882,-0.0036651916,0.010995574,-6.1086525E-4,-0.06007882207632065,-0.014791819266974926,-0.283697247505188,1004.3645,
2021.05.19 17:28:00,64.0,73.0,7.98,25.439999,-36.18,0.29448682,0.7158663,9.615114,0.01038471,-0.002443461,0.0061086523,-0.07428038120269775,-0.03061792068183422,-0.31333866715431213,1004.37646,
2021.05.19 17:28:00,64.0,73.0,8.34,25.619999,-35.76,0.23942018,0.7350199,9.7803135,-0.013439035,0.018936822,-0.015882496,-0.07498961687088013,-0.024474916979670525,-0.3156437575817108,1004.37646,
2021.05.19 17:28:00,64.0,73.0,8.82,25.68,-35.46,0.23942018,0.6607997,9.694122,0.0036651916,0.010995574,-0.023823744,-0.06803901493549347,-0.024692438542842865,-0.33308568596839905,1004.37646,
2021.05.19 17:28:00,64.0,73.0,8.639999,26.039999,-35.76,0.18435353,0.62488663,9.854534,-6.1086525E-4,-0.009773844,-0.026267206,-0.063315249979496,-0.018705300986766815,-0.3183707594871521,1004.37646,
2021.05.19 17:28:00,64.0,73.0,8.46,25.859999,-35.34,0.11252748,0.6464345,9.627085,0.021380283,6.1086525E-4,-0.015271631,-0.0670422688126564,-0.011688102968037128,-0.30520108342170715,1004.375,
2021.05.19 17:28:00,64.0,73.0,8.34,25.74,-35.46,0.15083471,0.6368576,9.7324295,0.01038471,-0.007941248,-0.005497787,-0.06533566862344742,-0.015496915206313133,-0.3074721395969391,1004.375,
2021.05.19 17:28:00,64.0,73.0,7.7999997,25.98,-34.92,0.1388637,0.62967503,9.629479,0.010995574,-0.004276057,-0.004276057,-0.06529061496257782,-0.014419686049222946,-0.2863759994506836,1004.375,
2021.05.19 17:28:00,64.0,73.0,7.62,25.56,-35.04,0.011971008,0.5793968,9.794679,-0.0012217305,-0.004886922,-0.009162978,-0.05908534675836563,-0.0012221945216879249,-0.270967036485672,1004.375,
2021.05.19 17:28:00,64.0,73.0,7.5,25.56,-35.28,0.19871874,0.6655881,9.485827,0.015882496,0.015271631,0.022602014,-0.07003645598888397,-0.020945951342582703,-0.2865554988384247,1004.374,
2021.05.19 17:28:00,64.0,73.0,7.62,25.619999,-35.16,0.18435353,0.58657944,9.890448,-0.014660766,-0.017715093,0.012217305,-0.05922802537679672,-0.01863739639520645,-0.2907818853855133,1004.374,
2021.05.19 17:28:00,64.0,73.0,7.8599997,25.38,-35.28,0.19393034,0.6512229,9.718064,-0.005497787,0.0061086523,0.02076942,-0.06689827144145966,-0.019953006878495216,-0.30009180307388306,1004.374,
2021.05.19 17:28:00,64.0,73.0,8.04,25.56,-35.219997,0.3878607,0.7637503,9.61272,0.015271631,0.0,0.03848451,-0.07922131568193436,-0.04032682254910469,-0.3230353593826294,1004.374,
2021.05.19 17:28:00,64.0,73.0,8.58,25.32,-35.219997,0.29688102,0.6512229,9.792285,0.0,-0.01282817,0.0036651916,-0.06637547165155411,-0.030308565124869347,-0.3363414406776428,1004.375,
2021.05.19 17:28:00,64.0,73.0,8.4,25.32,-35.7,0.21787235,0.62728083,9.682152,0.004886922,-0.008552114,-0.005497787,-0.06468059867620468,-0.02249867469072342,-0.3221997916698456,1004.375,
2021.05.19 17:28:00,64.0,73.0,8.34,25.32,-35.94,0.074220255,0.5793968,9.713276,0.005497787,-0.0030543262,-0.01038471,-0.05957765132188797,-0.007640966214239597,-0.30449193716049194,1004.375,
2021.05.19 17:28:00,64.0,73.0,8.34,25.26,-35.579998,0.23223756,0.6607997,9.655815,0.008552114,-0.007330383,0.015882496,-0.06830918043851852,-0.024046938866376877,-0.3213598430156708,1004.375,
2021.05.19 17:28:00,64.0,73.0,7.9199996,25.38,-35.64,0.1436521,0.62488663,9.749189,-0.005497787,-0.005497787,0.013439035,-0.06400177627801895,-0.014733707532286644,-0.2969089448451996,1004.37085,
2021.05.19 17:28:00,64.0,73.0,8.28,25.8,-35.28,0.29688102,0.6823475,9.679757,0.007330383,-0.005497787,0.02076942,-0.07034282386302948,-0.030660685151815414,-0.32043179869651794,1004.37085,
2021.05.19 17:28:00,64.0,73.0,8.22,25.74,-35.219997,0.31124622,0.6871359,9.665392,0.004276057,-0.0018325958,0.020158553,-0.07093634456396103,-0.03219100832939148,-0.3206464946269989,1004.37085,
2021.05.19 17:28:00,64.0,73.0,8.58,25.619999,-35.16,0.2777274,0.6368576,9.653421,-6.1086525E-4,-0.010995574,0.0,-0.06584958732128143,-0.028761906549334526,-0.33142995834350586,1004.37085,
2021.05.19 17:28:00,64.0,73.0,8.7,25.38,-35.16,0.25378537,0.6607997,9.787497,-0.005497787,0.004886922,-0.007330383,-0.06738980114459991,-0.02592374011874199,-0.33417901396751404,1004.36206,
2021.05.19 17:28:00,64.0,73.0,8.34,25.199999,-35.16,0.17956513,0.6440403,9.622296,0.0036651916,-0.0012217305,-0.012217305,-0.06682080030441284,-0.0186591949313879,-0.3163159191608429,1004.36206,
2021.05.19 17:28:00,64.0,73.0,8.16,25.14,-35.28,0.20829555,0.6655881,9.782708,-0.013439035,-0.010995574,-0.0067195175,-0.06791715323925018,-0.021289002150297165,-0.3136843144893646,1004.36206,
2021.05.19 17:28:00,64.0,73.0,7.98,25.38,-35.219997,0.24899697,0.6871359,9.694122,0.007330383,-0.007330383,0.005497787,-0.07074009627103806,-0.025679707527160645,-0.30933454632759094,1004.36206,
2021.05.19 17:28:01,64.0,73.0,7.62,25.38,-35.1,0.2777274,0.6607997,9.7084875,0.0018325958,-0.007330383,-0.004276057,-0.06793160736560822,-0.028598859906196594,-0.30183109641075134,1004.3616,
2021.05.19 17:28:01,64.0,73.0,7.5,25.26,-35.04,0.14604631,0.6392518,9.859323,-0.004886922,-0.0030543262,-0.015271631,-0.06473958492279053,-0.014811933040618896,-0.28403207659721375,1004.3616,
2021.05.19 17:28:01,64.0,73.0,8.46,25.56,-34.86,0.21547815,0.7062895,9.3421755,0.03176499,0.0036651916,0.004276057,-0.0754387229681015,-0.023061003535985947,-0.3183896243572235,1004.3616,
2021.05.19 17:28:01,64.0,73.0,8.16,25.439999,-35.16,0.22505496,0.6679823,9.909601,-0.02565634,-0.015882496,-0.002443461,-0.06728846579790115,-0.02270689606666565,-0.3123664855957031,1004.3616,
2021.05.19 17:28:01,64.0,73.0,8.46,25.92,-35.579998,0.19153613,0.641646,9.710882,0.004276057,6.1086525E-4,-0.004886922,-0.06596624851226807,-0.01972130686044693,-0.3140968680381775,1004.3689,
2021.05.19 17:28:01,64.0,73.0,8.58,25.859999,-35.399998,0.31364042,0.7134721,9.617508,0.009162978,-0.004276057,0.009773844,-0.07400988042354584,-0.03259984776377678,-0.33021461963653564,1004.3689,
2021.05.19 17:28:01,64.0,73.0,8.099999,25.56,-35.82,0.39743748,0.7206547,9.619903,0.0018325958,-0.009162978,-0.0018325958,-0.07470972836017609,-0.04129060357809067,-0.3279225826263428,1004.3689,
2021.05.19 17:28:01,64.0,73.0,7.8599997,26.039999,-35.88,0.34237084,0.6464345,9.710882,-0.007941248,-0.017715093,-0.035430185,-0.06642883270978928,-0.03524181246757507,-0.31127411127090454,1004.3689,
2021.05.19 17:28:01,64.0,73.0,7.8599997,25.74,-35.28,0.2753332,0.6943185,9.464279,-6.1086525E-4,-0.018325957,-0.047036625,-0.07319995760917664,-0.029083628207445145,-0.3048084080219269,1004.36865,
2021.05.19 17:28:01,64.0,73.0,7.62,25.74,-35.82,0.7589619,1.0510546,9.081207,-0.004886922,-0.08857546,-0.08246681,-0.11483002454042435,-0.08338122814893723,-0.3433161675930023,1004.36865,
2021.05.19 17:28:01,64.0,73.0,7.56,25.8,-35.7,0.49559975,0.4405331,9.933543,-0.1282817,-0.14966199,-0.23457226,-0.04426401108503342,-0.04985020309686661,-0.32889726758003235,1004.36865,
2021.05.19 17:28:01,64.0,73.0,7.68,25.68,-35.399998,-0.062249243,0.2633622,10.103531,-0.10445796,-0.07880162,-0.258396,-0.026059957221150398,0.006161059252917767,-0.27353784441947937,1004.36865,
2021.05.19 17:28:01,64.0,73.0,7.3199997,25.619999,-35.76,0.007182605,0.40701428,10.127473,-0.043982297,-0.02687807,-0.07269296,-0.04016749933362007,-7.092197774909437E-4,-0.2652927041053772,1004.36743,
2021.05.19 17:28:01,64.0,73.0,7.02,26.039999,-35.579998,-0.031124622,0.48602295,9.746795,0.06414085,0.050701816,0.007941248,-0.04982337728142738,0.0031933076679706573,-0.24366214871406555,1004.36743,
2021.05.19 17:28:01,64.0,73.0,6.6,25.98,-35.7,0.25378537,0.56982,9.478644,0.08735373,0.03359759,0.086132,-0.060022469609975815,-0.026768041774630547,-0.26291558146476746,1004.36743,
2021.05.19 17:28:01,64.0,73.0,7.2599998,26.279999,-35.88,0.37110126,0.7565677,9.581595,0.04886922,0.08124508,0.09468412,-0.07873823493719101,-0.03871128335595131,-0.28969046473503113,1004.36743,
2021.05.19 17:28:01,64.0,73.0,7.2599998,26.22,-35.76,0.25857377,0.62249243,9.945514,0.039095376,0.052534413,0.056199603,-0.06248766928911209,-0.02599318139255047,-0.28076329827308655,1004.3528,
2021.05.19 17:28:01,64.0,73.0,7.9199996,25.74,-35.7,-0.18914193,0.79726917,7.78355,0.07147124,0.12705997,0.070249505,-0.10204411298036575,0.02429543249309063,-0.23643961548805237,1004.3528,
2021.05.19 17:28:01,64.0,73.0,8.46,25.8,-35.219997,1.1444284,1.0702082,11.427525,-0.07819075,-0.16432275,0.122783914,-0.09291733056306839,-0.09981385618448257,-0.39188382029533386,1004.3528,
2021.05.19 17:28:01,64.0,73.0,8.16,25.08,-35.04,0.0023942017,0.50038815,10.771513,0.005497787,0.15760323,-0.081855945,-0.046421393752098083,-2.2227162844501436E-4,-0.29709067940711975,1004.3528,
