Time,X-cord,Y-cord,Mag_x,Mag_y,Mag_z,Acc_x,Acc_y,Acc_z,Gyro_x,Gyro_y,Gyro_z,Orn_x,Orn_y,Orn_z,Pressure,
2021.05.19 17:26:20,71.0,80.0,9.12,28.68,-37.5,0.031124622,1.2425907,8.7292595,0.034208454,0.08552113,-0.017715093,-0.14139693975448608,-0.003565535880625248,-0.26818200945854187,1004.42285,
2021.05.19 17:26:20,71.0,80.0,9.059999,28.56,-37.68,-0.095768064,0.93852705,10.024523,-0.1685988,-0.2003638,0.029321533,-0.09334676712751389,0.009553088806569576,-0.2657982409000397,1004.42285,
2021.05.19 17:26:20,71.0,80.0,8.82,28.56,-37.44,0.06703765,1.0845734,9.409213,-0.03970624,-0.040317107,0.036651913,-0.11475782096385956,-0.007124561350792646,-0.2714168131351471,1004.42285,
2021.05.19 17:26:20,71.0,80.0,8.46,28.14,-37.86,0.1412579,1.0247183,9.607931,-0.021991149,-0.03604105,0.06536258,-0.10624031722545624,-0.014701159670948982,-0.27476415038108826,1004.385,
2021.05.19 17:26:20,71.0,80.0,8.16,28.38,-38.579998,0.11731588,0.9935937,9.715671,-0.025045475,-0.02443461,0.022602014,-0.1019054502248764,-0.012074326165020466,-0.26213058829307556,1004.385,
2021.05.19 17:26:20,71.0,80.0,7.68,28.56,-38.04,0.074220255,1.1133038,9.782708,-0.028710667,-0.053145275,0.018325957,-0.1133124828338623,-0.0075867366977036,-0.23922468721866608,1004.385,
2021.05.19 17:26:20,71.0,80.0,7.2599998,28.8,-37.98,-0.1604115,0.9696517,9.809045,0.004886922,-0.036651913,0.0036651916,-0.09851960092782974,0.01635197177529335,-0.20203642547130585,1004.385,
2021.05.19 17:26:20,71.0,80.0,8.099999,29.039999,-37.739998,0.031124622,1.0582372,9.718064,0.025045475,0.029932396,0.04153884,-0.10846589505672455,-0.0032027484849095345,-0.24448822438716888,1004.406,
2021.05.19 17:26:20,71.0,80.0,8.22,28.619999,-37.62,-0.1412579,0.81642276,9.801862,0.040927973,-0.03604105,0.039095376,-0.08309220522642136,0.014410335570573807,-0.23794247210025787,1004.406,
2021.05.19 17:26:20,71.0,80.0,8.28,28.74,-38.16,0.016759412,0.79008657,9.591172,0.06352998,-0.002443461,0.06963864,-0.08219072967767715,-0.0017473772168159485,-0.25687968730926514,1004.406,
2021.05.19 17:26:20,71.0,80.0,8.58,28.5,-38.04,0.25857377,0.8571242,9.832987,0.06719518,-0.040927973,0.089186326,-0.08691857755184174,-0.02629050612449646,-0.2936230003833771,1004.406,
2021.05.19 17:26:20,71.0,80.0,8.16,28.619999,-37.739998,0.16759412,0.878672,9.435549,0.11484267,-0.0061086523,0.09040806,-0.09284121543169022,-0.017760122194886208,-0.26935485005378723,1004.374,
2021.05.19 17:26:20,71.0,80.0,7.74,28.98,-37.739998,0.36631286,0.94331545,9.296685,0.057421334,0.0061086523,0.09162979,-0.10104396939277649,-0.039382148534059525,-0.2755773365497589,1004.374,
2021.05.19 17:26:20,71.0,80.0,8.22,28.619999,-38.1,0.521936,0.91458505,9.876082,0.017104227,-0.077579886,0.05131268,-0.09221472591161728,-0.052799370139837265,-0.3094598650932312,1004.374,
2021.05.19 17:26:20,71.0,80.0,8.16,28.5,-38.82,0.39983168,0.9935937,9.531317,0.029932396,-0.02321288,0.0,-0.1037793830037117,-0.04192467778921127,-0.29375702142715454,1004.374,
2021.05.19 17:26:20,71.0,80.0,8.4,28.38,-38.76,0.6823475,1.0821792,9.579201,-0.002443461,-0.016493361,-0.021991149,-0.11221287399530411,-0.07111208140850067,-0.33035942912101746,1004.37866,
2021.05.19 17:26:20,71.0,80.0,8.46,28.439999,-39.059998,0.29448682,1.1851299,9.902418,-0.042760566,-0.014660766,-0.115453534,-0.11906217038631439,-0.029730116948485374,-0.2848367393016815,1004.37866,
2021.05.19 17:26:20,71.0,80.0,8.22,28.439999,-38.82,-0.035913024,0.9576807,9.861717,-0.029932396,0.0061086523,-0.15760323,-0.09680675715208054,0.0036416444927453995,-0.24683034420013428,1004.37866,
2021.05.19 17:26:20,71.0,80.0,8.4,28.56,-38.46,-0.04070143,1.1372458,9.636662,0.0036651916,0.02076942,-0.07941248,-0.11746807396411896,0.004223577678203583,-0.24551686644554138,1004.37866,
2021.05.19 17:26:20,71.0,80.0,8.58,28.68,-38.579998,0.062249243,0.9959879,9.904813,0.005497787,-0.06352998,-0.05009095,-0.10021710395812988,-0.006284664385020733,-0.26592180132865906,1004.3794,
2021.05.19 17:26:20,71.0,80.0,8.94,28.619999,-38.04,0.14604631,0.91219085,10.038888,-0.007941248,-0.048258353,-0.029932396,-0.09060733765363693,-0.014547030441462994,-0.2889458239078522,1004.3794,
2021.05.19 17:26:20,71.0,80.0,9.0,28.74,-37.92,0.15801731,1.0702082,10.400413,-0.009162978,-0.081855945,-0.007330383,-0.10252790153026581,-0.015192200429737568,-0.28688037395477295,1004.3794,
2021.05.19 17:26:21,71.0,80.0,8.34,28.38,-37.739998,-0.08140286,1.1372458,9.600749,0.093462385,-0.022602014,-0.0036651916,-0.11790025234222412,0.008478599600493908,-0.24099791049957275,1004.3794,
2021.05.19 17:26:21,71.0,80.0,7.9199996,27.66,-38.219997,-0.23463176,1.2545617,8.429984,0.11178834,0.036651913,-0.007330383,-0.14768068492412567,0.027825817465782166,-0.20469428598880768,1004.37524,
2021.05.19 17:26:21,71.0,80.0,7.3199997,27.72,-38.94,-0.045489833,1.2808979,8.76996,0.042760566,0.02321288,0.009773844,-0.145027756690979,0.005186958704143763,-0.21205338835716248,1004.37524,
2021.05.19 17:26:21,71.0,80.0,7.56,27.359999,-38.76,-0.17238252,0.79966336,9.734824,-0.06841691,-0.04337143,-0.02687807,-0.08194780349731445,0.017705969512462616,-0.22197088599205017,1004.37524,
2021.05.19 17:26:21,71.0,80.0,8.22,27.42,-38.64,0.050278235,0.581791,10.5919485,-0.13500121,-0.04337143,0.009162978,-0.054871901869773865,-0.004746799822896719,-0.27754610776901245,1004.37524,
2021.05.19 17:26:21,71.0,80.0,8.7,28.26,-38.64,-0.02633622,0.7254431,9.933543,-0.052534413,0.015882496,0.0580322,-0.07289997488260269,0.002651234855875373,-0.27053186297416687,1004.3745,
2021.05.19 17:26:21,71.0,80.0,9.48,27.66,-38.34,0.48362875,1.3599066,8.781932,0.03970624,0.09712757,0.1441642,-0.15340371429920197,-0.055015310645103455,-0.33632731437683105,1004.3745,
2021.05.19 17:26:21,71.0,80.0,9.059999,28.26,-38.52,0.48362875,1.3718776,9.361329,-0.03176499,0.009773844,0.11178834,-0.14532046020030975,-0.05161651223897934,-0.3185277581214905,1004.3745,
2021.05.19 17:26:21,71.0,80.0,9.0,28.56,-38.82,0.46686932,1.3670892,9.763555,-0.08857546,0.014660766,0.03604105,-0.13895843923091888,-0.047781165689229965,-0.3122160732746124,1004.3745,
2021.05.19 17:26:21,71.0,80.0,8.5199995,27.96,-38.579998,0.2633622,1.1252748,10.101137,-0.07941248,0.0067195175,-0.004276057,-0.11090599000453949,-0.026066625490784645,-0.28896284103393555,1004.37085,
2021.05.19 17:26:21,71.0,80.0,7.98,28.619999,-38.399998,0.15322891,0.94092125,10.295067,-0.06719518,0.020158553,-0.021380283,-0.09113210439682007,-0.01488262228667736,-0.26122525334358215,1004.37085,
2021.05.19 17:26:21,71.0,80.0,8.22,28.8,-38.219997,0.3184288,1.0534488,9.725247,0.0061086523,0.02687807,0.012217305,-0.10784298926591873,-0.032730795443058014,-0.28166258335113525,1004.37085,
2021.05.19 17:26:21,71.0,80.0,7.8599997,29.039999,-37.98,0.34955344,1.2018893,9.397242,0.026267206,0.0580322,0.016493361,-0.1271204948425293,-0.03718031197786331,-0.26924511790275574,1004.37085,
2021.05.19 17:26:21,71.0,80.0,7.8599997,29.46,-38.1,0.11252748,1.1180922,9.488221,-0.0012217305,0.019547688,-0.031154128,-0.11729089915752411,-0.011859146878123283,-0.2417660355567932,1004.37305,
2021.05.19 17:26:21,71.0,80.0,8.34,29.22,-38.16,0.074220255,1.1492168,9.533711,-0.02321288,0.034208454,-0.051923547,-0.11996002495288849,-0.007784875575453043,-0.25182512402534485,1004.37305,
2021.05.19 17:26:21,71.0,80.0,8.22,28.8,-37.98,-0.023942016,1.0007763,10.105926,-0.05131268,6.1086525E-4,-0.055588737,-0.09870655834674835,0.0023691023234277964,-0.24581703543663025,1004.37305,
2021.05.19 17:26:21,71.0,80.0,8.7,28.38,-38.1,-0.038307227,0.9816227,9.933543,-0.013439035,0.044593163,-0.028710667,-0.09849847108125687,0.0038563318084925413,-0.2612353563308716,1004.37305,
2021.05.19 17:26:21,71.0,80.0,8.7,28.26,-37.559998,0.11252748,1.0726024,9.65821,0.029321533,0.004886922,0.008552114,-0.11059536784887314,-0.011650439351797104,-0.276315301656723,1004.3772,
2021.05.19 17:26:21,71.0,80.0,8.46,28.019999,-37.62,0.110133275,1.0630256,9.55047,0.010995574,0.048258353,-0.002443461,-0.1108425185084343,-0.01153120119124651,-0.2710862159729004,1004.3772,
2021.05.19 17:26:21,71.0,80.0,8.34,28.08,-37.739998,0.06703765,0.9959879,9.643845,0.01282817,-0.004276057,-0.013439035,-0.10290973633527756,-0.006951228715479374,-0.2641660273075104,1004.3772,
2021.05.19 17:26:21,71.0,80.0,8.04,27.9,-37.2,0.031124622,0.89543146,9.916783,0.002443461,-0.0018325958,-0.012217305,-0.09004990756511688,-0.003138570114970207,-0.2562601864337921,1004.3772,
2021.05.19 17:26:21,71.0,80.0,8.22,27.42,-37.32,0.038307227,1.067814,9.64145,0.03481932,0.017104227,0.0067195175,-0.11030203849077225,-0.003973160404711962,-0.26078444719314575,1004.37427,
2021.05.19 17:26:21,71.0,80.0,8.22,27.96,-37.14,0.21068975,1.163582,9.543288,0.032375857,0.009773844,-6.1086525E-4,-0.12129860371351242,-0.022073684260249138,-0.2734290361404419,1004.37427,
2021.05.19 17:26:21,71.0,80.0,8.5199995,28.019999,-37.26,-0.06703765,1.0941502,9.799467,0.005497787,0.0030543262,-0.043982297,-0.11119092255830765,0.006840841844677925,-0.2528474032878876,1004.37427,
2021.05.19 17:26:21,71.0,80.0,8.88,28.199999,-37.32,-0.074220255,1.079785,9.677363,0.014660766,0.0061086523,-0.02687807,-0.11111556738615036,0.0076693203300237656,-0.26101934909820557,1004.37427,
2021.05.19 17:26:22,71.0,80.0,8.7,29.16,-37.62,-0.007182605,1.1324574,9.636662,0.029932396,6.1086525E-4,0.0,-0.11697898805141449,7.453414727933705E-4,-0.25437894463539124,1004.3816,
2021.05.19 17:26:22,71.0,80.0,9.12,29.039999,-37.62,-0.23463176,0.9552865,9.825804,0.021380283,-0.019547688,-0.02076942,-0.09689018130302429,0.02387460507452488,-0.24724747240543365,1004.3816,
2021.05.19 17:26:22,71.0,80.0,8.82,29.34,-37.86,-0.12449849,0.9911995,9.593566,0.032375857,0.009773844,0.015882496,-0.10294529050588608,0.012976561672985554,-0.2465793788433075,1004.3816,
2021.05.19 17:26:22,71.0,80.0,8.46,29.46,-38.1,0.04309563,1.0510546,9.524135,0.030543262,0.007941248,0.03848451,-0.10991109907627106,-0.004524855874478817,-0.2525038421154022,1004.3816,
2021.05.19 17:26:22,71.0,80.0,9.12,29.099998,-37.98,0.06703765,1.0582372,9.672575,0.0012217305,0.004886922,0.023823744,-0.10896993428468704,-0.006930582225322723,-0.27661722898483276,1004.38135,
2021.05.19 17:26:22,71.0,80.0,8.76,28.859999,-38.1,0.02633622,1.0749966,9.701305,0.0012217305,-0.0012217305,0.009162978,-0.11035884916782379,-0.002714702161028981,-0.26332494616508484,1004.38135,
2021.05.19 17:26:22,71.0,80.0,9.059999,28.5,-38.399998,0.0047884034,1.091756,9.639056,0.004886922,0.009773844,0.0036651916,-0.11278311908245087,-4.96770953759551E-4,-0.27129876613616943,1004.38135,
2021.05.19 17:26:22,71.0,80.0,9.059999,28.859999,-38.7,-0.074220255,1.0007763,9.801862,-0.014049901,-0.016493361,-0.0036651916,-0.10174515843391418,0.007571912370622158,-0.26233115792274475,1004.38135,
2021.05.19 17:26:22,71.0,80.0,8.22,29.099998,-38.76,-0.088585466,1.0534488,9.574412,0.004886922,0.02076942,0.004886922,-0.10958205163478851,0.009252049028873444,-0.23268258571624756,1004.3855,
2021.05.19 17:26:22,71.0,80.0,8.58,29.34,-38.64,-0.08619126,1.0606314,9.636662,-0.004886922,-0.005497787,0.018936822,-0.10961656272411346,0.008943860419094563,-0.24171455204486847,1004.3855,
2021.05.19 17:26:22,71.0,80.0,7.9199996,29.46,-38.34,-0.05267244,1.0366893,9.600749,0.0036651916,-0.0012217305,0.008552114,-0.10756167024374008,0.005486228968948126,-0.22678367793560028,1004.3855,
2021.05.19 17:26:22,71.0,80.0,8.099999,29.4,-38.34,-0.047884032,1.0510546,9.52174,-0.0061086523,0.02321288,0.009162978,-0.10993825644254684,0.005028873682022095,-0.23223508894443512,1004.3855,
2021.05.19 17:26:22,71.0,80.0,8.82,29.16,-38.28,-0.047884032,1.0103531,9.679757,-0.021380283,-0.014660766,0.007941248,-0.10400006920099258,0.004946781322360039,-0.2559437155723572,1004.3762,
2021.05.19 17:26:22,71.0,80.0,8.22,29.099998,-38.76,0.02873042,1.067814,9.85214,-0.040317107,0.0061086523,0.002443461,-0.10796206444501877,-0.002916152123361826,-0.24659520387649536,1004.3762,
2021.05.19 17:26:22,71.0,80.0,8.7,29.099998,-38.579998,0.15322891,1.1013328,9.607931,0.002443461,-0.015271631,0.027488936,-0.11411495506763458,-0.01594681665301323,-0.2728312015533447,1004.3762,
2021.05.19 17:26:22,71.0,80.0,9.059999,28.98,-38.04,0.18195933,1.115698,9.794679,-6.1086525E-4,-0.008552114,0.018325957,-0.11340031027793884,-0.01857522875070572,-0.28705283999443054,1004.3762,
2021.05.19 17:26:22,71.0,80.0,8.58,28.92,-38.34,0.12689269,1.0821792,9.701305,0.01038471,-0.028099801,-0.009162978,-0.11108117550611496,-0.013079214841127396,-0.26868945360183716,1004.38184,
2021.05.19 17:26:22,71.0,80.0,8.82,28.859999,-37.8,0.062249243,1.055843,9.409213,0.022602014,0.0012217305,-0.031154128,-0.11174384504556656,-0.006615678779780865,-0.2690877616405487,1004.38184,
2021.05.19 17:26:22,71.0,80.0,8.94,28.74,-38.1,-0.035913024,0.9840169,9.662998,-0.012217305,-0.026267206,-0.035430185,-0.10148297250270844,0.0037165337707847357,-0.2647280693054199,1004.38184,
2021.05.19 17:26:22,71.0,80.0,8.34,28.5,-38.52,-0.04070143,1.0247183,9.689334,-0.0067195175,-0.020158553,-0.018936822,-0.10536476969718933,0.004200617782771587,-0.24727050960063934,1004.38184,
2021.05.19 17:26:22,71.0,80.0,8.34,28.5,-38.579998,0.059855044,1.1348516,9.543288,-6.1086525E-4,-0.014660766,0.0061086523,-0.1183580681681633,-0.006271869409829378,-0.25553157925605774,1004.3833,
2021.05.19 17:26:22,71.0,80.0,8.04,28.439999,-39.059998,0.110133275,1.1468226,9.660604,-0.015271631,-0.029932396,0.007330383,-0.11815069615840912,-0.011399754323065281,-0.25287488102912903,1004.3833,
2021.05.19 17:26:22,71.0,80.0,7.9199996,28.56,-38.46,-0.0047884034,1.0606314,9.768343,-0.013439035,-0.02443461,-0.002443461,-0.10815472900867462,4.901960492134094E-4,-0.23816771805286407,1004.3833,
2021.05.19 17:26:22,71.0,80.0,7.98,28.98,-38.879997,0.04070143,1.091756,9.564836,0.004276057,-0.012217305,0.01160644,-0.11364980041980743,-0.004255293402820826,-0.24060189723968506,1004.3833,
2021.05.19 17:26:22,71.0,80.0,7.7999997,28.619999,-38.94,0.05267244,1.067814,9.631873,-0.0067195175,-0.004276057,0.009162978,-0.11041004955768585,-0.0054685017094016075,-0.2400822937488556,1004.38184,
2021.05.19 17:26:23,71.0,80.0,8.04,28.74,-38.94,0.023942016,0.9935937,9.552865,-0.007330383,-0.019547688,0.01038471,-0.10363706201314926,-0.0025062602944672108,-0.244532510638237,1004.38184,
2021.05.19 17:26:23,71.0,80.0,8.34,28.38,-39.36,0.12210429,1.091756,9.595961,-0.01282817,-0.009773844,0.025045475,-0.11327623575925827,-0.012723864056169987,-0.2645321786403656,1004.38184,
2021.05.19 17:26:23,71.0,80.0,8.639999,28.019999,-38.579998,0.093373865,1.0486604,9.651027,-0.026267206,-0.013439035,0.022602014,-0.10822826623916626,-0.009674716740846634,-0.27442407608032227,1004.38184,
2021.05.19 17:26:23,71.0,80.0,8.58,28.56,-38.219997,0.24899697,1.0845734,9.811439,-0.020158553,-0.04520403,0.028710667,-0.11005958914756775,-0.025372786447405815,-0.28521546721458435,1004.3877,
2021.05.19 17:26:23,71.0,80.0,8.76,28.98,-38.04,0.2753332,1.0965444,9.703699,0.007330383,-0.020158553,0.023823744,-0.11248048394918442,-0.028366435319185257,-0.28935301303863525,1004.3877,
2021.05.19 17:26:23,71.0,80.0,8.76,29.22,-37.92,0.2825158,1.1492168,9.581595,0.009162978,-0.010995574,0.015271631,-0.11931844055652618,-0.029476715251803398,-0.2866777181625366,1004.3877,
2021.05.19 17:26:23,71.0,80.0,8.7,29.279999,-38.579998,0.1340753,1.0366893,9.746795,0.007941248,-0.014049901,-0.027488936,-0.10595373809337616,-0.013754967600107193,-0.27129313349723816,1004.3877,
2021.05.19 17:26:23,71.0,80.0,9.059999,29.099998,-38.579998,0.14844051,1.0630256,9.390059,0.022602014,0.023823744,-0.018325957,-0.11271364241838455,-0.01580694504082203,-0.2830803096294403,1004.3872,
2021.05.19 17:26:23,71.0,80.0,8.76,28.68,-38.579998,0.06943185,0.9648633,9.818622,-0.0067195175,-0.021991149,-0.031154128,-0.09795177727937698,-0.0070713278837502,-0.27260640263557434,1004.3872,
2021.05.19 17:26:23,71.0,80.0,8.22,28.92,-38.579998,0.17238252,1.103727,9.55047,0.0067195175,0.02687807,-0.014660766,-0.11503880470991135,-0.018047677353024483,-0.26279008388519287,1004.3872,
2021.05.19 17:26:23,71.0,80.0,7.74,29.34,-38.1,0.18195933,1.1420342,9.610326,0.004886922,0.0036651916,-0.0036651916,-0.11825840175151825,-0.018931468948721886,-0.24656915664672852,1004.3872,
2021.05.19 17:26:23,71.0,80.0,7.3799996,30.06,-38.28,0.16759412,1.1300632,9.7324295,6.1086525E-4,-0.002443461,-0.017104227,-0.1155785396695137,-0.017218470573425293,-0.23045828938484192,1004.3845,
2021.05.19 17:26:23,71.0,80.0,7.68,29.88,-37.8,0.01436521,1.0007763,9.842564,-0.015271631,-0.007330383,-0.021380283,-0.10133006423711777,-0.0014594977255910635,-0.22660104930400848,1004.3845,
2021.05.19 17:26:23,71.0,80.0,7.8599997,29.88,-37.92,0.20829555,1.067814,9.495404,0.029932396,0.01038471,-0.0012217305,-0.11195868253707886,-0.021932942792773247,-0.2508659362792969,1004.3845,
2021.05.19 17:26:23,71.0,80.0,8.22,29.699999,-37.98,0.11971009,1.0151415,9.509769,0.013439035,0.025045475,-0.013439035,-0.10633616149425507,-0.012587451376020908,-0.2536390423774719,1004.3845,
2021.05.19 17:26:23,71.0,80.0,8.5199995,29.099998,-37.92,0.06703765,1.0127473,9.330204,0.014660766,0.020158553,-0.028099801,-0.10811896622180939,-0.007184891030192375,-0.2602675259113312,1004.3767,
2021.05.19 17:26:23,71.0,80.0,8.16,29.519999,-38.16,0.074220255,0.9720459,9.545682,-0.02687807,0.02321288,-0.021380283,-0.10147809982299805,-0.0077751134522259235,-0.24921193718910217,1004.3767,
2021.05.19 17:26:23,71.0,80.0,8.5199995,29.4,-37.739998,-0.02633622,0.9600749,9.888053,-0.052534413,-0.012217305,-0.01038471,-0.09679069370031357,0.0026634319219738245,-0.2504478693008423,1004.3767,
2021.05.19 17:26:23,71.0,80.0,8.099999,29.16,-37.98,0.21068975,1.0726024,9.847352,-0.015271631,-0.019547688,0.03726278,-0.10847056657075882,-0.02139231003820896,-0.2631147801876068,1004.3767,
2021.05.19 17:26:23,71.0,80.0,8.46,29.039999,-37.8,0.36391866,1.2018893,9.464279,0.013439035,-0.0067195175,0.02443461,-0.12622372806072235,-0.03843287378549576,-0.28732526302337646,1004.3811,
2021.05.19 17:26:23,71.0,80.0,8.7,28.98,-38.16,0.23702596,1.1180922,9.787497,-0.022602014,-0.014049901,-0.029932396,-0.1137106716632843,-0.024212488904595375,-0.2828989624977112,1004.3811,
2021.05.19 17:26:23,71.0,80.0,8.22,28.8,-38.7,-0.06703765,1.0031705,9.67018,6.1086525E-4,-0.0018325958,-0.04886922,-0.10336633026599884,0.00693229865282774,-0.23892152309417725,1004.3811,
2021.05.19 17:26:23,71.0,80.0,8.5199995,28.92,-38.64,-0.095768064,0.9888053,9.765948,-0.002443461,0.0,-0.02321288,-0.10090160369873047,0.009806010872125626,-0.24418209493160248,1004.3811,
2021.05.19 17:26:23,71.0,80.0,8.5199995,28.98,-38.28,-0.038307227,1.0031705,9.634268,0.018325957,-0.014660766,0.01038471,-0.1037505567073822,0.003976122010499239,-0.24984337389469147,1004.37573,
2021.05.19 17:26:23,71.0,80.0,9.0,28.619999,-37.68,0.11731588,1.0749966,9.639056,0.010995574,0.013439035,0.021991149,-0.11105797439813614,-0.012170287780463696,-0.28230783343315125,1004.37573,
2021.05.19 17:26:24,71.0,80.0,9.24,28.56,-37.38,0.12928689,1.0055647,9.588778,0.02321288,-0.0067195175,0.010995574,-0.10447756946086884,-0.01348232850432396,-0.29305729269981384,1004.37573,
2021.05.19 17:26:24,71.0,80.0,9.12,28.5,-37.26,0.17238252,0.9959879,9.543288,0.0061086523,0.007330383,0.0030543262,-0.10397197306156158,-0.018061256036162376,-0.29523736238479614,1004.37573,
2021.05.19 17:26:24,71.0,80.0,8.88,28.14,-37.68,-0.016759412,0.9648633,9.655815,-0.007941248,0.0061086523,-0.012217305,-0.0995948538184166,0.0017356789903715253,-0.27081605792045593,1004.3821,
2021.05.19 17:26:24,71.0,80.0,8.46,28.32,-38.1,0.11252748,1.0295067,9.749189,-0.007941248,-0.005497787,0.01038471,-0.1052023395895958,-0.011541727930307388,-0.27001041173934937,1004.3821,
2021.05.19 17:26:24,71.0,80.0,8.46,28.38,-38.579998,0.050278235,1.0510546,9.636662,6.1086525E-4,0.0061086523,0.01160644,-0.10863742977380753,-0.0052173445001244545,-0.26128286123275757,1004.3821,
2021.05.19 17:26:24,71.0,80.0,8.34,28.14,-38.28,0.1604115,1.1013328,9.639056,0.012217305,-0.0061086523,0.014049901,-0.11374837160110474,-0.01664029061794281,-0.27115610241889954,1004.3821,
2021.05.19 17:26:24,71.0,80.0,8.28,28.619999,-38.219997,0.062249243,0.9648633,9.665392,-6.1086525E-4,0.002443461,-0.004886922,-0.09949491918087006,-0.006440337281674147,-0.25830888748168945,1004.37646,
2021.05.19 17:26:24,71.0,80.0,8.639999,28.56,-38.16,-0.01436521,0.9552865,9.876082,-0.005497787,-0.016493361,-0.009773844,-0.09642717987298965,0.0014545443700626493,-0.26129502058029175,1004.37646,
2021.05.19 17:26:24,71.0,80.0,8.639999,28.859999,-37.739998,0.21547815,1.0749966,9.469068,0.029932396,0.020158553,0.028099801,-0.11301419138908386,-0.022752078250050545,-0.2809346914291382,1004.37646,
2021.05.19 17:26:24,71.0,80.0,9.0,29.4,-38.399998,0.22266077,1.0773908,9.631873,0.012217305,-0.018936822,0.018936822,-0.11136427521705627,-0.023112962022423744,-0.287248432636261,1004.37646,
2021.05.19 17:26:24,71.0,80.0,9.12,29.099998,-38.399998,0.16280572,1.0462662,9.751583,0.002443461,-0.019547688,-0.005497787,-0.10686826705932617,-0.016693761572241783,-0.2874448895454407,1004.3782,
2021.05.19 17:26:24,71.0,80.0,8.94,29.099998,-38.399998,0.10055647,1.0271125,9.605537,0.009773844,6.1086525E-4,-0.014049901,-0.10651864856481552,-0.010468211024999619,-0.2757987082004547,1004.3782,
2021.05.19 17:26:24,71.0,80.0,8.88,28.859999,-38.34,0.05267244,1.0414777,9.631873,0.010995574,-0.01038471,-0.010995574,-0.10770819336175919,-0.00546850124374032,-0.27026504278182983,1004.3782,
2021.05.19 17:26:24,71.0,80.0,8.58,28.56,-37.98,0.0047884034,0.9983821,9.753978,-0.004886922,-0.004886922,-0.015882496,-0.10200116783380508,-4.909179406240582E-4,-0.2603439688682556,1004.3782,
2021.05.19 17:26:24,71.0,80.0,8.4,28.8,-37.92,0.18435353,1.1061212,9.655815,0.007330383,-0.014660766,0.014660766,-0.11403713375329971,-0.019090168178081512,-0.2704102694988251,1004.3811,
2021.05.19 17:26:24,71.0,80.0,8.34,29.039999,-38.16,0.15562311,1.0893618,9.698911,0.007941248,0.01038471,6.1086525E-4,-0.11183491349220276,-0.016044044867157936,-0.2640960216522217,1004.3811,
2021.05.19 17:26:24,71.0,80.0,8.22,29.22,-38.16,0.1412579,1.0247183,9.672575,0.012217305,-0.007330383,-0.009162978,-0.10553572326898575,-0.014602920971810818,-0.2594514787197113,1004.3811,
2021.05.19 17:26:24,71.0,80.0,8.4,29.039999,-37.62,0.1340753,1.0534488,9.603143,0.0030543262,0.007941248,-0.0067195175,-0.10925089567899704,-0.013960699550807476,-0.2644575834274292,1004.3811,
2021.05.19 17:26:24,71.0,80.0,8.5199995,28.56,-38.16,0.12210429,1.067814,9.667787,0.018936822,-0.014660766,-0.0067195175,-0.10999613255262375,-0.012629343196749687,-0.2696811556816101,1004.3799,
2021.05.19 17:26:24,71.0,80.0,8.7,28.199999,-38.04,0.10295067,1.0510546,9.624691,0.0030543262,0.005497787,-0.008552114,-0.10876678675413132,-0.010696109384298325,-0.27599743008613586,1004.3799,
2021.05.19 17:26:24,71.0,80.0,8.5199995,28.08,-38.16,0.12210429,1.1180922,9.586384,0.0,-0.0030543262,0.0018325958,-0.11609943956136703,-0.012736573815345764,-0.2719104290008545,1004.3799,
2021.05.19 17:26:24,71.0,80.0,8.82,28.14,-38.34,0.033518825,1.0414777,9.76116,-0.018325957,-0.004276057,-0.0067195175,-0.10629333555698395,-0.003433884121477604,-0.272396445274353,1004.3799,
2021.05.19 17:26:24,71.0,80.0,8.82,27.779999,-38.16,0.050278235,1.0845734,9.880871,-0.007941248,6.1086525E-4,0.01160644,-0.10932587832212448,-0.005088398233056068,-0.2764400243759155,1004.3784,
2021.05.19 17:26:24,71.0,80.0,8.28,27.72,-38.16,0.18674773,1.115698,9.509769,0.022602014,0.0067195175,0.032986723,-0.11676505208015442,-0.01963493786752224,-0.2753181755542755,1004.3784,
2021.05.19 17:26:24,71.0,80.0,8.46,27.72,-38.399998,0.15083471,1.067814,9.593566,6.1086525E-4,-0.0018325958,0.017715093,-0.11083537340164185,-0.015721190720796585,-0.2777771055698395,1004.3784,
2021.05.19 17:26:25,71.0,80.0,8.4,27.84,-38.879997,0.093373865,1.079785,9.648633,-0.004886922,0.0,0.01282817,-0.11144179105758667,-0.009677116759121418,-0.2678082585334778,1004.3784,
2021.05.19 17:26:25,71.0,80.0,8.34,28.619999,-38.579998,0.07182605,1.0893618,9.7084875,-0.01282817,0.017715093,0.01038471,-0.1117367222905159,-0.0073981392197310925,-0.25761961936950684,1004.37915,
2021.05.19 17:26:25,71.0,80.0,8.28,28.68,-38.46,0.02873042,1.0486604,9.770737,-0.009773844,-0.004276057,0.020158553,-0.10691691190004349,-0.00294044753536582,-0.25185146927833557,1004.37915,
2021.05.19 17:26:25,71.0,80.0,8.46,28.74,-38.34,0.1412579,1.0630256,9.67018,6.1086525E-4,0.0012217305,0.047647487,-0.10947700589895248,-0.01460653729736805,-0.2687857151031494,1004.37915,
2021.05.19 17:26:25,71.0,80.0,8.5199995,28.56,-38.399998,0.29209262,1.127669,9.634268,0.0012217305,0.0,0.06169739,-0.1164645105600357,-0.030308807268738747,-0.2869970202445984,1004.37915,
2021.05.19 17:26:25,71.0,80.0,8.58,27.9,-38.34,0.32800564,1.115698,9.689334,-0.0012217305,-0.004886922,0.03848451,-0.11457706242799759,-0.03383931517601013,-0.29867541790008545,1004.3811,
2021.05.19 17:26:25,71.0,80.0,9.42,27.9,-38.28,0.30166942,1.1228806,9.682152,0.0067195175,-0.009162978,0.02076942,-0.11540296673774719,-0.031147193163633347,-0.31928327679634094,1004.3811,
2021.05.19 17:26:25,71.0,80.0,9.3,28.26,-37.8,0.1364695,1.055843,9.646238,0.002443461,-0.0030543262,-0.0061086523,-0.10901162028312683,-0.014146487228572369,-0.2964876592159271,1004.3811,
2021.05.19 17:26:25,71.0,80.0,9.059999,28.619999,-37.92,0.079008654,1.0534488,9.639056,0.0030543262,0.0,-0.005497787,-0.10885396599769592,-0.008196537382900715,-0.2802031338214874,1004.3811,
2021.05.19 17:26:25,71.0,80.0,9.3,29.099998,-37.92,0.1364695,1.055843,9.715671,0.0030543262,-0.01282817,0.008552114,-0.1082388162612915,-0.014045404270291328,-0.28945988416671753,1004.3772,
2021.05.19 17:26:25,71.0,80.0,8.7,29.22,-38.219997,0.18914193,1.115698,9.639056,-0.0018325958,0.0067195175,0.007941248,-0.11521285772323608,-0.019619936123490334,-0.2756800055503845,1004.3772,
2021.05.19 17:26:25,71.0,80.0,9.0,28.619999,-38.46,0.15801731,1.091756,9.80665,-0.0018325958,0.007330383,-0.004276057,-0.11085730791091919,-0.016111886128783226,-0.28621894121170044,1004.3772,
2021.05.19 17:26:25,71.0,80.0,9.24,28.199999,-38.28,0.14844051,1.067814,9.816227,-0.01160644,0.004276057,-0.016493361,-0.10834214091300964,-0.015120798721909523,-0.296306848526001,1004.3772,
2021.05.19 17:26:25,71.0,80.0,9.0,28.26,-38.16,0.25139117,1.151611,9.476251,0.029932396,0.030543262,0.0018325958,-0.12089088559150696,-0.026522327214479446,-0.2976657450199127,1004.37866,
2021.05.19 17:26:25,71.0,80.0,9.059999,28.14,-37.98,0.22026655,1.1133038,9.667787,0.029932396,-0.020158553,-0.01038471,-0.11462150514125824,-0.022779613733291626,-0.2982768416404724,1004.37866,
2021.05.19 17:26:25,71.0,80.0,9.24,28.019999,-37.62,0.0047884034,1.0199299,9.65821,-0.009773844,0.0067195175,-0.032986723,-0.10521241277456284,-4.957857890985906E-4,-0.28319060802459717,1004.37866,
2021.05.19 17:26:25,71.0,80.0,9.059999,28.26,-37.44,0.06464344,1.0749966,9.569624,0.018936822,0.004276057,-0.022602014,-0.11186274886131287,-0.006754963658750057,-0.28107020258903503,1004.37866,
2021.05.19 17:26:25,71.0,80.0,9.12,28.019999,-37.8,0.055066638,1.0606314,9.651027,0.0,0.0030543262,-0.007941248,-0.10945727676153183,-0.005705718416720629,-0.28406083583831787,1004.37524,
2021.05.19 17:26:25,71.0,80.0,9.3,28.019999,-37.92,0.18914193,1.1228806,9.847352,0.0,-0.01038471,0.0061086523,-0.11351751536130905,-0.01920502819120884,-0.3026260733604431,1004.37524,
2021.05.19 17:26:25,71.0,80.0,9.3,28.199999,-37.739998,0.20350714,1.13964,9.552865,0.009773844,0.015271631,-0.007330383,-0.11871038377285004,-0.02130003459751606,-0.3018205761909485,1004.37524,
2021.05.19 17:26:25,71.0,80.0,9.3,28.14,-37.62,0.23702596,1.1133038,9.744401,0.002443461,-0.004886922,-0.02076942,-0.1137240007519722,-0.02431952953338623,-0.3071073591709137,1004.37524,
2021.05.19 17:26:25,71.0,80.0,9.48,27.84,-37.44,0.1436521,1.0534488,9.646238,0.01282817,0.005497787,-0.028710667,-0.10876520723104477,-0.01489093154668808,-0.3064056634902954,1004.3804,
2021.05.19 17:26:25,71.0,80.0,9.3,28.08,-37.559998,0.12449849,1.0582372,9.624691,0.010995574,0.0018325958,-0.031154128,-0.10950127989053726,-0.012934600934386253,-0.2967270612716675,1004.3804,
2021.05.19 17:26:25,71.0,80.0,8.94,27.84,-38.46,0.1340753,1.0845734,9.574412,0.004276057,0.009773844,-0.036651913,-0.11278652399778366,-0.014002585783600807,-0.28813955187797546,1004.3804,
2021.05.19 17:26:25,71.0,80.0,8.7,27.9,-38.76,0.11731588,1.0630256,9.631873,-0.004886922,0.004886922,-0.040317107,-0.1099124625325203,-0.012179362587630749,-0.2793619632720947,1004.3804,
2021.05.19 17:26:26,71.0,80.0,8.5199995,28.439999,-38.7,0.107739076,1.1109096,9.519346,-0.0061086523,0.010995574,-0.040317107,-0.1161673367023468,-0.011317423544824123,-0.2671941816806793,1004.38306,
2021.05.19 17:26:26,71.0,80.0,8.34,28.38,-38.52,-0.019153614,1.0606314,9.880871,-0.028710667,-0.009773844,-0.047647487,-0.10693223774433136,0.0019384516635909677,-0.25028765201568604,1004.38306,
2021.05.19 17:26:26,71.0,80.0,8.34,28.74,-38.04,0.090979666,1.1324574,9.816227,-0.002443461,-0.0018325958,-0.017104227,-0.11485319584608078,-0.009268026798963547,-0.25829076766967773,1004.38306,
2021.05.19 17:26:26,71.0,80.0,8.04,28.8,-38.219997,0.15083471,1.1540052,9.545682,0.025045475,-0.002443461,-0.009162978,-0.12029419094324112,-0.01580004021525383,-0.2549489140510559,1004.38306,
2021.05.19 17:26:26,71.0,80.0,7.56,28.92,-38.579998,0.06464344,1.0726024,9.6845455,-0.0061086523,0.0030543262,-0.028099801,-0.11030203849077225,-0.006674807984381914,-0.23270060122013092,1004.3782,
2021.05.19 17:26:26,71.0,80.0,7.8599997,29.039999,-38.879997,-0.06464344,1.0295067,9.636662,0.0012217305,6.1086525E-4,-0.02687807,-0.10642625391483307,0.0067079742439091206,-0.2262534499168396,1004.3782,
2021.05.19 17:26:26,71.0,80.0,7.7999997,29.099998,-39.36,0.07182605,1.0773908,9.557653,0.009162978,-0.0018325958,0.0030543262,-0.11224844306707382,-0.00751488795503974,-0.23835258185863495,1004.3782,
2021.05.19 17:26:26,71.0,80.0,8.5199995,28.98,-39.0,-0.05267244,0.9983821,9.770737,-0.026267206,0.009162978,-0.0067195175,-0.10182595998048782,0.005390783306211233,-0.24813048541545868,1004.3782,
2021.05.19 17:26:26,71.0,80.0,8.58,28.98,-38.64,0.18195933,1.1061212,9.555259,0.0030543262,-0.009162978,0.030543262,-0.11522679030895233,-0.01904054544866085,-0.2734307050704956,1004.38403,
2021.05.19 17:26:26,71.0,80.0,9.0,28.859999,-38.16,0.19871874,1.1324574,9.653421,-0.017715093,-0.0067195175,0.028710667,-0.1167532429099083,-0.02058240957558155,-0.28750374913215637,1004.38403,
2021.05.19 17:26:26,71.0,80.0,9.3,28.92,-37.92,0.1364695,1.091756,9.7803135,-0.012217305,-0.0067195175,0.002443461,-0.11115695536136627,-0.013952584005892277,-0.2900138795375824,1004.38403,
2021.05.19 17:26:26,71.0,80.0,8.94,29.22,-37.86,0.08379706,1.0893618,9.677363,-0.015882496,0.02076942,-0.012217305,-0.11209197342395782,-0.008658862672746181,-0.2717236876487732,1004.38403,
2021.05.19 17:26:26,71.0,80.0,8.88,28.8,-38.04,0.1388637,1.0869676,9.744401,-0.01282817,0.007330383,-0.01282817,-0.11107749491930008,-0.014249649830162525,-0.2795000374317169,1004.3862,
2021.05.19 17:26:26,71.0,80.0,8.5199995,28.619999,-38.34,0.074220255,1.1252748,9.55047,-0.02687807,0.0421497,-0.04520403,-0.1172797754406929,-0.0077712154015898705,-0.2618475556373596,1004.3862,
2021.05.19 17:26:26,71.0,80.0,8.34,28.74,-38.1,-0.06464344,0.9959879,10.381259,-0.0067195175,-0.029932396,-0.049480084,-0.09564635902643204,0.0062268562614917755,-0.24613307416439056,1004.3862,
2021.05.19 17:26:26,71.0,80.0,8.16,28.5,-38.16,0.16759412,1.0654198,9.689334,0.089186326,-0.07391469,0.019547688,-0.10950178653001785,-0.01729503832757473,-0.26509374380111694,1004.3862,
2021.05.19 17:26:26,71.0,80.0,8.34,28.38,-38.219997,-0.04070143,1.0031705,9.768343,0.018936822,-6.1086525E-4,0.015882496,-0.10233642905950546,0.004166642669588327,-0.24924372136592865,1004.38916,
2021.05.19 17:26:26,71.0,80.0,8.22,28.5,-37.5,0.36631286,1.2497733,9.404425,0.080634214,6.1086525E-4,0.06414085,-0.13201896846294403,-0.03893143683671951,-0.2839824855327606,1004.38916,
2021.05.19 17:26:26,71.0,80.0,8.34,28.38,-37.739998,0.37349546,1.1707647,9.56723,0.040317107,0.0036651916,0.06963864,-0.12167519330978394,-0.03901922330260277,-0.2912742793560028,1004.38916,
2021.05.19 17:26:26,71.0,80.0,8.46,28.38,-37.86,0.0023942017,1.0319009,9.516952,0.018936822,-0.037873644,-0.016493361,-0.10800571739673615,-2.515723172109574E-4,-0.25647491216659546,1004.38916,
2021.05.19 17:26:26,71.0,80.0,8.28,28.68,-37.86,0.20111294,1.2210429,9.545682,0.005497787,0.028099801,0.0018325958,-0.12719690799713135,-0.021065356209874153,-0.2666303813457489,1004.3865,
2021.05.19 17:26:26,71.0,80.0,8.099999,28.859999,-38.34,-0.0023942017,1.0773908,9.876082,-0.009162978,-0.009773844,-0.021991149,-0.1086612194776535,2.4242422659881413E-4,-0.2415010780096054,1004.3865,
2021.05.19 17:26:26,71.0,80.0,7.9199996,28.68,-38.34,0.1340753,1.1899183,9.725247,0.01160644,0.02321288,0.007941248,-0.12173693627119064,-0.013785439543426037,-0.2498132586479187,1004.3865,
2021.05.19 17:26:26,71.0,80.0,8.5199995,28.92,-37.92,0.11731588,1.2210429,9.694122,0.008552114,0.03481932,-0.0036651916,-0.12528811395168304,-0.012101163156330585,-0.2624624967575073,1004.3865,
2021.05.19 17:26:26,71.0,80.0,9.179999,28.98,-37.98,0.10055647,1.1540052,9.586384,0.032986723,0.037873644,-0.002443461,-0.11979659646749496,-0.010489125736057758,-0.2800676226615906,1004.3821,
2021.05.19 17:26:27,71.0,80.0,9.78,28.98,-37.86,0.272939,1.043872,10.493786,-0.08368854,-0.13133603,0.013439035,-0.0991157740354538,-0.026003722101449966,-0.31921935081481934,1004.3821,
2021.05.19 17:26:27,71.0,80.0,9.3,29.039999,-38.28,0.2825158,1.0702082,10.594342,-0.007330383,0.039095376,-0.0061086523,-0.10063989460468292,-0.02666034922003746,-0.30551138520240784,1004.3821,
