Time,X-cord,Y-cord,Mag_x,Mag_y,Mag_z,Acc_x,Acc_y,Acc_z,Gyro_x,Gyro_y,Gyro_z,Orn_x,Orn_y,Orn_z,Pressure,
2021.05.19 17:31:15,47.0,56.0,7.74,27.06,-36.719997,-0.6943185,0.8714894,8.853758,0.10873401,0.1704314,-0.14049901,-0.09781712293624878,0.07826060056686401,-0.15722361207008362,1004.2117,
2021.05.19 17:31:15,47.0,56.0,7.8599997,27.24,-36.78,0.19632454,1.1827357,9.476251,0.07574729,-0.009162978,-0.028710667,-0.12414204329252243,-0.020714569836854935,-0.2666037082672119,1004.2029,
2021.05.19 17:31:15,47.0,56.0,8.16,27.119999,-37.079998,-0.37110126,0.5746084,9.78989,-0.09285152,-0.1386664,-0.116675265,-0.05858481675386429,0.03788844123482704,-0.2267020344734192,1004.2029,
2021.05.19 17:31:15,47.0,56.0,8.16,26.58,-37.32,-0.33518824,0.36631286,9.691729,-0.0061086523,-0.14049901,-0.11484267,-0.03775591030716896,0.03457120060920715,-0.24061070382595062,1004.2029,
2021.05.19 17:31:15,47.0,56.0,7.74,27.539999,-37.98,-0.24899697,0.36631286,9.212888,0.05131268,-0.10140363,-0.009162978,-0.039725493639707565,0.027020448818802834,-0.227152481675148,1004.2029,
2021.05.19 17:31:15,47.0,56.0,6.96,27.24,-38.219997,-0.1388637,0.48602295,9.495404,-0.013439035,-0.065973446,0.02565634,-0.05113498121500015,0.014623263850808144,-0.2160443812608719,1004.2136,
2021.05.19 17:31:15,47.0,56.0,6.2999997,27.359999,-38.399998,-0.2681506,0.40222588,9.703699,-0.018936822,-0.031154128,0.017104227,-0.041411273181438446,0.027626823633909225,-0.17906171083450317,1004.2136,
2021.05.19 17:31:15,47.0,56.0,5.94,27.72,-38.34,0.02633622,0.5434838,9.751583,-0.0012217305,0.015882496,0.07269296,-0.05567507445812225,-0.002700705546885729,-0.20002619922161102,1004.2136,
2021.05.19 17:31:15,47.0,56.0,6.3599997,27.06,-37.92,-0.062249243,0.7565677,9.77792,-0.014049901,0.0030543262,0.081855945,-0.07721970230340958,0.006366221699863672,-0.20179389417171478,1004.2136,
2021.05.19 17:31:15,47.0,56.0,6.96,27.24,-37.44,0.11971009,0.8331822,9.959879,-0.021380283,-0.0018325958,0.10873401,-0.08345353603363037,-0.012018652632832527,-0.240143820643425,1004.19385,
2021.05.19 17:31:15,47.0,56.0,7.3799996,27.06,-37.62,0.2657564,0.8355764,10.070012,-0.0036651916,-0.035430185,0.09101892,-0.08275837451219559,-0.02638474851846695,-0.2715614140033722,1004.19385,
2021.05.19 17:31:15,47.0,56.0,8.099999,26.939999,-37.32,0.11971009,0.80924016,9.854534,0.02565634,-0.02076942,0.06047566,-0.08192870765924454,-0.012147118337452412,-0.27864429354667664,1004.19385,
2021.05.19 17:31:15,47.0,56.0,7.68,27.06,-36.899998,0.12210429,0.7757214,9.983821,0.031154128,-0.007330383,0.02687807,-0.07753627747297287,-0.01222960650920868,-0.26610809564590454,1004.19385,
2021.05.19 17:31:15,47.0,56.0,7.2,27.119999,-36.96,0.05267244,0.7062895,9.40203,0.06658431,0.014049901,-0.0030543262,-0.07497896254062653,-0.005602182354778051,-0.24354474246501923,1004.1987,
2021.05.19 17:31:15,47.0,56.0,7.08,27.359999,-36.42,-0.05746084,0.7541735,9.466674,0.028099801,0.026267206,-0.02565634,-0.07949680089950562,0.006069728173315525,-0.22354532778263092,1004.1987,
2021.05.19 17:31:15,47.0,56.0,6.48,27.119999,-36.42,-0.1364695,0.6847417,9.416395,0.017715093,0.014660766,-0.03359759,-0.0725826695561409,0.014491739682853222,-0.19779366254806519,1004.1987,
2021.05.19 17:31:15,47.0,56.0,6.7799997,26.88,-36.719997,0.050278235,0.6536171,9.392453,-0.007330383,0.009773844,-0.0018325958,-0.06947660446166992,-0.00535299489274621,-0.23327824473381042,1004.1987,
2021.05.19 17:31:15,47.0,56.0,6.8999996,26.4,-36.899998,0.107739076,0.46686932,9.667787,-0.047647487,-0.021991149,0.0012217305,-0.04825075343251228,-0.011143669486045837,-0.2541353106498718,1004.2002,
2021.05.19 17:31:16,47.0,56.0,6.6,26.039999,-37.38,-0.04070143,0.34715924,9.651027,-0.069027774,-0.036651913,-0.009162978,-0.03595539927482605,0.004217291250824928,-0.23118753731250763,1004.2002,
2021.05.19 17:31:16,47.0,56.0,6.54,26.039999,-37.5,0.0023942017,0.7015011,9.215282,-0.0580322,-0.009162978,0.030543262,-0.07597712427377701,-2.59807740803808E-4,-0.22353452444076538,1004.2002,
2021.05.19 17:31:16,47.0,56.0,6.3599997,26.82,-37.079998,0.06943185,0.9696517,9.260772,-0.0842994,-0.01282817,0.04153884,-0.10432223230600357,-0.007497274782508612,-0.21408508718013763,1004.2002,
2021.05.19 17:31:16,47.0,56.0,6.24,27.66,-37.32,-0.24420857,0.89064306,9.844957,-0.15088372,-0.028710667,-0.016493361,-0.0901937410235405,0.024800362065434456,-0.17014649510383606,1004.2007,
2021.05.19 17:31:16,47.0,56.0,6.2999997,28.26,-37.26,-0.10055647,0.8762778,10.359711,-0.13988814,-0.0421497,0.005497787,-0.08438034355640411,0.00970618985593319,-0.18745841085910797,1004.2007,
2021.05.19 17:31:16,47.0,56.0,6.72,28.26,-36.719997,-0.050278235,0.8283938,10.445902,-0.08124508,-0.040317107,0.029932396,-0.07913670688867569,0.004813164472579956,-0.20751681923866272,1004.2007,
2021.05.19 17:31:16,47.0,56.0,6.54,27.779999,-37.02,0.0023942017,0.7326257,9.883265,0.0061086523,0.0030543262,0.031154128,-0.07399257272481918,-2.4224806111305952E-4,-0.21190939843654633,1004.2007,
2021.05.19 17:31:16,47.0,56.0,6.54,27.9,-36.66,-0.01436521,0.5363012,9.744401,0.034208454,0.01282817,0.032375857,-0.05498132482171059,0.0014742003986611962,-0.2137993723154068,1004.18335,
2021.05.19 17:31:16,47.0,56.0,6.72,27.779999,-36.66,-0.04309563,0.4405331,9.674969,0.021380283,-0.023823744,0.03604105,-0.045501407235860825,0.004454313777387142,-0.21927906572818756,1004.18335,
2021.05.19 17:31:16,47.0,56.0,6.6,27.779999,-36.96,0.17717093,0.6560113,9.466674,0.053145275,-0.002443461,0.07941248,-0.06917424499988556,-0.01871304214000702,-0.23642675578594208,1004.18335,
2021.05.19 17:31:16,47.0,56.0,6.8999996,27.779999,-36.6,0.15322891,0.6991069,9.3661175,0.031154128,-0.031154128,0.077579886,-0.07449402660131454,-0.016358457505702972,-0.24167239665985107,1004.18335,
2021.05.19 17:31:16,47.0,56.0,7.2599998,27.66,-36.899998,0.093373865,0.61052144,9.883265,-0.009162978,-0.021380283,0.032375857,-0.06169211491942406,-0.00944739393889904,-0.24934513866901398,1004.1843,
2021.05.19 17:31:16,47.0,56.0,7.14,27.3,-36.54,-0.093373865,0.50757074,9.68694,-0.018936822,0.0018325958,0.007941248,-0.052347127348184586,0.009638851508498192,-0.2285579890012741,1004.1843,
2021.05.19 17:31:16,47.0,56.0,7.2599998,27.779999,-37.079998,0.18435353,0.58657944,9.866506,0.004886922,0.004886922,0.050701816,-0.059371355921030045,-0.018682610243558884,-0.2597293555736542,1004.1843,
2021.05.19 17:31:16,47.0,56.0,7.7999997,27.599998,-37.559998,0.2873042,0.62249243,9.679757,0.031154128,-0.007941248,0.03848451,-0.06419206410646439,-0.02967221848666668,-0.28930702805519104,1004.1843,
2021.05.19 17:31:16,47.0,56.0,7.7999997,27.18,-37.62,0.23463176,0.6991069,9.701305,0.014049901,0.01038471,0.017104227,-0.07191786915063858,-0.02418087236583233,-0.28429049253463745,1004.1914,
2021.05.19 17:31:16,47.0,56.0,7.98,27.06,-37.98,0.1316811,0.6464345,9.646238,0.02076942,-0.019547688,-0.0036651916,-0.06690789014101028,-0.013650182634592056,-0.28018301725387573,1004.1914,
2021.05.19 17:31:16,47.0,56.0,7.7999997,26.699999,-37.559998,0.11252748,0.6344634,9.80665,0.002443461,-0.012217305,-0.01160644,-0.06460297852754593,-0.011474106460809708,-0.2759658098220825,1004.1914,
2021.05.19 17:31:16,47.0,56.0,8.04,27.0,-37.44,-0.016759412,0.63206923,9.588778,0.028099801,-0.018325957,-0.009162978,-0.06582227349281311,0.0017478135414421558,-0.2648267149925232,1004.1914,
2021.05.19 17:31:16,47.0,56.0,7.68,26.88,-37.62,0.1436521,0.6368576,9.744401,0.013439035,-0.03176499,0.009162978,-0.06525637209415436,-0.01474094670265913,-0.27423012256622314,1004.1904,
2021.05.19 17:31:16,47.0,56.0,7.56,27.06,-37.32,0.110133275,0.59136784,9.636662,0.019547688,-0.022602014,-0.007330383,-0.06128561124205589,-0.011428073979914188,-0.26618674397468567,1004.1904,
2021.05.19 17:31:16,47.0,56.0,7.44,27.48,-37.02,0.18674773,0.6488287,9.615114,0.01160644,-0.009773844,-0.009773844,-0.06736526638269424,-0.019419867545366287,-0.2663479447364807,1004.1904,
2021.05.19 17:31:16,47.0,56.0,6.8999996,27.3,-37.2,0.16280572,0.6607997,9.543288,0.005497787,0.004886922,-0.02565634,-0.06912197917699814,-0.017058053985238075,-0.24764999747276306,1004.1904,
2021.05.19 17:31:16,47.0,56.0,7.08,27.42,-36.66,0.12449849,0.61052144,9.634268,-0.01038471,0.0,-0.04520403,-0.063279889523983,-0.012921745888888836,-0.24921579658985138,1004.19946,
2021.05.19 17:31:16,47.0,56.0,7.14,27.24,-36.899998,0.16519992,0.6775591,9.648633,-0.01282817,0.002443461,-0.040927973,-0.07009799033403397,-0.017119916155934334,-0.2555010914802551,1004.19946,
2021.05.19 17:31:17,47.0,56.0,7.44,27.06,-37.079998,0.04070143,0.63206923,9.873688,-0.03176499,-0.008552114,-0.055588737,-0.06392774730920792,-0.004122188314795494,-0.25297003984451294,1004.19946,
2021.05.19 17:31:17,47.0,56.0,7.2,26.82,-36.719997,0.033518825,0.7062895,9.933543,-0.019547688,0.0012217305,-0.040927973,-0.07098160684108734,-0.0033742941450327635,-0.24450145661830902,1004.19946,
2021.05.19 17:31:17,47.0,56.0,7.14,27.3,-37.079998,0.04070143,0.6991069,9.651027,0.014049901,-0.009773844,-0.017715093,-0.0723116546869278,-0.004217290785163641,-0.239304319024086,1004.1826,
2021.05.19 17:31:17,47.0,56.0,7.2599998,27.72,-36.66,0.01436521,0.6536171,9.703699,0.0061086523,0.0018325958,-0.021380283,-0.06725585460662842,-0.0014803839148953557,-0.23822346329689026,1004.1826,
2021.05.19 17:31:17,47.0,56.0,7.14,27.66,-36.66,-0.090979666,0.5674258,9.763555,-0.0012217305,-0.012217305,-0.02565634,-0.05804891139268875,0.00931802298873663,-0.22469376027584076,1004.1826,
2021.05.19 17:31:17,47.0,56.0,7.62,27.66,-36.78,-0.016759412,0.6392518,9.421184,0.02321288,0.018325957,0.0018325958,-0.06774865090847015,0.001778905396349728,-0.24600201845169067,1004.1826,
2021.05.19 17:31:17,47.0,56.0,7.9199996,27.3,-36.48,-0.11731588,0.58897364,9.773131,-0.02565634,0.0061086523,0.0067195175,-0.060187455266714096,0.012003342621028423,-0.248776376247406,1004.1853,
2021.05.19 17:31:17,47.0,56.0,7.98,27.0,-36.54,-0.050278235,0.6607997,9.792285,-0.010995574,-0.008552114,0.026267206,-0.06737862527370453,0.005134429316967726,-0.2590729296207428,1004.1853,
2021.05.19 17:31:17,47.0,56.0,7.8599997,27.359999,-36.719997,0.055066638,0.6895301,9.7324295,0.01038471,0.0,0.054367006,-0.07072938978672028,-0.00565799605101347,-0.26368406414985657,1004.1853,
2021.05.19 17:31:17,47.0,56.0,7.8599997,27.24,-36.54,0.18674773,0.6943185,9.811439,0.014660766,-0.018936822,0.06291912,-0.07063569873571396,-0.019031377509236336,-0.28006505966186523,1004.1853,
2021.05.19 17:31:17,47.0,56.0,7.7999997,27.24,-36.84,0.1364695,0.6967127,9.892841,0.022602014,-0.014660766,0.047647487,-0.07030318677425385,-0.01379389874637127,-0.2722805142402649,1004.1885,
2021.05.19 17:31:17,47.0,56.0,7.74,27.48,-36.84,0.33039984,0.7445967,9.67018,0.05131268,-0.028099801,0.051923547,-0.07680298388004303,-0.034153588116168976,-0.2894006073474884,1004.1885,
2021.05.19 17:31:17,47.0,56.0,8.04,27.24,-36.899998,0.28491,0.7110779,9.545682,0.043982297,-0.009773844,0.03359759,-0.07432179898023605,-0.029838144779205322,-0.29671525955200195,1004.1885,
2021.05.19 17:31:17,47.0,56.0,7.68,27.359999,-37.26,0.21787235,0.7110779,9.55047,0.04642576,-0.0018325958,-0.0036651916,-0.07429835945367813,-0.022808779031038284,-0.2766335904598236,1004.1885,
2021.05.19 17:31:17,47.0,56.0,7.62,27.06,-37.02,0.10055647,0.79487497,9.706094,0.018325957,-0.004276057,-0.02565634,-0.08170770853757858,-0.010359766893088818,-0.26082712411880493,1004.1819,
2021.05.19 17:31:17,47.0,56.0,7.62,26.58,-36.96,0.15083471,0.6655881,9.911995,0.01038471,-0.037873644,-0.017715093,-0.06704136729240417,-0.015216217376291752,-0.2750799059867859,1004.1819,
2021.05.19 17:31:17,47.0,56.0,7.56,26.22,-36.719997,0.29209262,0.7589619,9.579201,0.040927973,-0.0067195175,-0.014049901,-0.07902845740318298,-0.030482932925224304,-0.2905202805995941,1004.1819,
2021.05.19 17:31:17,47.0,56.0,7.5,26.22,-36.78,0.21547815,0.7278373,9.629479,0.020158553,-0.0030543262,-0.043982297,-0.07542203366756439,-0.022373193874955177,-0.2803070545196533,1004.1819,
2021.05.19 17:31:17,47.0,56.0,7.2599998,26.64,-36.719997,0.1604115,0.78050977,9.646238,0.007941248,0.0061086523,-0.050701816,-0.08072638511657715,-0.016627904027700424,-0.2606583833694458,1004.18384,
2021.05.19 17:31:17,47.0,56.0,7.2,26.939999,-36.78,0.12210429,0.78290397,9.579201,0.0061086523,-6.1086525E-4,-0.05131268,-0.08154171705245972,-0.012746123597025871,-0.2515464723110199,1004.18384,
2021.05.19 17:31:17,47.0,56.0,7.2,26.939999,-36.96,0.06464344,0.7326257,9.873688,-0.013439035,-0.02687807,-0.047647487,-0.07406249642372131,-0.00654694763943553,-0.24632832407951355,1004.18384,
2021.05.19 17:31:17,47.0,56.0,7.3199997,26.939999,-36.54,0.02873042,0.7661445,9.758766,0.004886922,-0.009773844,-0.027488936,-0.07834730297327042,-0.002944054314866662,-0.24493615329265594,1004.18384,
2021.05.19 17:31:17,47.0,56.0,7.56,26.34,-36.42,0.1388637,0.7733272,9.742006,0.008552114,-0.008552114,-0.013439035,-0.07920657098293304,-0.01425315160304308,-0.2705186605453491,1004.18066,
2021.05.19 17:31:17,47.0,56.0,7.2599998,26.58,-36.84,0.16280572,0.78290397,9.67018,0.015271631,0.0012217305,-0.018325957,-0.08077304065227509,-0.016834259033203125,-0.26137295365333557,1004.18066,
2021.05.19 17:31:17,47.0,56.0,6.7799997,26.58,-37.38,0.09816227,0.7206547,9.679757,0.01282817,0.015271631,-0.025045475,-0.07430876791477203,-0.010140636935830116,-0.23981471359729767,1004.18066,
2021.05.19 17:31:17,47.0,56.0,6.7799997,26.64,-37.5,0.1604115,0.7493851,9.488221,0.020158553,0.009162978,-0.01038471,-0.07880574464797974,-0.01690477319061756,-0.24618816375732422,1004.18066,
2021.05.19 17:31:18,47.0,56.0,6.42,27.24,-37.92,0.17717093,0.78529817,9.727641,-0.002443461,-0.0030543262,-0.0067195175,-0.08054053783416748,-0.018211130052804947,-0.2312578409910202,1004.19995,
2021.05.19 17:31:18,47.0,56.0,6.12,27.0,-37.62,0.07182605,0.770933,9.588778,-0.004886922,0.014049901,-0.016493361,-0.08022469282150269,-0.00749049661681056,-0.2107509821653366,1004.19995,
2021.05.19 17:31:18,47.0,56.0,6.42,27.24,-37.02,0.10534488,0.79248077,9.797073,-0.010995574,-0.014049901,0.0012217305,-0.08070915937423706,-0.010752273723483086,-0.2225264012813568,1004.19995,
2021.05.19 17:31:18,47.0,56.0,6.18,26.82,-36.899998,0.11492168,0.79726917,9.785102,-0.01282817,-6.1086525E-4,0.004276057,-0.08129268139600754,-0.011744016781449318,-0.21892833709716797,1004.19995,
2021.05.19 17:31:18,47.0,56.0,6.0,26.82,-36.719997,0.16998832,0.79487497,9.753978,0.009162978,-0.0061086523,0.015882496,-0.08130042254924774,-0.01742582581937313,-0.21988530457019806,1004.19653,
2021.05.19 17:31:18,47.0,56.0,6.42,26.699999,-36.6,0.19393034,0.79726917,9.603143,0.015271631,0.020158553,0.010995574,-0.08281492441892624,-0.020191723480820656,-0.23706771433353424,1004.19653,
2021.05.19 17:31:18,47.0,56.0,6.3599997,26.76,-37.14,0.062249243,0.7134721,9.674969,-0.0018325958,0.004276057,-0.005497787,-0.0736093670129776,-0.006433961912989616,-0.2206754982471466,1004.19653,
2021.05.19 17:31:18,47.0,56.0,6.8999996,26.58,-37.44,0.15562311,0.79248077,9.545682,-6.1086525E-4,0.028710667,0.0018325958,-0.08281891793012619,-0.016301540657877922,-0.24864406883716583,1004.19653,
2021.05.19 17:31:18,47.0,56.0,6.8999996,26.279999,-37.68,0.1364695,0.7206547,9.674969,-0.0030543262,0.004276057,0.008552114,-0.07434184104204178,-0.01410448458045721,-0.2508484423160553,1004.19727,
2021.05.19 17:31:18,47.0,56.0,6.24,26.4,-37.739998,0.019153614,0.6775591,9.797073,-0.023823744,-0.002443461,-0.009162978,-0.06904926151037216,-0.0019550316501408815,-0.21480119228363037,1004.19727,
2021.05.19 17:31:18,47.0,56.0,6.12,26.58,-37.079998,0.11731588,0.79726917,9.864111,-0.02443461,0.01282817,0.01282817,-0.08064424246549606,-0.011892642825841904,-0.21901248395442963,1004.19727,
2021.05.19 17:31:18,47.0,56.0,5.8199997,26.76,-36.6,0.15801731,0.78290397,9.753978,0.008552114,0.005497787,0.018936822,-0.08008293062448502,-0.01619887724518776,-0.21336890757083893,1004.19727,
2021.05.19 17:31:18,47.0,56.0,6.24,27.0,-36.84,0.2825158,0.8355764,9.598354,0.01038471,0.029932396,0.014660766,-0.0867978110909462,-0.029425280168652534,-0.23878847062587738,1004.2024,
2021.05.19 17:31:18,47.0,56.0,6.42,27.18,-37.2,0.011971008,0.6368576,9.749189,0.004886922,0.022602014,-0.026267206,-0.06523143500089645,-0.001227897242642939,-0.2154339849948883,1004.2024,
2021.05.19 17:31:18,47.0,56.0,6.2999997,26.939999,-37.44,0.088585466,0.7230489,9.682152,-0.007330383,0.028710667,-0.020158553,-0.07453706860542297,-0.009149101562798023,-0.2203921526670456,1004.2024,
2021.05.19 17:31:18,47.0,56.0,6.0,27.3,-38.1,0.10534488,0.7517793,9.799467,0.0036651916,-0.009773844,0.0061086523,-0.07656197249889374,-0.010749648325145245,-0.2096005529165268,1004.2024,
2021.05.19 17:31:18,47.0,56.0,5.94,27.359999,-37.739998,0.22984336,0.8523358,9.509769,0.023823744,-0.0030543262,0.017104227,-0.08936259150505066,-0.024164477363228798,-0.2201945185661316,1004.2007,
2021.05.19 17:31:18,47.0,56.0,5.8799996,27.24,-37.739998,0.05746084,0.7422025,9.629479,-0.0030543262,-0.007941248,-0.016493361,-0.07692263275384903,-0.005967109464108944,-0.20039168000221252,1004.2007,
2021.05.19 17:31:18,47.0,56.0,6.06,27.66,-37.8,0.062249243,0.7134721,9.907207,-0.012217305,-0.020158553,-0.014660766,-0.07188994437456131,-0.006283145863562822,-0.204911470413208,1004.2007,
2021.05.19 17:31:18,47.0,56.0,6.54,27.48,-38.1,-0.033518825,0.6799533,9.698911,0.004886922,0.01282817,-0.004886922,-0.06999121606349945,0.0034559231717139482,-0.20991183817386627,1004.2007,
2021.05.19 17:31:18,47.0,56.0,6.6,27.24,-37.62,0.107739076,0.7733272,9.586384,0.015882496,-0.0018325958,0.02443461,-0.08048996329307556,-0.011238287203013897,-0.22868476808071136,1004.1936,
2021.05.19 17:31:18,47.0,56.0,6.66,27.06,-37.68,0.17238252,0.7613561,9.560047,0.0036651916,-0.009773844,0.017104227,-0.07945877313613892,-0.018029602244496346,-0.24024046957492828,1004.1936,
2021.05.19 17:31:18,47.0,56.0,6.8999996,26.64,-37.44,0.110133275,0.6871359,9.837775,-0.018936822,-0.01282817,0.0012217305,-0.06972906738519669,-0.011194469407200813,-0.2457563430070877,1004.1936,
2021.05.19 17:31:18,47.0,56.0,6.8399997,26.82,-36.54,0.06943185,0.7661445,9.449914,0.0061086523,0.022602014,0.0061086523,-0.08089511841535568,-0.007347220554947853,-0.23506321012973785,1004.1936,
2021.05.19 17:31:18,47.0,56.0,6.8999996,26.64,-37.26,0.079008654,0.6607997,9.832987,-0.023823744,-0.025045475,0.0012217305,-0.06709928065538406,-0.008034888654947281,-0.24272853136062622,1004.19727,
2021.05.19 17:31:19,47.0,56.0,7.2599998,26.76,-36.96,0.12928689,0.7541735,9.844957,-0.01160644,0.005497787,0.01160644,-0.07644917070865631,-0.013131540268659592,-0.25676244497299194,1004.19727,
2021.05.19 17:31:19,47.0,56.0,7.3799996,26.939999,-36.96,0.20590134,0.81163436,9.500193,0.02565634,-0.0030543262,0.018325957,-0.08520659059286118,-0.021669993177056313,-0.2663942575454712,1004.19727,
2021.05.19 17:31:19,47.0,56.0,7.3799996,26.82,-37.32,0.18914193,0.7781156,9.77792,-0.01160644,0.0030543262,-0.007941248,-0.07939671725034714,-0.019341368228197098,-0.26640453934669495,1004.19727,
2021.05.19 17:31:19,47.0,56.0,7.5,26.939999,-36.96,0.09816227,0.7158663,9.720459,0.014660766,-0.02076942,-0.017104227,-0.07350888103246689,-0.010098178870975971,-0.2601575553417206,1004.21216,
2021.05.19 17:31:19,47.0,56.0,7.7999997,26.519999,-37.02,0.110133275,0.7374141,9.636662,0.009773844,-0.004886922,-0.010995574,-0.07636793702840805,-0.011428073979914188,-0.2739502191543579,1004.21216,
2021.05.19 17:31:19,47.0,56.0,8.099999,26.519999,-37.32,0.1412579,0.7422025,9.588778,0.0012217305,-6.1086525E-4,-0.0067195175,-0.07724087685346603,-0.014730519615113735,-0.28692761063575745,1004.21216,
2021.05.19 17:31:19,47.0,56.0,8.099999,26.519999,-37.38,0.15083471,0.7326257,9.703699,0.004886922,-0.02321288,-0.01282817,-0.07534760236740112,-0.015542791225016117,-0.2884855270385742,1004.21216,
2021.05.19 17:31:19,47.0,56.0,7.74,26.64,-37.32,0.15322891,0.78529817,9.552865,-0.004886922,0.004276057,-0.015271631,-0.08201058954000473,-0.016038723289966583,-0.27458563446998596,1004.21265,
2021.05.19 17:31:19,47.0,56.0,7.44,27.119999,-37.68,0.1604115,0.7757214,9.509769,0.0067195175,-0.01038471,-0.026267206,-0.08137927204370499,-0.016866475343704224,-0.2622283399105072,1004.21265,
2021.05.19 17:31:19,47.0,56.0,6.8999996,27.24,-37.8,0.17717093,0.7422025,9.835381,-0.017104227,-0.013439035,-0.035430185,-0.07530758529901505,-0.018011683598160744,-0.24750135838985443,1004.21265,
2021.05.19 17:31:19,47.0,56.0,6.48,27.599998,-37.739998,0.12928689,0.7398083,9.818622,-0.022602014,-0.014049901,-0.03848451,-0.07519887387752533,-0.013166758231818676,-0.2259332686662674,1004.21265,
2021.05.19 17:31:19,47.0,56.0,6.72,27.599998,-38.16,0.25139117,0.8475474,9.624691,0.021380283,-6.1086525E-4,-0.023823744,-0.08780334144830704,-0.026113463565707207,-0.24522995948791504,1004.2063,
2021.05.19 17:31:19,47.0,56.0,6.12,27.42,-37.559998,0.08619126,0.7637503,9.636662,0.0036651916,-0.002443461,-0.040317107,-0.07908619195222855,-0.008943861350417137,-0.20993860065937042,1004.2063,
2021.05.19 17:31:19,47.0,56.0,6.3599997,27.359999,-37.44,0.007182605,0.7015011,9.715671,-0.005497787,-0.004276057,-0.051923547,-0.07207794487476349,-7.392803090624511E-4,-0.2098923623561859,1004.2063,
2021.05.19 17:31:19,47.0,56.0,6.48,27.42,-37.86,-0.009576807,0.7589619,9.526528,0.007941248,-0.0030543262,-0.03176499,-0.07950030267238617,0.00100527738686651,-0.20921364426612854,1004.2063,
2021.05.19 17:31:19,47.0,56.0,5.8799996,27.42,-37.38,0.059855044,0.7374141,9.89763,-0.01282817,-0.002443461,-0.017104227,-0.07436535507440567,-0.006047338247299194,-0.20001818239688873,1004.20264,
2021.05.19 17:31:19,47.0,56.0,6.7799997,27.539999,-37.8,-0.04309563,0.6895301,9.689334,0.005497787,0.012217305,-0.0061086523,-0.07104334980249405,0.004447709769010544,-0.2158394455909729,1004.20264,
2021.05.19 17:31:19,47.0,56.0,6.8399997,27.539999,-37.62,0.2825158,0.8523358,9.674969,0.007941248,-0.0030543262,0.022602014,-0.08783291280269623,-0.029192395508289337,-0.25282007455825806,1004.20264,
2021.05.19 17:31:19,47.0,56.0,6.8999996,27.0,-37.079998,0.18674773,0.7445967,9.742006,-0.0067195175,0.015271631,-0.01038471,-0.07626929134130478,-0.019166981801390648,-0.25052058696746826,1004.20264,
2021.05.19 17:31:19,47.0,56.0,7.3199997,27.119999,-37.68,0.19393034,0.78769237,9.653421,0.01038471,-0.0018325958,-0.008552114,-0.08140049874782562,-0.020086584612727165,-0.26226598024368286,1004.20215,
2021.05.19 17:31:19,47.0,56.0,6.96,26.88,-37.5,0.14844051,0.7278373,9.631873,-0.0012217305,0.009162978,-0.015882496,-0.07541324198246002,-0.015410165302455425,-0.24916549026966095,1004.20215,
2021.05.19 17:31:19,47.0,56.0,6.72,26.82,-37.5,0.12689269,0.7445967,9.773131,0.0012217305,-0.015882496,-0.01282817,-0.07603485137224197,-0.012983102351427078,-0.2389325350522995,1004.20215,
2021.05.19 17:31:19,47.0,56.0,6.72,27.119999,-37.8,0.12689269,0.78050977,9.598354,0.004276057,0.014660766,-0.009162978,-0.0811314582824707,-0.013219484128057957,-0.23549088835716248,1004.20215,
2021.05.19 17:31:19,47.0,56.0,6.7799997,27.0,-37.26,0.055066638,0.7278373,9.605537,-0.0012217305,-0.0012217305,-0.015271631,-0.0756269246339798,-0.00573273841291666,-0.2309955209493637,1004.2097,
2021.05.19 17:31:19,47.0,56.0,7.2,27.3,-36.96,0.090979666,0.7565677,9.753978,-0.016493361,0.004886922,-0.009773844,-0.07740670442581177,-0.009327171370387077,-0.2458127737045288,1004.2097,
2021.05.19 17:31:20,47.0,56.0,7.2599998,27.359999,-36.899998,0.09816227,0.7445967,9.746795,-0.0036651916,-0.0030543262,-0.0067195175,-0.07624206691980362,-0.01007089577615261,-0.2484133392572403,1004.2097,
2021.05.19 17:31:20,47.0,56.0,7.68,27.48,-36.96,0.1316811,0.7517793,9.794679,-0.009773844,0.004886922,-0.004886922,-0.07659676671028137,-0.013443336822092533,-0.2642325758934021,1004.2097,
2021.05.19 17:31:20,47.0,56.0,7.8599997,27.779999,-37.079998,0.21547815,0.7661445,9.655815,0.015882496,-0.004886922,0.007330383,-0.07915989309549332,-0.022312190383672714,-0.27646926045417786,1004.2063,
2021.05.19 17:31:20,47.0,56.0,7.68,27.72,-37.02,0.20350714,0.7757214,9.581595,0.0012217305,0.010995574,-0.004276057,-0.08076519519090652,-0.02123618684709072,-0.26984480023384094,1004.2063,
2021.05.19 17:31:20,47.0,56.0,8.04,27.599998,-37.2,0.045489833,0.6823475,9.715671,-0.0012217305,-0.007330383,-0.021991149,-0.07011573761701584,-0.0046820747666060925,-0.26610568165779114,1004.2063,
2021.05.19 17:31:20,47.0,56.0,8.099999,27.779999,-36.6,0.06464344,0.7469909,9.533711,-0.009773844,0.01282817,-0.013439035,-0.07819104194641113,-0.006780407857149839,-0.26674720644950867,1004.2063,
2021.05.19 17:31:20,47.0,56.0,7.8599997,27.3,-36.54,0.0047884034,0.6943185,9.773131,-0.009162978,-0.009162978,-0.008552114,-0.07092443853616714,-4.899558261968195E-4,-0.25827693939208984,1004.1992,
2021.05.19 17:31:20,47.0,56.0,7.44,27.18,-37.2,0.079008654,0.7086837,9.813833,-0.018325957,-0.0030543262,0.0018325958,-0.07208526879549026,-0.008050569333136082,-0.2542211711406708,1004.1992,
2021.05.19 17:31:20,47.0,56.0,7.14,27.06,-37.14,0.17956513,0.7757214,9.651027,0.007330383,0.0,0.02321288,-0.08019084483385086,-0.01860366016626358,-0.25580835342407227,1004.1992,
2021.05.19 17:31:20,47.0,56.0,6.66,26.82,-37.5,0.18914193,0.7302315,9.615114,-0.0036651916,0.01160644,0.0018325958,-0.07578609138727188,-0.01966877654194832,-0.24508340656757355,1004.1992,
2021.05.19 17:31:20,47.0,56.0,6.8399997,26.939999,-37.559998,0.1604115,0.7445967,9.78989,-0.01160644,-0.004886922,-0.004276057,-0.07590141892433167,-0.016383958980441093,-0.24589791893959045,1004.1992,
2021.05.19 17:31:20,47.0,56.0,6.96,26.82,-37.38,0.12689269,0.7110779,9.629479,6.1086525E-4,-0.0067195175,-0.018936822,-0.07370369881391525,-0.013176760636270046,-0.24748995900154114,1004.1992,
2021.05.19 17:31:20,47.0,56.0,7.2599998,26.76,-36.96,0.11731588,0.6799533,9.662998,-0.01160644,-0.004886922,-0.009162978,-0.07024574279785156,-0.012140137143433094,-0.25740110874176025,1004.1992,
2021.05.19 17:31:20,47.0,56.0,7.44,26.58,-37.32,0.095768064,0.7613561,9.828198,-0.021991149,0.0018325958,-0.014049901,-0.07730843871831894,-0.009743905626237392,-0.25962889194488525,1004.1992,
2021.05.19 17:31:20,47.0,56.0,7.5,26.699999,-37.079998,0.107739076,0.7422025,9.555259,0.005497787,-0.007330383,-0.005497787,-0.07751420885324478,-0.011274891905486584,-0.2623452842235565,1004.19775,
2021.05.19 17:31:20,47.0,56.0,7.44,26.699999,-37.26,0.09816227,0.7374141,9.825804,-0.02321288,-0.007941248,-0.014660766,-0.07490459084510803,-0.009989921934902668,-0.259642630815506,1004.19775,
2021.05.19 17:31:20,47.0,56.0,6.8399997,26.64,-37.5,0.090979666,0.7278373,9.598354,0.0067195175,0.0067195175,-0.01282817,-0.0756811648607254,-0.009478390216827393,-0.24006135761737823,1004.19775,
2021.05.19 17:31:20,47.0,56.0,6.42,26.58,-37.5,0.074220255,0.6895301,9.883265,-0.019547688,0.004886922,-0.017715093,-0.06965261697769165,-0.007509549148380756,-0.22617822885513306,1004.19775,
2021.05.19 17:31:20,47.0,56.0,6.18,26.519999,-37.98,0.1412579,0.7350199,9.739613,0.01160644,-0.0067195175,-0.004886922,-0.07531638443470001,-0.014502424746751785,-0.2258138358592987,1004.20386,
2021.05.19 17:31:20,47.0,56.0,5.94,26.88,-37.5,0.22984336,0.7469909,9.634268,0.014049901,0.0012217305,0.0,-0.07735804468393326,-0.023852333426475525,-0.22622637450695038,1004.20386,
2021.05.19 17:31:20,47.0,56.0,6.18,27.42,-37.38,0.1412579,0.7182605,9.64145,0.005497787,-0.007330383,-0.020158553,-0.07435183972120285,-0.014650056138634682,-0.21977469325065613,1004.20386,
2021.05.19 17:31:20,47.0,56.0,6.18,27.42,-37.2,0.088585466,0.6871359,9.701305,0.0030543262,-0.008552114,-0.022602014,-0.07070818543434143,-0.00913103949278593,-0.21415594220161438,1004.20386,
2021.05.19 17:31:20,47.0,56.0,5.7,27.539999,-36.6,0.009576807,0.7015011,9.56723,0.0067195175,0.004276057,-0.017715093,-0.0731923058629036,-0.0010010006371885538,-0.18806926906108856,1004.19946,
2021.05.19 17:31:20,47.0,56.0,5.8799996,27.3,-37.26,0.047884032,0.6631939,9.68694,-0.004276057,-0.015882496,-0.01038471,-0.06835518777370453,-0.004943113308399916,-0.2008891999721527,1004.19946,
2021.05.19 17:31:20,47.0,56.0,5.94,27.06,-37.62,0.04070143,0.6584055,9.864111,-0.017104227,-0.0018325958,-0.0018325958,-0.06664814800024033,-0.004126190673559904,-0.20372410118579865,1004.19946,
2021.05.19 17:31:21,47.0,56.0,6.12,27.3,-37.38,0.20111294,0.78050977,9.629479,0.01160644,0.008552114,0.021380283,-0.08085983991622925,-0.020882094278931618,-0.2244584858417511,1004.19946,
2021.05.19 17:31:21,47.0,56.0,6.96,27.3,-37.739998,0.16280572,0.7469909,9.624691,6.1086525E-4,-0.002443461,0.0,-0.0774456262588501,-0.01691380888223648,-0.24701344966888428,1004.2007,
2021.05.19 17:31:21,47.0,56.0,7.2,27.3,-37.2,0.17956513,0.6847417,9.753978,-0.005497787,-0.010995574,-0.009773844,-0.07007445394992828,-0.018407346680760384,-0.2583908140659332,1004.2007,
2021.05.19 17:31:21,47.0,56.0,7.3799996,27.66,-37.26,0.12689269,0.7038953,9.770737,-0.007941248,0.016493361,-0.01038471,-0.07191087305545807,-0.01298628281801939,-0.25424498319625854,1004.2007,
2021.05.19 17:31:21,47.0,56.0,7.3799996,27.42,-37.079998,0.0047884034,0.6799533,9.785102,0.0067195175,0.01160644,-0.0067195175,-0.06937708705663681,-4.893564619123936E-4,-0.24236921966075897,1004.2007,
2021.05.19 17:31:21,47.0,56.0,7.2599998,27.48,-37.02,-0.0047884034,0.6536171,9.595961,0.009162978,0.014049901,0.0036651916,-0.06800872087478638,4.990019369870424E-4,-0.23736795783042908,1004.2019,
2021.05.19 17:31:21,47.0,56.0,7.2599998,27.539999,-37.02,0.12689269,0.7469909,9.607931,-0.0012217305,-0.004276057,0.029321533,-0.07758449763059616,-0.013206309638917446,-0.25020429491996765,1004.2019,
2021.05.19 17:31:21,47.0,56.0,6.6,26.88,-36.78,0.12210429,0.6751649,9.6845455,-0.007330383,-0.004886922,0.004276057,-0.06959757208824158,-0.01260749064385891,-0.23603324592113495,1004.2019,
2021.05.19 17:31:21,47.0,56.0,6.6,26.82,-37.26,0.25857377,0.770933,9.7084875,-0.014660766,0.01038471,0.016493361,-0.07921388745307922,-0.026627490296959877,-0.25043821334838867,1004.2019,
2021.05.19 17:31:21,47.0,56.0,6.0,26.76,-37.38,-0.031124622,0.62009823,9.560047,0.009162978,-0.01160644,-0.021380283,-0.06477243453264236,0.00325568625703454,-0.19915606081485748,1004.2002,
2021.05.19 17:31:21,47.0,56.0,5.8799996,26.34,-37.92,0.22026655,0.7278373,10.014946,-0.039095376,0.012217305,0.01038471,-0.07253009080886841,-0.02199023775756359,-0.22739045321941376,1004.2002,
2021.05.19 17:31:21,47.0,56.0,6.0,26.4,-38.219997,0.21787235,0.50517654,9.662998,0.047036625,-0.034208454,0.0067195175,-0.05221868306398392,-0.022543255239725113,-0.23740123212337494,1004.2002,
2021.05.19 17:31:21,47.0,56.0,5.8199997,25.8,-37.98,0.6464345,0.9600749,10.414778,-0.15699236,-0.069027774,0.050701816,-0.09174853563308716,-0.0619894415140152,-0.27316322922706604,1004.2002,
2021.05.19 17:31:21,47.0,56.0,6.42,25.859999,-37.8,-0.18674773,0.5602432,9.332599,0.021380283,0.07819075,-0.07086037,-0.05994685739278793,0.02000759169459343,-0.1989491879940033,1004.2075,
