Time,X-cord,Y-cord,Mag_x,Mag_y,Mag_z,Acc_x,Acc_y,Acc_z,Gyro_x,Gyro_y,Gyro_z,Orn_x,Orn_y,Orn_z,Pressure,
2021.05.19 17:31:37,45.0,54.0,10.98,24.72,-36.54,-0.5506664,0.89782566,8.537724,0.05131268,0.15882497,-0.16493362,-0.10455908626317978,0.06440882384777069,-0.2935831844806671,1004.1987,
2021.05.19 17:31:37,45.0,54.0,11.04,24.48,-37.02,0.107739076,1.091756,9.742006,-0.05375614,-0.1863139,-0.048258353,-0.11159443855285645,-0.011058777570724487,-0.3827506899833679,1004.2046,
2021.05.19 17:31:37,45.0,54.0,9.96,24.66,-37.62,-0.19632454,0.63206923,10.110714,-0.15515977,-0.2180789,-0.12156218,-0.06242181360721588,0.019415035843849182,-0.3296598196029663,1004.2046,
2021.05.19 17:31:37,45.0,54.0,9.3,24.96,-37.68,-0.16280572,0.49320555,9.909601,-0.025045475,-0.18387043,-0.12644911,-0.049722738564014435,0.01642761006951332,-0.3131103515625,1004.2046,
2021.05.19 17:31:37,45.0,54.0,8.639999,25.38,-37.92,-0.10295067,0.41180268,9.603143,0.03848451,-0.13255776,-0.07269296,-0.04285335913300514,0.010720107704401016,-0.29612424969673157,1004.2046,
2021.05.19 17:31:37,45.0,54.0,7.9199996,25.32,-37.5,0.031124622,0.35194764,9.842564,0.027488936,-0.12583824,-0.04886922,-0.03574231639504433,-0.0031622368842363358,-0.29302799701690674,1004.2097,
2021.05.19 17:31:37,45.0,54.0,7.8599997,25.38,-37.2,-0.01436521,0.33279404,9.677363,0.05009095,-0.108123146,-0.022602014,-0.034375328570604324,0.0014844125835224986,-0.2849569320678711,1004.2097,
2021.05.19 17:31:37,45.0,54.0,7.7999997,24.96,-37.559998,0.2873042,0.60094464,9.679757,0.032375857,-0.07513642,0.03604105,-0.061975814402103424,-0.02967221848666668,-0.3163369297981262,1004.2097,
2021.05.19 17:31:37,45.0,54.0,7.56,25.08,-37.38,0.49081135,0.62728083,10.498574,-0.007330383,-0.07880162,0.009773844,-0.05961323902010918,-0.046716272830963135,-0.3289262652397156,1004.2097,
2021.05.19 17:31:37,45.0,54.0,7.74,25.199999,-37.68,0.36391866,0.81163436,9.155427,0.12461651,0.036651913,-0.010995574,-0.0883500874042511,-0.03972804173827171,-0.31428077816963196,1004.2129,
2021.05.19 17:31:37,45.0,54.0,7.8599997,25.14,-37.739998,0.22266077,1.0486604,8.987833,0.03726278,0.021991149,-0.0421497,-0.11611507833003998,-0.024768510833382607,-0.29134756326675415,1004.2129,
2021.05.19 17:31:37,45.0,54.0,7.56,25.38,-37.559998,-0.16998832,0.79248077,9.667787,-0.06658431,-0.062308256,-0.099571034,-0.08177582919597626,0.01758114993572235,-0.23850351572036743,1004.2129,
2021.05.19 17:31:37,45.0,54.0,7.98,25.08,-37.8,-0.11252748,0.5363012,10.340557,-0.06658431,-0.12950343,-0.05497787,-0.05181437358260155,0.010881718248128891,-0.27320942282676697,1004.2129,
2021.05.19 17:31:37,45.0,54.0,7.74,25.019999,-37.86,0.02633622,0.49081135,10.060435,-0.01160644,-0.06780604,0.014660766,-0.0487474761903286,-0.002617795020341873,-0.2842220366001129,1004.2173,
2021.05.19 17:31:37,45.0,54.0,7.68,24.84,-37.92,-0.011971008,0.50757074,10.125079,-0.0030543262,-0.057421334,0.04153884,-0.05008808523416519,0.001182312029413879,-0.2784501612186432,1004.2173,
2021.05.19 17:31:37,45.0,54.0,8.04,24.96,-37.38,-0.2705448,0.5315128,8.968679,0.07391469,0.029932396,0.056199603,-0.05916713550686836,0.030156366527080536,-0.24928325414657593,1004.2173,
2021.05.19 17:31:37,45.0,54.0,7.62,25.08,-37.26,0.18674773,0.8595184,8.626308,0.07452556,-0.016493361,0.14355333,-0.09928829222917557,-0.02164524421095848,-0.28615686297416687,1004.2173,
2021.05.19 17:31:37,45.0,54.0,7.7999997,25.439999,-37.02,0.51954174,0.62249243,9.607931,-0.06169739,-0.04337143,0.08979719,-0.06460489332675934,-0.054021645337343216,-0.33912375569343567,1004.2092,
2021.05.19 17:31:37,45.0,54.0,7.8599997,25.68,-36.78,0.22744916,0.25857377,10.338163,-0.13927728,-0.058643065,0.0018325958,-0.02500031515955925,-0.021997375413775444,-0.31512871384620667,1004.2092,
2021.05.19 17:31:37,45.0,54.0,8.16,25.56,-37.02,0.23942018,0.5410896,9.552865,-0.059864793,0.02565634,0.043982297,-0.056563422083854675,-0.025057410821318626,-0.3179972767829895,1004.2092,
2021.05.19 17:31:37,45.0,54.0,8.46,25.56,-37.38,0.36870706,0.8619126,8.9758625,-0.021991149,0.020158553,0.087964594,-0.09565190225839615,-0.041054535657167435,-0.3319048583507538,1004.2092,
2021.05.19 17:31:37,45.0,54.0,8.099999,25.56,-37.8,0.35194764,0.94092125,9.512163,-0.096516706,-0.04520403,0.04337143,-0.09852996468544006,-0.03698287904262543,-0.31507956981658936,1004.2068,
2021.05.19 17:31:38,45.0,54.0,8.04,25.56,-38.04,0.14604631,0.6775591,10.19451,-0.118507855,-0.03970624,-0.015271631,-0.06635873019695282,-0.014324995689094067,-0.29729440808296204,1004.2068,
2021.05.19 17:31:38,45.0,54.0,7.2599998,25.56,-37.98,0.079008654,0.6344634,10.101137,-0.07452556,-0.04642576,-0.016493361,-0.06272677332162857,-0.007821599021553993,-0.26462656259536743,1004.2068,
2021.05.19 17:31:38,45.0,54.0,7.02,25.859999,-37.8,0.20350714,0.59615624,9.976639,-0.020158553,-0.014049901,0.021991149,-0.05967186018824577,-0.020395537838339806,-0.2707883417606354,1004.2068,
2021.05.19 17:31:38,45.0,54.0,7.14,25.68,-37.32,0.23223756,0.44771573,9.828198,0.018936822,-0.023823744,0.03176499,-0.04551004618406296,-0.023625321686267853,-0.28529495000839233,1004.19727,
2021.05.19 17:31:38,45.0,54.0,6.96,25.74,-37.14,0.48362875,0.5243302,9.512163,0.02687807,0.08735373,0.021991149,-0.05499545484781265,-0.050799451768398285,-0.30860087275505066,1004.19727,
2021.05.19 17:31:38,45.0,54.0,7.5,25.56,-37.079998,0.24899697,0.4213795,9.296685,0.07513642,-0.04153884,-0.016493361,-0.04527856409549713,-0.026777014136314392,-0.30252695083618164,1004.19727,
2021.05.19 17:31:38,45.0,54.0,7.74,25.08,-36.899998,0.16759412,0.47644615,9.801862,-0.032986723,0.0421497,-0.073303826,-0.04856240749359131,-0.01709652692079544,-0.3023335337638855,1004.19727,
2021.05.19 17:31:38,45.0,54.0,8.04,25.38,-37.14,-0.045489833,0.46208093,10.113108,-0.019547688,-0.0036651916,-0.0842994,-0.04565906897187233,0.004498076159507036,-0.2832206189632416,1004.197,
2021.05.19 17:31:38,45.0,54.0,8.639999,25.199999,-37.02,0.011971008,0.5770026,10.010158,-0.002443461,0.021991149,-0.05681047,-0.0575779527425766,-0.0011958854738622904,-0.30810999870300293,1004.197,
2021.05.19 17:31:38,45.0,54.0,8.46,25.38,-37.2,0.095768064,0.7254431,9.646238,0.06352998,0.027488936,-0.009773844,-0.07505978643894196,-0.009927695617079735,-0.30451297760009766,1004.197,
2021.05.19 17:31:38,45.0,54.0,8.4,25.439999,-36.84,0.01436521,0.6703765,9.940725,0.045814894,0.012217305,-0.012217305,-0.06733535975217819,-0.0014450856251642108,-0.29458680748939514,1004.197,
2021.05.19 17:31:38,45.0,54.0,7.68,25.08,-36.96,0.10534488,0.6488287,9.7324295,0.080634214,-0.0018325958,0.005497787,-0.06656427681446075,-0.010823686607182026,-0.2859865128993988,1004.19824,
2021.05.19 17:31:38,45.0,54.0,7.7999997,25.439999,-37.02,0.19153613,0.7110779,9.512163,0.084910266,0.015882496,-0.013439035,-0.07460074871778488,-0.02013319730758667,-0.29500505328178406,1004.19824,
2021.05.19 17:31:38,45.0,54.0,8.099999,25.199999,-37.14,-0.088585466,0.5315128,9.56723,0.05009095,0.029932396,-0.04642576,-0.055496133863925934,0.009258994832634926,-0.27752214670181274,1004.19824,
2021.05.19 17:31:38,45.0,54.0,7.9199996,25.32,-37.86,0.0047884034,0.581791,9.583989,0.03481932,0.021380283,-0.010995574,-0.06063006445765495,-4.996252246201038E-4,-0.280396044254303,1004.19824,
2021.05.19 17:31:38,45.0,54.0,8.639999,25.439999,-37.62,0.04070143,0.58657944,9.421184,0.030543262,0.023823744,0.0,-0.062180910259485245,-0.004320176783949137,-0.307412713766098,1004.1936,
2021.05.19 17:31:38,45.0,54.0,8.099999,24.779999,-37.62,0.17717093,0.60573304,9.519346,0.0,0.004886922,0.014660766,-0.06353513896465302,-0.01860952191054821,-0.3138431906700134,1004.1936,
2021.05.19 17:31:38,45.0,54.0,7.5,24.6,-37.38,0.093373865,0.62009823,9.591172,-0.013439035,-0.01160644,0.0036651916,-0.06456010788679123,-0.009735088795423508,-0.2838458716869354,1004.1936,
2021.05.19 17:31:38,45.0,54.0,8.04,24.84,-36.66,0.20111294,0.7757214,9.44752,-0.028710667,0.012217305,0.013439035,-0.08190622180700302,-0.021284164860844612,-0.30777767300605774,1004.1936,
2021.05.19 17:31:38,45.0,54.0,7.74,24.779999,-36.719997,0.059855044,0.7398083,9.873688,-0.053145275,-0.04337143,-0.013439035,-0.07478614151477814,-0.006062001455575228,-0.28231558203697205,1004.19556,
2021.05.19 17:31:38,45.0,54.0,7.74,25.199999,-36.899998,0.038307227,0.8331822,9.931149,-0.053145275,-0.01160644,-0.007941248,-0.08369922637939453,-0.003857261501252651,-0.27261102199554443,1004.19556,
2021.05.19 17:31:38,45.0,54.0,8.16,25.32,-36.78,-0.01436521,0.7733272,10.0748005,-0.01038471,-0.057421334,0.0,-0.07660826295614243,0.001425854628905654,-0.2812613844871521,1004.19556,
2021.05.19 17:31:38,45.0,54.0,7.9199996,25.26,-36.899998,0.21308395,0.7781156,9.904813,0.02443461,-0.007941248,0.029932396,-0.07838026434183121,-0.02150985412299633,-0.3010585308074951,1004.19556,
2021.05.19 17:31:38,45.0,54.0,8.34,25.08,-36.6,0.079008654,0.557849,9.878476,0.045814894,-0.014049901,0.01282817,-0.05640944465994835,-0.007997890934348106,-0.308381050825119,1004.1926,
2021.05.19 17:31:38,45.0,54.0,8.58,24.72,-36.54,0.2801216,0.6488287,9.258378,0.077579886,0.01160644,0.032375857,-0.06993387639522552,-0.030246784910559654,-0.34201690554618835,1004.1926,
2021.05.19 17:31:39,45.0,54.0,8.7,24.9,-36.78,0.21547815,0.6512229,9.572019,0.013439035,0.0067195175,0.015882496,-0.06791218370199203,-0.022507453337311745,-0.3354337513446808,1004.1926,
2021.05.19 17:31:39,45.0,54.0,8.099999,24.539999,-36.96,0.12928689,0.6607997,9.524135,0.015882496,-0.009162978,-0.004886922,-0.0692642331123352,-0.013573826290667057,-0.30805501341819763,1004.1926,
2021.05.19 17:31:39,45.0,54.0,7.9199996,24.6,-37.02,0.15322891,0.7038953,9.562442,-0.018325957,0.0012217305,0.01160644,-0.07346848398447037,-0.016022663563489914,-0.3028580844402313,1004.1914,
2021.05.19 17:31:39,45.0,54.0,7.68,24.84,-37.44,0.18674773,0.7206547,9.837775,-0.022602014,-0.010995574,0.005497787,-0.07311009615659714,-0.018980441614985466,-0.2961215674877167,1004.1914,
2021.05.19 17:31:39,45.0,54.0,7.68,25.019999,-37.62,0.23702596,0.78050977,9.713276,-0.010995574,-0.008552114,0.007941248,-0.08015890419483185,-0.02439742535352707,-0.29849007725715637,1004.1914,
2021.05.19 17:31:39,45.0,54.0,7.98,25.56,-37.739998,0.20829555,0.830788,9.995792,-0.0061086523,6.1086525E-4,-0.0012217305,-0.08290527015924454,-0.020835308358073235,-0.2975321114063263,1004.1914,
2021.05.19 17:31:39,45.0,54.0,8.28,25.619999,-38.399998,0.272939,0.85473,10.21127,0.01282817,-0.01282817,-0.0036651916,-0.08348021656274796,-0.026722827926278114,-0.31332817673683167,1004.18335,
2021.05.19 17:31:39,45.0,54.0,8.7,25.98,-37.559998,0.29927522,0.9816227,9.476251,0.089186326,0.03359759,-0.01038471,-0.10316845029592514,-0.03157111257314682,-0.32138708233833313,1004.18335,
2021.05.19 17:31:39,45.0,54.0,8.5199995,25.5,-37.5,0.32800564,0.80684596,9.811439,0.07147124,0.004276057,-0.042760566,-0.08200500160455704,-0.03341849520802498,-0.33061614632606506,1004.18335,
2021.05.19 17:31:39,45.0,54.0,8.46,25.019999,-37.559998,0.095768064,0.6703765,9.378088,0.07880162,0.032375857,-0.08979719,-0.07135818898677826,-0.010211541317403316,-0.30977344512939453,1004.18335,
2021.05.19 17:31:39,45.0,54.0,7.7999997,24.9,-37.26,0.08619126,0.6823475,9.277532,0.05009095,0.02443461,-0.076358154,-0.07341303676366806,-0.009290055371820927,-0.2873801589012146,1004.1897,
2021.05.19 17:31:39,45.0,54.0,7.3799996,24.48,-37.5,-0.033518825,0.6536171,9.454702,0.009162978,0.018325957,-0.065973446,-0.06902118772268295,0.0035451867152005434,-0.26213690638542175,1004.1897,
2021.05.19 17:31:39,45.0,54.0,7.2,24.48,-37.8,0.02633622,0.7517793,9.509769,-0.021380283,-0.0067195175,-0.030543262,-0.07888900488615036,-0.002769378712400794,-0.26070478558540344,1004.1897,
2021.05.19 17:31:39,45.0,54.0,7.3199997,24.84,-38.16,-0.016759412,0.78050977,9.782708,-0.05497787,0.0030543262,-0.014049901,-0.07961586862802505,0.0017131651984527707,-0.25528883934020996,1004.1897,
2021.05.19 17:31:39,45.0,54.0,7.62,25.14,-38.219997,0.055066638,0.8355764,9.636662,-0.03848451,0.009162978,0.0018325958,-0.08649035543203354,-0.005714223720133305,-0.2698003053665161,1004.18677,
2021.05.19 17:31:39,45.0,54.0,8.04,25.38,-38.28,0.09816227,0.8331822,9.785102,-0.053145275,0.004886922,6.1086525E-4,-0.0849388912320137,-0.010031472891569138,-0.2871059775352478,1004.18677,
2021.05.19 17:31:39,45.0,54.0,8.22,25.68,-37.739998,0.107739076,0.78769237,10.041282,-0.042760566,0.0012217305,0.0030543262,-0.07828059792518616,-0.010729202069342136,-0.29340851306915283,1004.18677,
2021.05.19 17:31:39,45.0,54.0,8.04,25.619999,-37.26,0.23942018,0.8738836,9.794679,-0.0012217305,0.01282817,0.019547688,-0.08895819634199142,-0.02443903684616089,-0.30113962292671204,1004.18677,
2021.05.19 17:31:39,45.0,54.0,7.74,25.619999,-37.5,0.30166942,0.81881696,9.703699,0.01160644,0.0030543262,0.005497787,-0.0841420590877533,-0.031078075990080833,-0.30115124583244324,1004.1904,
2021.05.19 17:31:39,45.0,54.0,7.56,25.439999,-37.739998,0.22744916,0.7661445,9.722853,0.013439035,-0.008552114,-0.015271631,-0.07861442118883133,-0.02338898740708828,-0.2897506058216095,1004.1904,
2021.05.19 17:31:39,45.0,54.0,7.62,25.859999,-37.86,0.21308395,0.7661445,9.504981,0.01282817,0.01160644,-0.025045475,-0.08041052520275116,-0.022414380684494972,-0.285896360874176,1004.1904,
2021.05.19 17:31:39,45.0,54.0,7.68,25.68,-37.98,-0.02633622,0.6464345,9.696517,-0.0067195175,-0.019547688,-0.042760566,-0.06656792014837265,0.00271604279987514,-0.2629196345806122,1004.1904,
2021.05.19 17:31:39,45.0,54.0,7.68,25.38,-37.5,0.047884032,0.6847417,9.682152,-0.009162978,-0.0036651916,-0.017104227,-0.0706036388874054,-0.004945558030158281,-0.274225652217865,1004.1997,
2021.05.19 17:31:39,45.0,54.0,7.62,25.439999,-37.26,-0.04070143,0.6991069,9.576807,-0.0061086523,-0.004886922,-0.0061086523,-0.07287007570266724,0.004249974153935909,-0.2596569061279297,1004.1997,
2021.05.19 17:31:39,45.0,54.0,7.5,24.96,-37.02,0.079008654,0.6943185,9.64145,-0.018936822,-0.015271631,0.004886922,-0.07188740372657776,-0.00819450244307518,-0.2760052978992462,1004.1997,
2021.05.19 17:31:40,45.0,54.0,7.44,25.08,-37.44,0.06703765,0.6560113,9.91439,-0.036651913,-0.0061086523,0.004276057,-0.06606977432966232,-0.006761548575013876,-0.27283093333244324,1004.1997,
2021.05.19 17:31:40,45.0,54.0,7.3799996,25.199999,-37.98,0.19632454,0.7206547,9.6845455,-0.013439035,-0.002443461,0.016493361,-0.07426076382398605,-0.020269164815545082,-0.2837957441806793,1004.2029,
2021.05.19 17:31:40,45.0,54.0,7.5,25.38,-37.92,0.23223756,0.78290397,9.583989,-0.0061086523,0.014049901,0.010995574,-0.08148393779993057,-0.024227086454629898,-0.28842803835868835,1004.2029,
2021.05.19 17:31:40,45.0,54.0,7.3799996,25.14,-37.86,0.19393034,0.6823475,9.890448,-0.021380283,-0.019547688,-0.012217305,-0.06886821985244751,-0.019605329260230064,-0.28541994094848633,1004.2029,
2021.05.19 17:31:40,45.0,54.0,7.56,25.32,-37.14,0.19153613,0.7326257,9.734824,-0.018325957,0.007330383,-0.01282817,-0.07510215789079666,-0.019672816619277,-0.2875911593437195,1004.2029,
2021.05.19 17:31:40,45.0,54.0,7.8599997,25.32,-36.84,0.050278235,0.6871359,9.485827,0.004886922,0.0030543262,-0.025045475,-0.07231085002422333,-0.00530030345544219,-0.28095343708992004,1004.1985,
2021.05.19 17:31:40,45.0,54.0,7.7999997,25.019999,-37.14,-0.038307227,0.5793968,9.909601,-0.03726278,-0.007330383,-0.03726278,-0.05840130150318146,0.0038656487595289946,-0.2748948037624359,1004.1985,
2021.05.19 17:31:40,45.0,54.0,7.98,26.039999,-37.02,-0.02873042,0.521936,9.854534,-0.010995574,-0.017104227,-0.017104227,-0.05291437730193138,0.0029154433868825436,-0.27441641688346863,1004.1985,
2021.05.19 17:31:40,45.0,54.0,7.56,26.16,-37.559998,0.22266077,0.7015011,9.528923,0.007330383,0.023823744,0.017104227,-0.07346554100513458,-0.02336258254945278,-0.2846200168132782,1004.1985,
2021.05.19 17:31:40,45.0,54.0,7.2599998,26.22,-37.62,0.21547815,0.6344634,9.7324295,0.0030543262,-0.01160644,0.007941248,-0.0650826245546341,-0.02213660441339016,-0.27569451928138733,1004.2029,
2021.05.19 17:31:40,45.0,54.0,7.2,26.4,-37.5,0.1604115,0.6727707,9.655815,-0.021380283,0.01038471,-0.016493361,-0.0695531964302063,-0.016611415892839432,-0.26402825117111206,1004.2029,
2021.05.19 17:31:40,45.0,54.0,7.14,26.039999,-37.86,0.21787235,0.6560113,9.737218,-0.012217305,-0.017715093,-0.0067195175,-0.06725309044122696,-0.022371483966708183,-0.2730475664138794,1004.2029,
2021.05.19 17:31:40,45.0,54.0,7.3799996,25.619999,-37.739998,0.16998832,0.6536171,9.751583,-0.018936822,-0.021991149,-0.010995574,-0.06691652536392212,-0.017430104315280914,-0.2787801921367645,1004.2029,
2021.05.19 17:31:40,45.0,54.0,7.3799996,25.92,-37.739998,0.1436521,0.63206923,9.593566,0.0030543262,-0.029932396,-0.018325957,-0.06578226387500763,-0.014972676523029804,-0.2733292281627655,1004.20044,
2021.05.19 17:31:40,45.0,54.0,7.44,26.16,-37.68,0.15083471,0.60094464,9.775525,-0.015271631,-0.029321533,-0.03176499,-0.06138985604047775,-0.015428608283400536,-0.27510279417037964,1004.20044,
2021.05.19 17:31:40,45.0,54.0,7.5,25.68,-37.32,0.050278235,0.60333884,9.624691,-0.01038471,-0.005497787,-0.028710667,-0.06260380148887634,-0.005223832558840513,-0.2685418426990509,1004.20044,
2021.05.19 17:31:40,45.0,54.0,8.04,26.039999,-37.38,0.12210429,0.61052144,9.605537,-0.012217305,-0.022602014,-0.021380283,-0.0634688213467598,-0.012711180374026299,-0.29174643754959106,1004.20044,
2021.05.19 17:31:40,45.0,54.0,8.46,25.92,-36.96,0.090979666,0.61530983,9.813833,-0.028710667,-0.02321288,-0.014660766,-0.06261356920003891,-0.009270288050174713,-0.3027874231338501,1004.197,
2021.05.19 17:31:40,45.0,54.0,8.5199995,25.38,-36.719997,0.22984336,0.641646,9.744401,-0.0012217305,-0.031154128,0.0012217305,-0.06573450565338135,-0.023582851514220238,-0.3263661563396454,1004.197,
2021.05.19 17:31:40,45.0,54.0,8.46,25.68,-36.78,0.272939,0.6847417,9.624691,0.008552114,-0.02076942,0.0012217305,-0.07099616527557373,-0.02835061214864254,-0.3248455226421356,1004.197,
2021.05.19 17:31:40,45.0,54.0,7.8599997,25.68,-36.54,0.22984336,0.6488287,9.718064,-0.002443461,-0.026267206,-0.015271631,-0.06664769351482391,-0.02364673838019371,-0.30152636766433716,1004.197,
2021.05.19 17:31:40,45.0,54.0,7.74,25.5,-36.899998,0.1412579,0.557849,9.849746,-0.007941248,-0.01160644,-0.028710667,-0.05656963214278221,-0.014340290799736977,-0.291677862405777,1004.1904,
2021.05.19 17:31:40,45.0,54.0,7.2599998,25.439999,-37.079998,0.25378537,0.7182605,9.394848,0.02321288,0.016493361,-0.007330383,-0.07627643644809723,-0.027006682008504868,-0.2851262390613556,1004.1904,
2021.05.19 17:31:40,45.0,54.0,7.2599998,25.14,-37.44,0.08379706,0.5722142,9.758766,-0.018936822,-0.005497787,-0.03359759,-0.05856669694185257,-0.008586639538407326,-0.2710197865962982,1004.1904,
2021.05.19 17:31:40,45.0,54.0,7.56,24.779999,-37.44,0.10534488,0.5626374,9.77792,-0.009773844,0.0018325958,-0.018325957,-0.05747491493821144,-0.01077333465218544,-0.2879526615142822,1004.1904,
2021.05.19 17:31:41,45.0,54.0,7.3199997,24.779999,-37.2,0.21068975,0.59855044,9.509769,0.014049901,0.002443461,0.005497787,-0.06284228712320328,-0.022151462733745575,-0.29231151938438416,1004.1831,
2021.05.19 17:31:41,45.0,54.0,7.44,25.439999,-37.38,0.29927522,0.6751649,9.739613,-0.009162978,0.0,0.008552114,-0.0691782608628273,-0.030717965215444565,-0.2980343699455261,1004.1831,
2021.05.19 17:31:41,45.0,54.0,7.14,25.619999,-37.38,0.25139117,0.6512229,9.713276,6.1086525E-4,-0.0061086523,-0.01038471,-0.06692209839820862,-0.02587541751563549,-0.2812861502170563,1004.1831,
2021.05.19 17:31:41,45.0,54.0,6.72,26.22,-37.62,0.25617957,0.6703765,9.581595,-0.002443461,0.02076942,-0.017104227,-0.06982631981372833,-0.026730261743068695,-0.2622818946838379,1004.1831,
2021.05.19 17:31:41,45.0,54.0,7.02,26.519999,-37.5,0.14844051,0.581791,9.67018,-0.007941248,0.01038471,-0.03176499,-0.060083914548158646,-0.015349130146205425,-0.2585473656654358,1004.1914,
2021.05.19 17:31:41,45.0,54.0,7.3199997,26.34,-37.5,0.19393034,0.5674258,9.701305,-0.012217305,-0.007330383,-0.021991149,-0.058411430567502975,-0.01998746767640114,-0.27609768509864807,1004.1914,
2021.05.19 17:31:41,45.0,54.0,7.2,26.46,-37.26,0.2753332,0.6440403,9.677363,-0.009162978,0.01282817,-0.010995574,-0.06642641872167587,-0.028443586081266403,-0.2786506414413452,1004.1914,
2021.05.19 17:31:41,45.0,54.0,7.14,26.039999,-37.02,0.21787235,0.61530983,9.603143,-6.1086525E-4,0.0030543262,-0.027488936,-0.0639699175953865,-0.02268371917307377,-0.2743820250034332,1004.1914,
2021.05.19 17:31:41,45.0,54.0,6.6,25.859999,-37.26,0.23463176,0.641646,9.68694,-0.017715093,0.01038471,-0.031154128,-0.06612230092287064,-0.02421671710908413,-0.25947389006614685,1004.20215,
2021.05.19 17:31:41,45.0,54.0,6.72,26.039999,-36.78,0.11971009,0.5650316,9.825804,-0.009773844,-0.009162978,-0.047647487,-0.057437360286712646,-0.012182633392512798,-0.24971748888492584,1004.20215,
2021.05.19 17:31:41,45.0,54.0,6.72,26.279999,-37.079998,0.10295067,0.5793968,9.799467,-0.018936822,0.004886922,-0.032375857,-0.05905333161354065,-0.010505354963243008,-0.24513031542301178,1004.20215,
2021.05.19 17:31:41,45.0,54.0,6.54,26.279999,-37.079998,0.1364695,0.61052144,9.622296,0.018325957,-0.010995574,-0.016493361,-0.06335733085870743,-0.014181681908667088,-0.24243909120559692,1004.20215,
2021.05.19 17:31:41,45.0,54.0,6.06,26.039999,-37.26,0.18674773,0.62488663,9.746795,0.0030543262,0.007330383,-0.0036651916,-0.06401266902685165,-0.019157569855451584,-0.2344014197587967,1004.19336,
2021.05.19 17:31:41,45.0,54.0,5.64,26.099998,-37.8,0.05746084,0.51475334,9.765948,0.010995574,-0.02076942,-0.023823744,-0.052659355103969574,-0.0058837272226810455,-0.2060175985097885,1004.19336,
2021.05.19 17:31:41,45.0,54.0,6.0,25.68,-37.86,0.16759412,0.59855044,9.507375,0.015271631,0.009773844,-0.0036651916,-0.06286371499300003,-0.017625974491238594,-0.23372679948806763,1004.19336,
2021.05.19 17:31:41,45.0,54.0,6.12,25.859999,-38.04,0.11252748,0.5674258,9.753978,-0.007330383,-0.01282817,-0.009162978,-0.05810443311929703,-0.011536061763763428,-0.2299136072397232,1004.19336,
2021.05.19 17:31:41,45.0,54.0,6.7799997,26.34,-37.68,0.16280572,0.581791,9.7324295,-0.005497787,0.007330383,0.002443461,-0.05969921126961708,-0.016726607456803322,-0.25405314564704895,1004.1892,
2021.05.19 17:31:41,45.0,54.0,7.2,26.16,-37.5,0.21068975,0.58897364,9.696517,0.008552114,-0.002443461,0.010995574,-0.060651928186416626,-0.02172497659921646,-0.2752276360988617,1004.1892,
2021.05.19 17:31:41,45.0,54.0,6.8999996,26.34,-37.44,0.20590134,0.61530983,9.631873,0.004886922,-0.0012217305,0.004886922,-0.06378145515918732,-0.021373825147747993,-0.2623985707759857,1004.1892,
2021.05.19 17:31:41,45.0,54.0,7.02,26.099998,-37.079998,0.18914193,0.60333884,9.722853,-0.01160644,0.005497787,-0.004276057,-0.061962518841028214,-0.019450882449746132,-0.26663169264793396,1004.1892,
2021.05.19 17:31:41,45.0,54.0,7.08,25.5,-36.84,0.1412579,0.5386954,9.682152,0.0067195175,-0.010995574,-0.0061086523,-0.055574774742126465,-0.01458847988396883,-0.2701871991157532,1004.1863,
2021.05.19 17:31:41,45.0,54.0,6.72,25.439999,-36.78,0.16519992,0.581791,9.703699,-0.0036651916,0.005497787,0.0012217305,-0.0598752498626709,-0.017022782936692238,-0.26020488142967224,1004.1863,
2021.05.19 17:31:41,45.0,54.0,6.96,25.199999,-36.36,0.22984336,0.6368576,9.698911,-0.0012217305,0.0,0.005497787,-0.0655503198504448,-0.023693419992923737,-0.2768782675266266,1004.1863,
2021.05.19 17:31:41,45.0,54.0,7.14,25.32,-36.84,0.15083471,0.641646,9.624691,0.0012217305,0.0036651916,-0.005497787,-0.06656000763177872,-0.015670359134674072,-0.2716222107410431,1004.1863,
2021.05.19 17:31:41,45.0,54.0,7.2,25.619999,-37.26,0.1364695,0.59855044,9.691729,-0.0036651916,0.0,-0.01282817,-0.06167445704340935,-0.01408009696751833,-0.2704346477985382,1004.1853,
2021.05.19 17:31:42,45.0,54.0,7.2,25.859999,-37.739998,0.09816227,0.5315128,9.830592,-0.005497787,-0.0067195175,-0.013439035,-0.054011937230825424,-0.009985054843127728,-0.265565425157547,1004.1853,
2021.05.19 17:31:42,45.0,54.0,6.8999996,26.039999,-37.86,0.21547815,0.6368576,9.581595,0.009162978,0.007941248,0.007941248,-0.06635241210460663,-0.02248496375977993,-0.2656518816947937,1004.1853,
2021.05.19 17:31:42,45.0,54.0,6.54,26.099998,-38.1,0.1316811,0.5386954,9.940725,-0.009162978,-0.043982297,-0.009162978,-0.054133061319589615,-0.013245854526758194,-0.2454635500907898,1004.1853,
2021.05.19 17:31:42,45.0,54.0,6.42,26.279999,-37.86,0.33039984,0.6512229,9.653421,0.0067195175,0.02687807,0.01282817,-0.06731896847486496,-0.03421283885836601,-0.2620422840118408,1004.197,
2021.05.19 17:31:42,45.0,54.0,6.72,25.8,-37.68,0.24420857,0.60573304,9.619903,0.017715093,-0.015271631,0.0030543262,-0.06286343187093735,-0.025380311533808708,-0.26655489206314087,1004.197,
2021.05.19 17:31:42,45.0,54.0,6.54,25.619999,-37.68,0.24899697,0.60333884,9.809045,-0.009773844,0.0036651916,-0.016493361,-0.0614112950861454,-0.02537897601723671,-0.26265087723731995,1004.197,
2021.05.19 17:31:42,45.0,54.0,7.08,25.74,-37.02,0.08619126,0.5530606,9.715671,0.0018325958,-0.0061086523,-0.028710667,-0.056860994547605515,-0.00887113157659769,-0.26044002175331116,1004.197,
2021.05.19 17:31:42,45.0,54.0,7.02,25.74,-37.02,0.20829555,0.6536171,9.552865,0.022602014,0.002443461,-0.0018325958,-0.06829839199781418,-0.0218010563403368,-0.27072596549987793,1004.2009,
2021.05.19 17:31:42,45.0,54.0,6.8999996,25.92,-37.02,0.09816227,0.5243302,9.859323,-0.01038471,-0.013439035,-0.017104227,-0.053128477185964584,-0.00995596032589674,-0.2553222179412842,1004.2009,
2021.05.19 17:31:42,45.0,54.0,7.2599998,26.4,-37.02,0.17238252,0.62249243,9.660604,0.009162978,-0.0036651916,-0.0036651916,-0.06433701515197754,-0.017841972410678864,-0.2690848410129547,1004.2009,
2021.05.19 17:31:42,45.0,54.0,6.8999996,26.16,-37.38,0.24660277,0.6655881,9.648633,0.0067195175,0.009162978,0.007941248,-0.06885109841823578,-0.025552747771143913,-0.2674647569656372,1004.2009,
2021.05.19 17:31:42,45.0,54.0,6.96,25.859999,-37.14,0.20111294,0.60573304,9.67018,0.007941248,-0.018936822,-0.002443461,-0.06254404783248901,-0.020794229581952095,-0.26827993988990784,1004.199,
2021.05.19 17:31:42,45.0,54.0,6.7799997,26.099998,-37.079998,0.19632454,0.6464345,9.746795,-0.012217305,0.007941248,-0.007941248,-0.06621239334344864,-0.020139748230576515,-0.25827139616012573,1004.199,
2021.05.19 17:31:42,45.0,54.0,6.72,25.68,-36.96,0.17717093,0.6392518,9.624691,0.01160644,-0.005497787,0.0,-0.06630930304527283,-0.01840588077902794,-0.2577853500843048,1004.199,
2021.05.19 17:31:42,45.0,54.0,6.6,25.8,-36.96,0.17717093,0.5746084,9.7563715,-0.007941248,-0.010995574,-0.0067195175,-0.05881807580590248,-0.018157515674829483,-0.2547239363193512,1004.199,
2021.05.19 17:31:42,45.0,54.0,6.18,25.859999,-37.079998,0.22026655,0.59615624,9.672575,-0.004886922,-0.002443461,0.0030543262,-0.06153988093137741,-0.02276834100484848,-0.24504603445529938,1004.1931,
2021.05.19 17:31:42,45.0,54.0,6.48,25.619999,-37.44,0.23942018,0.62728083,9.629479,-0.009773844,-6.1086525E-4,0.005497787,-0.06502976268529892,-0.024858130142092705,-0.2587742805480957,1004.1931,
2021.05.19 17:31:42,45.0,54.0,6.2999997,25.98,-37.739998,0.25378537,0.6560113,9.730036,-0.02321288,0.0012217305,-0.002443461,-0.06729655712842941,-0.02607676386833191,-0.2505984306335449,1004.1931,
2021.05.19 17:31:42,45.0,54.0,6.12,26.039999,-37.739998,0.11492168,0.5650316,9.758766,-0.01282817,-0.0067195175,-0.023823744,-0.057831332087516785,-0.011775706894695759,-0.22890090942382812,1004.1931,
2021.05.19 17:31:42,45.0,54.0,6.18,26.519999,-38.16,0.22026655,0.62728083,9.605537,-0.004886922,0.005497787,-0.0061086523,-0.06519439816474915,-0.022927187383174896,-0.23905889689922333,1004.1909,
2021.05.19 17:31:42,45.0,54.0,6.0,26.88,-37.68,0.16519992,0.6392518,9.878476,-0.02321288,0.0036651916,-0.01160644,-0.06461247056722641,-0.016721660271286964,-0.22287438809871674,1004.1909,
2021.05.19 17:31:42,45.0,54.0,6.42,27.18,-37.739998,0.2705448,0.58657944,9.67018,0.009162978,-0.02687807,-0.0018325958,-0.06056071072816849,-0.027969928458333015,-0.24888935685157776,1004.1909,
2021.05.19 17:31:42,45.0,54.0,7.2,27.0,-37.26,0.29927522,0.6344634,9.603143,-0.0061086523,0.004276057,-0.004886922,-0.06594051420688629,-0.031154215335845947,-0.2771252691745758,1004.1909,
2021.05.19 17:31:42,45.0,54.0,7.3799996,26.58,-37.079998,0.24181437,0.5793968,9.78989,-0.01038471,-0.014049901,-0.02321288,-0.059096239507198334,-0.024695396423339844,-0.2811914086341858,1004.19336,
2021.05.19 17:31:42,45.0,54.0,7.3799996,26.099998,-36.66,0.1340753,0.58657944,9.713276,-0.004276057,0.023823744,-0.031154128,-0.060310471802949905,-0.013802426867187023,-0.27214354276657104,1004.19336,
2021.05.19 17:31:43,45.0,54.0,7.3799996,25.56,-36.48,0.15562311,0.5722142,9.753978,0.0,0.019547688,-0.032986723,-0.058590102940797806,-0.015953481197357178,-0.28038570284843445,1004.19336,
2021.05.19 17:31:43,45.0,54.0,6.66,25.56,-36.78,0.39025488,0.59136784,9.7803135,0.0012217305,0.021380283,-0.021991149,-0.06034369021654129,-0.03988092765212059,-0.2850555181503296,1004.19336,
2021.05.19 17:31:43,45.0,54.0,6.66,25.619999,-36.66,0.2825158,0.7015011,9.622296,0.03359759,0.014049901,-0.030543262,-0.0727437287569046,-0.029352104291319847,-0.26762962341308594,1004.1892,
2021.05.19 17:31:43,45.0,54.0,6.54,25.5,-37.5,0.07182605,0.48362875,9.526528,0.019547688,-0.0036651916,-0.05375614,-0.05072154104709625,-0.00753943994641304,-0.2443273961544037,1004.1892,
2021.05.19 17:31:43,45.0,54.0,6.2999997,25.619999,-37.559998,0.12928689,0.51235914,9.7084875,-0.008552114,-0.026267206,-0.018936822,-0.052720773965120316,-0.013316105119884014,-0.24189618229866028,1004.1892,
2021.05.19 17:31:43,45.0,54.0,6.7799997,25.92,-37.98,-0.009576807,0.5386954,9.753978,-0.018325957,0.014660766,-0.026267206,-0.05517220124602318,9.818356484174728E-4,-0.23651255667209625,1004.1892,
2021.05.19 17:31:43,45.0,54.0,7.02,25.8,-37.98,0.1388637,0.61770403,9.694122,-0.002443461,-0.010995574,0.012217305,-0.06362690031528473,-0.01432354561984539,-0.26242467761039734,1004.19116,
2021.05.19 17:31:43,45.0,54.0,7.3799996,26.34,-37.739998,0.16519992,0.6464345,9.753978,-0.009162978,0.017715093,0.0018325958,-0.06616769731044769,-0.01693505235016346,-0.27180585265159607,1004.19116,
2021.05.19 17:31:43,45.0,54.0,6.8399997,26.22,-37.98,0.24420857,0.60094464,9.746795,-0.002443461,0.0061086523,0.012217305,-0.06155839189887047,-0.025050029158592224,-0.2668279707431793,1004.19116,
2021.05.19 17:31:43,45.0,54.0,6.7799997,25.92,-38.04,0.16280572,0.51954174,9.746795,0.002443461,-0.0061086523,6.1086525E-4,-0.053246043622493744,-0.016701960936188698,-0.2597312927246094,1004.19116,
2021.05.19 17:31:43,45.0,54.0,6.66,26.22,-37.62,0.31124622,0.62488663,9.531317,0.0061086523,0.015271631,0.018936822,-0.06543294340372086,-0.03264350816607475,-0.2689194977283478,1004.18506,
2021.05.19 17:31:43,45.0,54.0,6.3599997,26.46,-37.559998,0.21787235,0.5793968,9.572019,-0.007330383,0.01282817,-0.0036651916,-0.060440871864557266,-0.022757450118660927,-0.2464640885591507,1004.18506,
2021.05.19 17:31:43,45.0,54.0,7.02,26.34,-37.14,0.06464344,0.46208093,9.660604,-0.030543262,0.0,-0.021991149,-0.047793980687856674,-0.006691349670290947,-0.2532680034637451,1004.18506,
2021.05.19 17:31:43,45.0,54.0,7.02,26.519999,-37.02,0.20111294,0.5554548,9.758766,-0.04153884,0.02565634,-0.009162978,-0.056845154613256454,-0.020605523139238358,-0.26589271426200867,1004.18506,
2021.05.19 17:31:43,45.0,54.0,6.7799997,26.34,-37.559998,0.14844051,0.5626374,9.921572,-0.03359759,-0.0012217305,0.009773844,-0.05664150044322014,-0.01496027410030365,-0.25279924273490906,1004.1885,
2021.05.19 17:31:43,45.0,54.0,6.8399997,26.58,-37.44,0.011971008,0.545878,9.758766,0.01038471,-0.002443461,0.0,-0.05587891861796379,-0.0012266921112313867,-0.23603858053684235,1004.1885,
2021.05.19 17:31:43,45.0,54.0,6.8999996,26.64,-37.26,0.15801731,0.62967503,9.603143,0.030543262,-0.009773844,0.032986723,-0.06546711176633835,-0.01645326428115368,-0.25335970520973206,1004.1885,
2021.05.19 17:31:43,45.0,54.0,6.7799997,26.22,-37.14,0.062249243,0.5650316,9.770737,0.01160644,0.0012217305,0.01282817,-0.057763464748859406,-0.006370901595801115,-0.24288392066955566,1004.1885,
2021.05.19 17:31:43,45.0,54.0,7.02,25.92,-36.239998,0.11492168,0.58897364,9.682152,0.018325957,0.014049901,0.026267206,-0.06075172498822212,-0.01186887826770544,-0.25943854451179504,1004.1909,
2021.05.19 17:31:43,45.0,54.0,7.14,25.08,-36.059998,0.19632454,0.56982,9.540894,0.047647487,0.02321288,0.031154128,-0.059640515595674515,-0.020574262365698814,-0.28223809599876404,1004.1909,
2021.05.19 17:31:43,45.0,54.0,7.08,24.84,-36.78,0.36870706,0.46208093,10.989386,-0.11728613,-0.17837265,0.05009095,-0.04199957475066185,-0.03353861719369888,-0.3054576516151428,1004.1909,
2021.05.19 17:31:43,45.0,54.0,7.08,25.08,-36.66,0.20350714,0.35194764,10.218452,0.04337143,0.14905111,0.0012217305,-0.03442193567752838,-0.019913019612431526,-0.2883884608745575,1004.1909,
