Time,X-cord,Y-cord,Mag_x,Mag_y,Mag_z,Acc_x,Acc_y,Acc_z,Gyro_x,Gyro_y,Gyro_z,Orn_x,Orn_y,Orn_z,Pressure,
2021.02.11 12:40:18,50.0,18.0,-3.702629,25.485893,-16.153997,-0.34022346,0.4201131,10.442336,0.015587701,0.091958694,-0.026249126,-0.040188729763031006,0.03256964311003685,0.16049344837665558,1017.6286,
2021.02.11 12:40:18,50.0,18.0,-2.646431,24.7225,-16.466799,-0.23457877,0.26669326,9.368806,0.17536896,-0.011762751,0.003742348,-0.028449492529034615,0.025033049285411835,0.12085022032260895,1017.62885,
2021.02.11 12:40:18,50.0,18.0,-3.9567795,22.726555,-15.94013,-0.32155547,0.25794494,9.751518,0.0030975305,0.039028585,0.016030971,-0.026431243866682053,0.032962970435619354,0.1912674903869629,1017.62885,
2021.02.11 12:40:18,50.0,18.0,-4.405861,23.15689,-15.776682,-0.30137214,0.38012752,9.78356,0.012836943,0.005496496,0.014251049,-0.03881577402353287,0.03079419583082199,0.20307017862796783,1017.6291,
2021.02.11 12:40:18,50.0,18.0,-4.7540207,22.31998,-15.572405,-0.37203932,0.38744292,9.766445,0.013078163,-0.002371565,0.04201986,-0.03962132707238197,0.03807521611452103,0.2291199415922165,1017.6293,
2021.02.11 12:40:18,50.0,18.0,-3.6609573,22.998749,-16.55258,-0.33122626,0.46079293,9.777291,0.016764723,-0.026802357,0.06652326,-0.04706708341836929,0.03386414796113968,0.17585048079490662,1017.6293,
2021.02.11 12:40:18,50.0,18.0,-3.7483292,23.551796,-17.34358,-0.22298448,0.3630763,9.750052,0.019956108,-0.020702137,0.07831172,-0.03721147030591965,0.02286609262228012,0.1697462648153305,1017.6294,
2021.02.11 12:40:18,50.0,18.0,-4.621437,23.06945,-17.027426,-0.18818311,0.28946558,9.635373,0.008902026,-0.009923557,0.038226318,-0.03002721257507801,0.019527962431311607,0.20714989304542542,1017.6294,
2021.02.11 12:40:18,50.0,18.0,-4.357971,24.163044,-15.362474,-0.3434445,0.38287297,9.815498,-0.025665341,0.011420673,0.0068713203,-0.03896339237689972,0.03497575223445892,0.19526241719722748,1017.62946,
2021.02.11 12:40:18,50.0,18.0,-4.3460846,23.20077,-15.398626,-0.30561396,0.32582745,9.7207155,-0.0057502575,-2.5604456E-4,0.01026186,-0.03348979353904724,0.031429097056388855,0.20096823573112488,1017.6297,
2021.02.11 12:40:19,50.0,18.0,-3.903061,23.8279,-16.01555,-0.25838152,0.36031076,9.723577,-0.023188023,-0.021295711,0.006755732,-0.03702537342905998,0.026566430926322937,0.1755131483078003,1017.62976,
2021.02.11 12:40:19,50.0,18.0,-4.6505814,23.742687,-16.512587,-0.28443953,0.32477146,9.884257,-0.015814459,0.009822164,-0.01191953,-0.03283204510807991,0.02876908704638481,0.2080775499343872,1017.62976,
2021.02.11 12:40:19,50.0,18.0,-3.49794,22.595726,-15.572756,-0.28862807,0.30543572,9.615993,0.015578552,-0.008493595,-0.018625848,-0.031738344579935074,0.03000641241669655,0.1701095998287201,1017.62976,
2021.02.11 12:40:19,50.0,18.0,-3.6780853,23.60043,-16.331945,-0.23950823,0.30003563,9.860261,-0.026431046,0.011525009,-0.017021986,-0.030410418286919594,0.02428547665476799,0.16756032407283783,1017.62976,
2021.02.11 12:40:19,50.0,18.0,-3.5859833,22.372772,-16.19839,-0.34947523,0.36671475,9.655632,0.014979601,0.012180984,-0.042773176,-0.03793630003929138,0.03617813438177109,0.17959856986999512,1017.62976,
2021.02.11 12:40:19,50.0,18.0,-4.1449356,22.007473,-16.259676,-0.29012206,0.2912613,9.821311,-0.012953028,0.0022531655,-0.011798271,-0.029634440317749977,0.029531465843319893,0.20286895334720612,1017.63,
2021.02.11 12:40:19,50.0,18.0,-3.6850052,22.248203,-17.224283,-0.26297626,0.28990114,9.743554,0.01249402,-0.0030020294,-0.026287086,-0.029733523726463318,0.026983216404914856,0.1803855150938034,1017.63025,
2021.02.11 12:40:19,50.0,18.0,-4.1595535,23.109137,-16.14567,-0.3936341,0.33730078,9.754067,0.001370487,-0.0043560984,-0.029672615,-0.03453866019845009,0.040334008634090424,0.2005605250597,1017.6303,
2021.02.11 12:40:19,50.0,18.0,-4.017784,23.941696,-16.500402,-0.33260012,0.26673222,9.758442,0.0070554847,-0.0036110901,-2.453383E-5,-0.027310829609632492,0.03407013416290283,0.18560101091861725,1017.6305,
2021.02.11 12:40:19,50.0,18.0,-4.54834,23.327972,-16.2461,-0.2631535,0.32385355,9.757441,-7.8671565E-4,-0.004879158,0.0016364863,-0.03316618874669075,0.02696298435330391,0.20603865385055542,1017.6305,
2021.02.11 12:40:19,50.0,18.0,-4.992714,22.757858,-16.676813,-0.2634938,0.26981458,9.791258,0.0152015835,-0.0036492907,1.21925026E-4,-0.027539744973182678,0.02690463699400425,0.23025892674922943,1017.6305,
2021.02.11 12:40:19,50.0,18.0,-4.1172943,23.9726,-16.622572,-0.24993844,0.29706135,9.649355,0.01597352,-9.4548496E-4,-0.003889388,-0.030765583738684654,0.02589629776775837,0.18370379507541656,1017.6305,
2021.02.11 12:40:19,50.0,18.0,-4.516777,23.241585,-17.265116,-0.21064067,0.3038787,9.861352,-0.01568759,0.005932343,-0.003695434,-0.030798345804214478,0.0213569737970829,0.2027571052312851,1017.63055,
2021.02.11 12:40:19,50.0,18.0,-3.6209106,22.106823,-17.684519,-0.23881412,0.34072062,9.715222,0.011072194,-0.006792679,-0.014325119,-0.03504585847258568,0.02457648515701294,0.17667101323604584,1017.63086,
2021.02.11 12:40:19,50.0,18.0,-4.086998,24.090405,-16.185278,-0.17910421,0.27291864,9.809795,0.006249388,0.0036663576,-0.013342265,-0.027809223160147667,0.01825566217303276,0.17677199840545654,1017.63104,
2021.02.11 12:40:20,50.0,18.0,-4.7174683,23.222694,-16.49838,-0.2595218,0.32180372,9.684363,0.016791768,0.0010489414,-0.031586155,-0.033205073326826096,0.026791613548994064,0.21381926536560059,1017.63104,
2021.02.11 12:40:20,50.0,18.0,-4.763748,23.550816,-16.19024,-0.27112937,0.33168742,9.761668,-0.0029805256,2.410356E-4,-0.023001961,-0.03395240753889084,0.027767762541770935,0.21311578154563904,1017.63104,
2021.02.11 12:40:20,50.0,18.0,-5.7228546,22.92603,-16.10356,-0.24639481,0.31373963,9.847926,0.001112792,0.0011844158,-0.013779393,-0.031837716698646545,0.02501475065946579,0.25572919845581055,1017.63135,
2021.02.11 12:40:20,50.0,18.0,-4.8608704,22.804193,-16.01859,-0.27577016,0.31156346,9.614274,0.025228823,-0.006470799,-0.02103135,-0.03238169848918915,0.028675545006990433,0.22434554994106293,1017.63153,
2021.02.11 12:40:20,50.0,18.0,-3.395424,22.39241,-16.32028,-0.31923684,0.3752911,9.874764,-0.020322029,-0.0031206962,-0.0037906594,-0.03796696662902832,0.03231729567050934,0.16891728341579437,1017.63153,
2021.02.11 12:40:20,50.0,18.0,-5.2350464,23.06089,-16.074183,-0.24724722,0.30075637,9.733465,0.013508218,-0.007968843,0.012130424,-0.030879424884915352,0.025396306067705154,0.23520274460315704,1017.6316,
2021.02.11 12:40:20,50.0,18.0,-3.789505,24.384346,-17.04136,-0.221994,0.25808612,9.672665,0.009533854,-0.0035481756,0.0021634917,-0.02666865661740303,0.02294662781059742,0.16677743196487427,1017.63165,
2021.02.11 12:40:20,50.0,18.0,-3.275116,23.450237,-16.907263,-0.30508912,0.32045367,9.815907,-0.015194934,0.0046897614,-0.003417533,-0.032619036734104156,0.031071091070771217,0.15707291662693024,1017.63165,
2021.02.11 12:40:20,50.0,18.0,-4.687317,23.30441,-16.740923,-0.21805872,0.32887474,9.739901,-0.0046144314,-0.0053925617,0.01227386,-0.0337444469332695,0.02238444797694683,0.20907410979270935,1017.63165,
2021.02.11 12:40:20,50.0,18.0,-4.638031,22.986816,-16.669943,-0.14112581,0.2699553,9.745834,-0.005263814,-0.013449749,-5.264231E-5,-0.027689578011631966,0.014479617588222027,0.20523478090763092,1017.63165,
2021.02.11 12:40:20,50.0,18.0,-4.407959,22.977535,-16.040411,-0.2477719,0.367599,9.7757845,-0.006117951,-0.018481094,-0.022190161,-0.037573255598545074,0.02534005045890808,0.20151710510253906,1017.63165,
2021.02.11 12:40:20,50.0,18.0,-4.272438,25.045004,-16.03568,-0.16074501,0.3278625,9.774157,0.0049909703,-0.025025725,-0.011423819,-0.0335267148911953,0.016444437205791473,0.17557846009731293,1017.63165,
2021.02.11 12:40:20,50.0,18.0,-4.199791,22.784672,-15.844793,-0.1715308,0.29243526,9.722783,-2.1342933E-4,-0.008029269,-0.023897924,-0.030063578858971596,0.01764031872153282,0.1903114914894104,1017.63165,
2021.02.11 12:40:20,50.0,18.0,-5.793625,23.608181,-16.307451,-0.20738952,0.30912203,9.768298,-0.008822455,-0.0037201457,-0.028395556,-0.031627751886844635,0.02122768759727478,0.24932490289211273,1017.63165,
2021.02.11 12:40:20,50.0,18.0,-4.5069733,23.216663,-16.186445,-0.21467622,0.3320259,9.787484,-0.010351341,-0.0073768734,-0.02172358,-0.0339023619890213,0.021930232644081116,0.20189115405082703,1017.63165,
2021.02.11 12:40:21,50.0,18.0,-4.3975983,23.744028,-15.983831,-0.18651403,0.28582227,9.728504,0.0077289892,-0.01038737,-0.02190743,-0.029366035014390945,0.019169563427567482,0.1919490396976471,1017.63165,
2021.02.11 12:40:21,50.0,18.0,-5.1713104,23.090008,-16.048738,-0.21589409,0.31385797,9.8209,0.0031417012,-4.2987685E-4,-0.016425038,-0.031939584761857986,0.02197958715260029,0.23000171780586243,1017.63165,
2021.02.11 12:40:21,50.0,18.0,-4.2328568,22.735342,-16.159418,-0.2501646,0.25868556,9.695542,0.015253564,-0.0029702103,-0.012528004,-0.02666567824780941,0.025796299800276756,0.19811153411865234,1017.63153,
2021.02.11 12:40:21,50.0,18.0,-4.846161,22.528923,-16.39319,-0.24148433,0.31823826,9.729249,-0.0024370998,-0.0024679778,0.0069665723,-0.0326877161860466,0.024815352633595467,0.2240179032087326,1017.63153,
2021.02.11 12:40:21,50.0,18.0,-4.2485123,23.72829,-16.096834,-0.20194744,0.27369562,9.808816,0.004437313,0.0016068022,0.018125493,-0.027889877557754517,0.020585451275110245,0.18726350367069244,1017.63153,
2021.02.11 12:40:21,50.0,18.0,-5.308052,23.67953,-16.90975,-0.25598797,0.34317648,9.702031,0.019441336,-0.005938948,0.019120857,-0.03534458205103874,0.026378868147730827,0.23283423483371735,1017.63153,
2021.02.11 12:40:21,50.0,18.0,-5.0687256,24.319809,-16.409796,-0.14616695,0.3323315,9.78395,0.0120065715,-0.011408698,0.04471491,-0.03395017236471176,0.014938350766897202,0.2105589509010315,1017.63153,
2021.02.11 12:40:21,50.0,18.0,-5.214325,24.992153,-15.050989,-0.10292979,0.28318173,9.797332,0.013101319,-4.7513167E-4,0.024859563,-0.028894325718283653,0.010505514219403267,0.20831137895584106,1017.63153,
2021.02.11 12:40:21,50.0,18.0,-5.1277924,23.847252,-16.233759,-0.20254457,0.4049394,9.766234,0.035098057,-0.0063776276,0.00937829,-0.04143057391047478,0.020736297592520714,0.21944862604141235,1017.63153,
2021.02.11 12:40:21,50.0,18.0,-4.9936676,24.083794,-17.133234,-0.13590337,0.3013333,9.706237,0.025911946,-0.0010584651,0.022226822,-0.031032318249344826,0.01400073990225792,0.2095881551504135,1017.63153,
2021.02.11 12:40:21,50.0,18.0,-4.795677,23.659851,-16.257227,-0.12270942,0.35717952,9.775567,0.01036685,2.425072E-4,0.0096168,-0.03651886433362961,0.012552006170153618,0.203429713845253,1017.63153,
2021.02.11 12:40:21,50.0,18.0,-4.8262787,24.320444,-15.9831295,-0.15316136,0.38173017,9.744732,0.021281196,0.008511864,-0.0044205543,-0.039148129522800446,0.015716055408120155,0.2009422928094864,1017.63135,
2021.02.11 12:40:21,50.0,18.0,-3.858467,23.041859,-15.893812,-0.1354354,0.3356935,9.740497,-0.0037087621,0.0036690389,-0.0023731284,-0.03444673493504524,0.013903466984629631,0.1713382452726364,1017.63135,
2021.02.11 12:40:21,50.0,18.0,-4.8109436,21.91252,-17.37343,-0.15296668,0.40061757,9.715123,0.0028097306,-0.008114874,0.0052382564,-0.04120803624391556,0.015743911266326904,0.22120560705661774,1017.631,
2021.02.11 12:40:22,50.0,18.0,-4.1147156,23.22448,-16.43228,-0.1303712,0.34406045,9.789874,-0.009306681,0.0025238176,0.005337483,-0.0351269505918026,0.013316156342625618,0.18020200729370117,1017.6297,
2021.02.11 12:40:22,50.0,18.0,-5.704582,22.002714,-16.756361,-0.19281669,0.3989617,9.740573,-0.006444022,0.0046710083,-0.0042437688,-0.040927860885858536,0.019792625680565834,0.26023396849632263,1017.6297,
2021.02.11 12:40:22,50.0,18.0,-5.813118,23.975365,-16.414968,-0.12974736,0.3308803,9.767249,-0.009900288,-0.003583808,0.008328021,-0.033860575407743454,0.013283140026032925,0.2412116378545761,1017.6296,
2021.02.11 12:40:22,50.0,18.0,-5.184906,23.614092,-15.814611,-0.17589481,0.39856628,9.771931,-0.0018085702,0.0022413407,-0.0035865838,-0.04075765982270241,0.017998062074184418,0.22193555533885956,1017.6296,
2021.02.11 12:40:22,50.0,18.0,-5.218521,24.638927,-16.701056,-0.12523712,0.3154405,9.780772,6.379965E-4,0.00910161,0.0033281958,-0.03223726898431778,0.012803721241652966,0.21261337399482727,1017.6296,
2021.02.11 12:40:22,50.0,18.0,-4.421646,22.747406,-15.144922,-0.1664998,0.3571423,9.717339,-0.0019068685,0.005488692,-0.00834993,-0.03673117607831955,0.017132623121142387,0.19836097955703735,1017.6294,
2021.02.11 12:40:22,50.0,18.0,-5.7780304,22.210567,-16.027632,-0.18195964,0.3672403,9.752435,-8.688285E-4,0.003724409,-0.002840122,-0.03763194382190704,0.018655704334378242,0.26050806045532227,1017.62933,
2021.02.11 12:40:22,50.0,18.0,-5.167404,23.750309,-15.916601,-0.13751103,0.32087603,9.738876,-0.00514879,0.0027972753,0.0016559872,-0.03293275833129883,0.014118866063654423,0.21869662404060364,1017.6288,
2021.02.11 12:40:22,50.0,18.0,-4.4650803,23.32275,-15.78652,-0.21015674,0.36044765,9.82628,-0.0064266883,0.010513619,-0.007380224,-0.036657191812992096,0.02138395421206951,0.19841034710407257,1017.6282,
2021.02.11 12:40:22,50.0,18.0,-4.399887,23.973467,-15.685743,-0.16983294,0.31420526,9.676434,0.009237474,3.77959E-4,0.004618837,-0.032454781234264374,0.017549389973282814,0.18877528607845306,1017.628,
2021.02.11 12:40:22,50.0,18.0,-5.832306,23.855637,-15.833155,-0.20289509,0.32805866,9.810171,-0.008311768,0.009746268,-0.0022583164,-0.03342106565833092,0.02067916840314865,0.2475510984659195,1017.6277,
2021.02.11 12:40:22,50.0,18.0,-4.615883,23.839235,-15.227358,-0.19687855,0.36436424,9.724886,-0.008364988,0.0050794054,0.011226915,-0.03744201734662056,0.020242054015398026,0.19918343424797058,1017.6275,
2021.02.11 12:40:22,50.0,18.0,-5.3407288,22.482822,-15.712042,-0.11882007,0.2788377,9.793026,-0.008536884,0.010587484,0.008416958,-0.028463304042816162,0.012132535688579082,0.2367987483739853,1017.6275,
2021.02.11 12:40:22,50.0,18.0,-5.3192673,24.781576,-17.411894,-0.20781063,0.33490762,9.714634,0.006846119,0.0033581615,-0.005342461,-0.034453026950359344,0.02138824202120304,0.22070828080177307,1017.6275,
2021.02.11 12:40:22,50.0,18.0,-4.2173004,24.028587,-16.083643,-0.19683011,0.3530532,9.773723,0.0018751032,0.0018685496,0.0025709793,-0.03609968349337578,0.02013598382472992,0.18258138000965118,1017.6275,
2021.02.11 12:40:23,50.0,18.0,-5.061798,23.951153,-16.20487,-0.14346649,0.27772763,9.7363,-0.008526812,0.0031893258,-0.008908611,-0.028514135628938675,0.014734148979187012,0.21388016641139984,1017.6275,
2021.02.11 12:40:23,50.0,18.0,-4.662697,23.8112,-16.444117,-0.17376943,0.29672083,9.791146,0.0012229178,3.6315445E-4,6.582609E-4,-0.03029097244143486,0.017745744436979294,0.20113731920719147,1017.6275,
2021.02.11 12:40:23,50.0,18.0,-5.5745544,22.63982,-15.967848,-0.22613083,0.34003043,9.704091,0.010352995,-0.004504934,-0.0042700367,-0.03501608222723007,0.023298412561416626,0.251058429479599,1017.6275,
2021.02.11 12:40:23,50.0,18.0,-4.1558914,23.786818,-15.2902775,-0.19418944,0.3250753,9.791665,-0.0047044847,8.5044856E-4,0.002802989,-0.03318047523498535,0.019829515367746353,0.1816091239452362,1017.6275,
2021.02.11 12:40:23,50.0,18.0,-5.147133,22.945972,-16.310114,-0.17991476,0.30550656,9.810819,0.004985214,-0.0016051668,0.0030700103,-0.031124474480748177,0.018336350098252296,0.22826574742794037,1017.6275,
2021.02.11 12:40:23,50.0,18.0,-5.47995,23.360836,-16.548685,-0.21192573,0.3308842,9.672256,0.021464055,-0.006950958,-0.0036348011,-0.034188080579042435,0.021907176822423935,0.23961743712425232,1017.6275,
2021.02.11 12:40:23,50.0,18.0,-3.4607697,24.622257,-17.227728,-0.18028499,0.2680986,9.805789,-4.836917E-4,-0.00522861,0.00234594,-0.027329422533512115,0.01838349550962448,0.14945806562900543,1017.6275,
2021.02.11 12:40:23,50.0,18.0,-3.9187393,23.231903,-16.339636,-0.21758544,0.34752908,9.750629,0.008847331,-0.0073214383,0.0066141505,-0.03561776503920555,0.022311311215162277,0.17805445194244385,1017.6275,
2021.02.11 12:40:23,50.0,18.0,-4.2634583,23.349453,-15.9617405,-0.11821421,0.26736698,9.724022,-0.010012546,-0.0031530499,-0.012289824,-0.02748655527830124,0.012156326323747635,0.18530027568340302,1017.6275,
2021.02.11 12:40:23,50.0,18.0,-4.873886,22.88261,-15.3280735,-0.18005781,0.32425848,9.755643,-0.01328709,-0.004063038,-0.0018232488,-0.03322015702724457,0.018454691395163536,0.2170884907245636,1017.6282,
2021.02.11 12:40:23,50.0,18.0,-4.858284,24.873323,-16.273924,-0.14173935,0.29526305,9.767085,-0.010628278,-0.0037663318,-0.003094383,-0.030218034982681274,0.014510922133922577,0.19829119741916656,1017.6282,
2021.02.11 12:40:23,50.0,18.0,-6.383438,22.883,-17.019869,-0.15973856,0.30837393,9.791684,-0.016278228,7.104706E-4,-0.008932654,-0.03147885575890541,0.01631224900484085,0.27724674344062805,1017.6282,
2021.02.11 12:40:23,50.0,18.0,-5.2157516,23.014841,-16.031897,-0.18249935,0.29329497,9.74837,-0.003293733,-0.0030749128,-0.011959619,-0.030072223395109177,0.01871882565319538,0.23066289722919464,1017.6282,
2021.02.11 12:40:24,50.0,18.0,-4.6700134,24.24113,-16.195047,-0.1932637,0.27313873,9.711612,-0.0037520193,-0.005351131,-0.006540463,-0.02811199054121971,0.019897643476724625,0.19951753318309784,1017.6282,
2021.02.11 12:40:24,50.0,18.0,-5.6467743,25.039782,-15.968763,-0.14657503,0.28498018,9.757123,-0.019899128,-0.0029440261,-2.4466775E-4,-0.02919580601155758,0.015021232888102531,0.22691278159618378,1017.6282,
2021.02.11 12:40:24,50.0,18.0,-5.4397583,23.171055,-15.8238125,-0.13098341,0.23919849,9.815215,-0.016349388,0.0021710617,-0.00291783,-0.024363182485103607,0.013344143517315388,0.23550231754779816,1017.62933,
2021.02.11 12:40:24,50.0,18.0,-5.0560913,24.485588,-15.914709,-0.2065172,0.29416063,9.72739,0.0023051102,-0.0019702523,-0.010599585,-0.030224427580833435,0.021227294579148293,0.21285133063793182,1017.62976,
2021.02.11 12:40:24,50.0,18.0,-4.3205795,23.836052,-15.604593,-0.14429879,0.23248781,9.751843,-0.015744012,-7.404664E-4,0.0046244483,-0.023833271116018295,0.014795998111367226,0.18588921427726746,1017.62976,
2021.02.11 12:40:24,50.0,18.0,-5.035782,22.735174,-16.287935,-0.117452,0.24842775,9.795943,0.0048539164,-0.0011193878,-0.010323954,-0.02535301260650158,0.011989287100732327,0.22231681644916534,1017.6317,
2021.02.11 12:40:24,50.0,18.0,-4.820801,23.034454,-16.80453,-0.19706477,0.25621262,9.736548,-0.0016704355,-9.0971193E-4,0.001262028,-0.026303067803382874,0.02023693174123764,0.21644417941570282,1017.6317,
2021.02.11 12:40:24,50.0,18.0,-5.5264893,23.342617,-15.519007,-0.13289915,0.27435842,9.7979965,0.021933261,-0.006222838,-0.0075672967,-0.02799159474670887,0.013563079759478569,0.23684541881084442,1017.6338,
2021.02.11 12:40:24,50.0,18.0,-5.3300705,23.168743,-16.866663,-0.25934783,0.30881706,9.749291,0.011969373,-0.0041901963,-2.9587187E-4,-0.03165406733751297,0.02659543603658676,0.2392144352197647,1017.63464,
2021.02.11 12:40:24,50.0,18.0,-5.27182,24.479424,-15.965769,-0.08476419,0.16863167,9.7954645,0.009923486,4.0895073E-4,0.028163116,-0.017212936654686928,0.008653196506202221,0.21519401669502258,1017.63586,
2021.02.11 12:40:24,50.0,18.0,-4.9593353,24.544323,-16.492666,-0.1544735,0.26379594,9.692594,0.013622813,-0.003814416,0.0023454754,-0.027206068858504295,0.015935923904180527,0.2060476541519165,1017.6364,
2021.02.11 12:40:24,50.0,18.0,-4.5179977,23.906063,-15.672354,-0.17840977,0.26333037,9.834853,-0.0026250123,0.0019511193,0.013708535,-0.02676442265510559,0.018138574436306953,0.19496560096740723,1017.6364,
2021.02.11 12:40:24,50.0,18.0,-5.599037,23.656633,-15.935751,-0.14872767,0.315766,9.739074,0.024758676,0.0025775335,0.018220928,-0.03240746259689331,0.015270046889781952,0.23726093769073486,1017.63654,
2021.02.11 12:40:24,50.0,18.0,-5.0651855,23.231554,-16.002764,0.0036034316,0.17937641,9.858104,0.009429354,0.009002744,0.020521253,-0.018193824216723442,-3.65529878763482E-4,0.21188902854919434,1017.6367,
2021.02.11 12:40:25,50.0,18.0,-5.3183975,23.798855,-16.132917,-0.22213411,0.3254745,9.651378,0.046237875,-0.0028053,-0.02132992,-0.033701419830322266,0.02301173098385334,0.22971710562705994,1017.63715,
2021.02.11 12:40:25,50.0,18.0,-5.400116,23.320335,-15.57575,-0.13550784,0.29469588,9.787712,0.006648853,0.0040419744,0.013442048,-0.030096784234046936,0.013843805529177189,0.23192033171653748,1017.63776,
2021.02.11 12:40:25,50.0,18.0,-5.520775,23.252565,-15.569067,-0.09078023,0.25668746,9.764619,0.022434298,0.0054936064,-0.0011029517,-0.026280317455530167,0.009296584874391556,0.23509420454502106,1017.63794,
2021.02.11 12:40:25,50.0,18.0,-5.8282166,22.669483,-16.124365,-0.21917488,0.3418809,9.741673,0.012931599,0.008471616,-0.011554826,-0.03507141396403313,0.02249489352107048,0.2605397403240204,1017.63794,
2021.02.11 12:40:25,50.0,18.0,-5.944229,24.79216,-16.709639,-0.13530262,0.3418679,9.7451315,0.010521835,0.00989694,0.010042706,-0.035063132643699646,0.01388323213905096,0.23887164890766144,1017.63794,
2021.02.11 12:40:25,50.0,18.0,-5.330208,23.301594,-16.686518,-0.13371609,0.306114,9.788522,0.010985756,0.020802142,-0.00199877,-0.031259648501873016,0.013659648597240448,0.22931577265262604,1017.63794,
2021.02.11 12:40:25,50.0,18.0,-5.5363617,23.850407,-16.638891,-0.031697385,0.23157513,9.716426,0.0053455587,0.021067206,-0.025371823,-0.02382872812449932,0.0032622357830405235,0.2266753613948822,1017.63794,
2021.02.11 12:40:25,50.0,18.0,-4.486191,24.555874,-15.581816,-0.27934322,0.40872303,9.7356825,-0.0070016207,0.021429297,-0.063050896,-0.04194008186459541,0.02868485078215599,0.19337771832942963,1017.63824,
2021.02.11 12:40:25,50.0,18.0,-5.6553116,22.752064,-16.093458,-0.3845946,0.40839466,9.694398,-0.0175197,0.021072023,-0.022199582,-0.04206892475485802,0.039651043713092804,0.2625620365142822,1017.6385,
2021.02.11 12:40:25,50.0,18.0,-4.2787247,22.89118,-16.532225,-0.20609646,0.3751645,9.96503,-0.019429335,-0.023528256,0.02945539,-0.03762229159474373,0.02067902311682701,0.1941595822572708,1017.6387,
2021.02.11 12:40:25,50.0,18.0,-4.431305,22.049906,-16.094904,-0.19910507,0.37421012,9.800109,0.062012568,-0.06266537,0.04235057,-0.038157869130373,0.020313823595643044,0.2070774883031845,1017.63873,
2021.02.11 12:40:25,50.0,18.0,-5.1207733,24.274738,-16.09949,-0.086269885,0.40487778,9.846332,0.09380831,-0.09166888,0.056526184,-0.04109492897987366,0.00876140221953392,0.20813493430614471,1017.63873,
2021.02.11 12:40:25,50.0,18.0,-5.828415,22.90099,-17.140806,-0.013464674,0.38486338,9.641261,0.12027708,-0.09793084,0.031273663,-0.039897143840789795,0.0013965668622404337,0.24341312050819397,1017.63873,
2021.02.11 12:40:25,50.0,18.0,-6.0868607,21.575665,-17.00181,0.09328867,0.6740996,9.483701,0.0073961327,-0.07385006,-0.04030501,-0.07095704972743988,-0.009836419485509396,0.25475069880485535,1017.639,
