Time,X-cord,Y-cord,Mag_x,Mag_y,Mag_z,Acc_x,Acc_y,Acc_z,Gyro_x,Gyro_y,Gyro_z,Orn_x,Orn_y,Orn_z,Pressure,
2021.02.11 12:37:30,48.0,17.0,9.92099,-32.40645,-21.665426,-0.15693054,0.5637865,10.013288,-0.047794912,-0.023050357,-0.015257821,-0.056237559765577316,0.01567094586789608,-2.8430304527282715,1017.3367,
2021.02.11 12:37:30,48.0,17.0,10.6441345,-30.919384,-22.394388,-0.25440773,0.61815715,9.604247,0.04232756,-0.05701374,-0.016231306,-0.06425176560878754,0.026482895016670227,-2.812288761138916,1017.3558,
2021.02.11 12:37:30,48.0,17.0,10.421913,-32.153748,-21.785013,-0.26350427,0.5776877,9.64659,-0.08564584,-0.08715138,0.05709843,-0.05979148671030998,0.027309002354741096,-2.8326497077941895,1017.3564,
2021.02.11 12:37:30,48.0,17.0,9.667831,-31.73671,-21.237299,-0.12744464,0.48500514,9.8477335,0.0046141967,-0.024265248,0.020459527,-0.049206558614969254,0.012940797954797745,-2.844222068786621,1017.3577,
2021.02.11 12:37:30,48.0,17.0,9.922157,-32.374943,-21.684835,-0.084620036,0.57263637,9.738729,-0.014610253,-0.039210696,0.0134152165,-0.05873006954789162,0.008688804693520069,-2.837740659713745,1017.35815,
2021.02.11 12:37:31,48.0,17.0,9.655281,-32.025517,-22.212805,-0.17656255,0.65569466,9.746467,-0.019941986,-0.022783421,0.014353918,-0.0671629086136818,0.01811356283724308,-2.8466432094573975,1017.3584,
2021.02.11 12:37:31,48.0,17.0,10.094261,-31.384594,-22.142378,-0.05146889,0.5059673,9.796986,-0.033068467,-0.018790927,0.054619282,-0.051598649471998215,0.005253495182842016,-2.8224740028381348,1017.3587,
2021.02.11 12:37:31,48.0,17.0,8.235733,-32.248993,-21.88827,-0.081523046,0.45709908,9.810566,-0.036422182,-0.0038468244,0.03566281,-0.04655725136399269,0.008309528231620789,-2.8889191150665283,1017.35925,
2021.02.11 12:37:31,48.0,17.0,9.557907,-31.760143,-22.963034,-0.027110389,0.3659604,9.863802,-0.0239444,-0.006032902,0.04634491,-0.03708420321345329,0.00274846563115716,-2.843348503112793,1017.36273,
2021.02.11 12:37:31,48.0,17.0,9.423782,-30.703629,-22.38883,-0.049367208,0.41609526,9.709219,0.030423962,-0.026525274,0.032150198,-0.04282892122864723,0.005084526725113392,-2.8379740715026855,1017.36273,
2021.02.11 12:37:31,48.0,17.0,8.923126,-31.968876,-21.884733,-0.12565751,0.41572407,9.659623,0.0050431043,-0.008300991,0.03432799,-0.043007124215364456,0.013007798232138157,-2.869795322418213,1017.3644,
2021.02.11 12:37:31,48.0,17.0,8.407959,-31.57457,-22.00643,-0.013427918,0.37310576,9.709533,-0.031265263,-0.002742019,0.05364399,-0.038407813757658005,0.0013829614035785198,-2.875243663787842,1017.3659,
2021.02.11 12:37:31,48.0,17.0,10.042381,-30.91026,-21.17803,0.10539038,0.25236496,9.735471,-0.042408917,0.011723001,0.02347029,-0.02591489441692829,-0.010824978351593018,-2.8153109550476074,1017.3661,
2021.02.11 12:37:31,48.0,17.0,8.576355,-32.920372,-21.792692,-0.05942348,0.32257262,9.754758,-0.045002326,0.005352928,-0.01871378,-0.03305557370185852,0.006091667804867029,-2.884998321533203,1017.36755,
2021.02.11 12:37:31,48.0,17.0,9.965897,-31.244812,-21.277994,-0.08561634,0.37277532,9.756024,-0.029109558,0.012883127,-0.024180736,-0.038189709186553955,0.008775515481829643,-2.8304355144500732,1017.3677,
2021.02.11 12:37:31,48.0,17.0,9.717804,-30.677887,-21.781038,-0.06465527,0.44944444,9.88007,0.018128177,-0.0035865009,-0.0016638932,-0.04545769840478897,0.006543915718793869,-2.82926344871521,1017.3682,
2021.02.11 12:37:31,48.0,17.0,9.076263,-31.210423,-22.199884,0.02633582,0.24982207,9.794195,0.02140259,-0.0152935125,-0.02714501,-0.025501534342765808,-0.0026889147702604532,-2.85176944732666,1017.36847,
2021.02.11 12:37:31,48.0,17.0,8.585472,-32.144638,-23.135347,-0.015491032,0.21666604,9.720208,-0.0056892917,-0.010478018,-0.021839807,-0.02228654734790325,0.0015936921117827296,-2.8775572776794434,1017.3694,
2021.02.11 12:37:31,48.0,17.0,9.142296,-31.831589,-22.135939,-0.07499514,0.32534042,9.799035,-0.015969744,-0.0024868625,-0.04174927,-0.0331881083548069,0.007653168868273497,-2.860516309738159,1017.36945,
2021.02.11 12:37:32,48.0,17.0,9.281586,-31.49419,-21.989946,-0.06994406,0.28203753,9.8056135,-0.0021765972,-0.008406548,-0.035027444,-0.028754206374287605,0.007132941856980324,-2.8539955615997314,1017.37024,
2021.02.11 12:37:32,48.0,17.0,9.241188,-31.401981,-21.282206,-0.12960525,0.28703365,9.729911,0.012071844,-0.012507931,-0.037014842,-0.02948896400630474,0.013319503515958786,-2.8582167625427246,1017.37024,
2021.02.11 12:37:32,48.0,17.0,9.838768,-30.481674,-22.87221,-0.08442014,0.2902808,9.672105,0.00346532,-0.03930032,-0.0010146322,-0.030002012848854065,0.008727986365556717,-2.8285610675811768,1017.37036,
2021.02.11 12:37:32,48.0,17.0,9.652657,-31.16539,-22.120783,0.0026565895,0.25859585,9.836585,-0.012742674,-0.012011433,-0.0015181263,-0.026283135637640953,-2.7007231255993247E-4,-2.8355982303619385,1017.3704,
2021.02.11 12:37:32,48.0,17.0,8.995598,-30.835629,-21.654829,-0.10089123,0.36432013,9.727208,0.020009113,-0.01091231,-0.005302947,-0.03743421286344528,0.010371692478656769,-2.8571693897247314,1017.3704,
2021.02.11 12:37:32,48.0,17.0,9.441711,-31.838734,-22.915983,-0.017244149,0.3085126,9.752899,-0.0015771387,-0.0028598118,0.022626929,-0.03162232041358948,0.001768103102222085,-2.848017454147339,1017.3704,
2021.02.11 12:37:32,48.0,17.0,9.641563,-31.307812,-21.57783,0.015914178,0.3226091,9.818584,-0.003539892,-0.01000075,0.025804803,-0.03284512460231781,-0.001620820490643382,-2.8351552486419678,1017.3717,
2021.02.11 12:37:32,48.0,17.0,9.496117,-31.490108,-20.020346,0.014415304,0.36071673,9.755902,0.013246363,-0.008375484,0.022933943,-0.036957331001758575,-0.0014775971649214625,-2.8409996032714844,1017.37177,
2021.02.11 12:37:32,48.0,17.0,8.768028,-32.723198,-21.962042,0.055308502,0.33358672,9.799568,0.011913352,-0.0066229715,0.01998382,-0.034027282148599625,-0.005643913522362709,-2.870227575302124,1017.3718,
2021.02.11 12:37:32,48.0,17.0,9.515549,-32.350616,-22.480337,-0.0022495326,0.42187026,9.7816,0.020850845,-0.003785962,0.010107728,-0.04310224950313568,2.2997593623586E-4,-2.8470711708068848,1017.3719,
2021.02.11 12:37:32,48.0,17.0,9.466705,-31.516941,-22.817862,0.087133795,0.2759571,9.738918,0.024778096,-8.605276E-4,0.013574916,-0.028326787054538727,-0.008946729823946953,-2.837923288345337,1017.372,
2021.02.11 12:37:32,48.0,17.0,8.606148,-32.98362,-21.624071,0.009139731,0.38988468,9.731072,0.013273349,0.0016462763,-0.005092265,-0.04004451632499695,-9.392313077114522E-4,-2.8789944648742676,1017.37244,
2021.02.11 12:37:32,48.0,17.0,8.776802,-31.852879,-21.710768,0.004184445,0.32264796,9.745542,-0.001425042,0.0030487264,0.0010630208,-0.03309514746069908,-4.293701204005629E-4,-2.8664004802703857,1017.37274,
2021.02.11 12:37:32,48.0,17.0,8.163345,-31.795181,-21.85655,0.020544425,0.34098104,9.660362,-9.373366E-5,2.692826E-4,-7.136353E-4,-0.0352821946144104,-0.00212666904553771,-2.8827435970306396,1017.373,
2021.02.11 12:37:32,48.0,17.0,9.637505,-31.029202,-22.22413,-0.0014704851,0.41688097,9.845969,-0.035816483,0.007201501,-0.00296984,-0.04231499135494232,1.4934893988538533E-4,-2.831449508666992,1017.3736,
2021.02.11 12:37:33,48.0,17.0,10.018898,-31.94273,-21.054884,0.08233381,0.27248695,9.753907,-0.002847978,-0.0012847843,-4.954005E-4,-0.027927927672863007,-0.008440909907221794,-2.827094554901123,1017.3736,
2021.02.11 12:37:33,48.0,17.0,10.727089,-32.0691,-22.445913,-0.10684168,0.47307095,9.746575,-0.008680431,-0.0012718901,-0.014550356,-0.048496175557374954,0.010961532592773438,-2.814966917037964,1017.3736,
2021.02.11 12:37:33,48.0,17.0,9.87117,-31.33221,-22.107748,0.08008818,0.24788155,9.824569,-0.008951783,0.0020195527,0.014846293,-0.02522459253668785,-0.008151646703481674,-2.825836420059204,1017.3736,
2021.02.11 12:37:33,48.0,17.0,9.486092,-32.59486,-22.282156,-0.089732625,0.43573382,9.716236,0.00888602,-0.0036313669,-0.009685728,-0.044814012944698334,0.009235065430402756,-2.8556127548217773,1017.3736,
2021.02.11 12:37:33,48.0,17.0,7.930519,-32.317924,-22.337599,0.007527154,0.32820153,9.800969,-0.005753429,1.3479649E-4,0.01284564,-0.03347412124276161,-7.680008420720696E-4,-2.8948380947113037,1017.3736,
2021.02.11 12:37:33,48.0,17.0,9.82901,-31.130379,-21.04838,-0.0033856507,0.35581276,9.714677,0.011172963,-0.00620183,0.007351701,-0.036609940230846405,3.485088236629963E-4,-2.8285088539123535,1017.373,
2021.02.11 12:37:33,48.0,17.0,9.850761,-32.278976,-22.077494,-0.004258309,0.3351526,9.747535,-0.0059047635,0.0025814185,0.0041644312,-0.03436977416276932,4.368600493762642E-4,-2.838793992996216,1017.3729,
2021.02.11 12:37:33,48.0,17.0,7.178894,-30.825516,-22.949766,-0.008643728,0.37093088,9.770942,-0.003455164,0.0032476499,0.0026804402,-0.03794441744685173,8.846358978189528E-4,-2.906844139099121,1017.37274,
2021.02.11 12:37:33,48.0,17.0,9.240044,-31.624523,-22.454569,0.002033214,0.32070848,9.763825,4.1762635E-4,0.0014675837,0.00405037,-0.032834794372320175,-2.0823949307668954E-4,-2.85062313079834,1017.37244,
2021.02.11 12:37:33,48.0,17.0,9.809448,-32.019535,-22.258265,-0.056001294,0.41172683,9.764413,-0.009262877,-0.0044736024,0.001920206,-0.0421404093503952,0.005735181272029877,-2.839348316192627,1017.3724,
2021.02.11 12:37:33,48.0,17.0,8.3302765,-30.647285,-22.46448,0.029245773,0.33861756,9.734284,0.0026904794,-0.004648868,0.01109852,-0.03477189689874649,-0.003004400059580803,-2.8673384189605713,1017.372,
2021.02.11 12:37:33,48.0,17.0,8.503258,-31.608997,-21.482729,-0.021395162,0.34693778,9.79703,-0.004187519,0.0038983203,0.002641001,-0.035397667437791824,0.0021838380489498377,-2.873873472213745,1017.372,
2021.02.11 12:37:33,48.0,17.0,8.4342575,-31.567974,-22.388823,-0.02216216,0.33521116,9.73704,0.0014113591,-0.0019592785,1.4018976E-4,-0.03441271185874939,0.0022760636638849974,-2.8756675720214844,1017.3719,
2021.02.11 12:37:33,48.0,17.0,9.778343,-30.716328,-21.83579,-0.026975254,0.3619196,9.749769,0.0018059583,-9.5105823E-4,0.001689713,-0.03710366412997246,0.0027667509857565165,-2.82719349861145,1017.3718,
2021.02.11 12:37:34,48.0,17.0,10.263191,-30.68575,-22.503649,-0.03356797,0.36519948,9.773654,-0.0035304716,0.0035367971,0.004336913,-0.03734810650348663,0.0034345227759331465,-2.812469244003296,1017.3717,
2021.02.11 12:37:34,48.0,17.0,8.337524,-31.362396,-22.614809,-0.0069607445,0.3109627,9.765093,-0.005032556,0.0015852964,-4.2252295E-4,-0.031833548098802567,7.12818989995867E-4,-2.8762917518615723,1017.371,
2021.02.11 12:37:34,48.0,17.0,10.255585,-32.408554,-21.952276,-0.07487213,0.41487452,9.786654,0.0016418982,-0.0022738616,0.0013138494,-0.04236526042222977,0.007650281768292189,-2.831183671951294,1017.37115,
2021.02.11 12:37:34,48.0,17.0,10.411018,-32.38759,-22.994158,0.021199131,0.3105145,9.752242,0.010306401,-0.002824144,0.007049554,-0.03182949498295784,-0.0021737664937973022,-2.8222827911376953,1017.3713,
2021.02.11 12:37:34,48.0,17.0,9.431511,-31.550072,-21.977625,-0.07540655,0.37343264,9.76506,0.0051576192,5.973005E-4,-0.0012711487,-0.038221947848796844,0.007721923757344484,-2.848456859588623,1017.3713,
2021.02.11 12:37:34,48.0,17.0,8.767601,-31.774948,-22.95128,-0.02043355,0.33843064,9.716933,-0.007124214,-4.108952E-4,0.004772287,-0.034814804792404175,0.002102877479046583,-2.867039203643799,1017.3713,
2021.02.11 12:37:34,48.0,17.0,9.318466,-31.507805,-22.426687,0.0066948445,0.3203052,9.762272,-0.00920786,0.0013568064,-0.007285224,-0.03279874101281166,-6.857874686829746E-4,-2.846942663192749,1017.3713,
2021.02.11 12:37:34,48.0,17.0,9.2126465,-30.619553,-22.345785,-0.108991385,0.3856493,9.72545,-0.020921279,-0.0025165288,0.016579976,-0.03963036835193634,0.011206354014575481,-2.848598003387451,1017.3713,
2021.02.11 12:37:34,48.0,17.0,8.951721,-30.495949,-22.377226,-0.011022444,0.3524835,9.826842,-0.01293288,0.0020447792,-0.0045699226,-0.03585406392812729,0.0011216663988307118,-2.849379777908325,1017.3713,
2021.02.11 12:37:34,48.0,17.0,7.970886,-31.501755,-21.833197,-0.03431647,0.29363996,9.716281,0.0020729974,0.0016273514,-0.0074872724,-0.030212052166461945,0.003531837370246649,-2.890913724899292,1017.3713,
2021.02.11 12:37:34,48.0,17.0,9.823456,-31.056927,-21.915087,-0.03571421,0.3269104,9.788185,-0.014552014,0.00454154,-0.005596725,-0.03338583931326866,0.003648689715191722,-2.8305368423461914,1017.37115,
2021.02.11 12:37:34,48.0,17.0,9.829292,-30.974163,-21.692476,-0.07938955,0.32334593,9.758067,0.0028285494,0.0010764115,-0.010282112,-0.03312305361032486,0.008135607466101646,-2.832582473754883,1017.37115,
2021.02.11 12:37:34,48.0,17.0,9.555061,-31.26521,-21.206453,5.3296983E-4,0.28839922,9.775216,-0.010339918,0.0022524395,0.0056790654,-0.029494550079107285,-5.4522559366887435E-5,-2.8391387462615967,1017.37085,
2021.02.11 12:37:34,48.0,17.0,8.274269,-31.176468,-22.738314,-0.02373823,0.26379737,9.741233,-0.0023979442,0.0018836912,-0.019710012,-0.027073794975876808,0.002436876529827714,-2.878777503967285,1017.37085,
2021.02.11 12:37:35,48.0,17.0,9.20842,-31.605629,-21.68125,-0.073647395,0.2988222,9.7323885,-0.016243558,-4.6763464E-4,-0.01906293,-0.03069336898624897,0.007567103486508131,-2.8570592403411865,1017.3708,
2021.02.11 12:37:35,48.0,17.0,10.314461,-31.28453,-21.059416,0.0060272645,0.2674775,9.78807,-0.02388473,4.2658485E-4,-0.018631198,-0.02732008509337902,-6.157765164971352E-4,-2.817064046859741,1017.3705,
2021.02.11 12:37:35,48.0,17.0,10.326866,-30.487709,-23.20262,-0.07064907,0.26510778,9.725365,-0.013529953,0.0016747687,-0.035082836,-0.0272519513964653,0.007264286279678345,-2.813502073287964,1017.3705,
2021.02.11 12:37:35,48.0,17.0,10.429199,-31.246983,-21.963419,-0.054766174,0.26518473,9.773951,-0.028571576,0.0013223921,-0.02681183,-0.027124706655740738,0.005603220779448748,-2.817106246948242,1017.3705,
2021.02.11 12:37:35,48.0,17.0,10.188019,-30.576626,-22.337358,-0.06053564,0.2722889,9.780993,-0.020692442,-0.006224506,-0.025870847,-0.027830850332975388,0.006189030595123768,-2.8177666664123535,1017.3705,
2021.02.11 12:37:35,48.0,17.0,10.482681,-30.580906,-22.642324,-0.03780612,0.23111017,9.761748,-0.011053691,-0.0057887174,-0.021589175,-0.023670481517910957,0.0038728646468371153,-2.8084073066711426,1017.37036,
2021.02.11 12:37:35,48.0,17.0,10.839691,-30.033047,-21.972303,0.03426447,0.20959586,9.71537,-0.021727193,-0.014176864,-0.027017104,-0.021570155397057533,-0.0035268166102468967,-2.787733316421509,1017.3702,
2021.02.11 12:37:35,48.0,17.0,9.923073,-30.37215,-23.06146,0.0029779524,0.22303097,9.799137,-0.009903654,-0.009682875,-0.058621217,-0.022756336256861687,-3.0389943276531994E-4,-2.820338487625122,1017.37,
2021.02.11 12:37:35,48.0,17.0,10.386078,-31.949844,-23.270155,-0.049647894,0.21022357,9.774649,5.464521E-4,-0.010874294,-0.057762753,-0.021503429859876633,0.005079207476228476,-2.825939416885376,1017.37,
2021.02.11 12:37:35,48.0,17.0,10.55452,-30.023697,-22.879633,-0.068924494,0.170964,9.744163,0.022322347,-2.6586466E-5,-0.040501166,-0.017543036490678787,0.00707329623401165,-2.8041157722473145,1017.3698,
2021.02.11 12:37:35,48.0,17.0,10.004166,-31.726704,-22.520456,-0.15291558,0.29152766,9.746494,0.03622478,0.0074834377,-0.03455614,-0.02989843487739563,0.015688003972172737,-2.8401377201080322,1017.3698,
2021.02.11 12:37:35,48.0,17.0,10.955612,-31.38552,-23.002546,-0.06350484,0.19850917,9.778738,0.027339734,-4.145099E-4,-0.013252245,-0.020296864211559296,0.006494083907455206,-2.805285930633545,1017.3698,
2021.02.11 12:37:35,48.0,17.0,10.244858,-31.169037,-22.225477,-0.12833318,0.3158811,9.7014,0.025797082,-6.774432E-4,-0.012683912,-0.032546017318964005,0.013227544724941254,-2.8255226612091064,1017.3698,
2021.02.11 12:37:35,48.0,17.0,11.74823,-31.932735,-22.194273,-0.052721024,0.28277102,9.820634,0.008147994,0.004209342,0.00410992,-0.02878519520163536,0.005368341691792011,-2.785646915435791,1017.3698,
2021.02.11 12:37:36,48.0,17.0,10.578331,-30.70457,-21.623617,-0.11122676,0.33510187,9.786613,0.024649877,-0.0017954153,9.3501055E-4,-0.03422526270151138,0.011364703997969627,-2.809328079223633,1017.3698,
2021.02.11 12:37:36,48.0,17.0,9.623154,-30.40623,-22.18622,-0.100636095,0.337503,9.74821,0.028403055,0.0016179208,0.011361188,-0.03460637852549553,0.010323178954422474,-2.8344593048095703,1017.3698,
2021.02.11 12:37:36,48.0,17.0,10.253761,-31.554916,-22.799807,-0.063337274,0.3427875,9.794098,0.01377314,-0.0022177333,0.027014134,-0.03498438373208046,0.006466791965067387,-2.823922872543335,1017.37,
2021.02.11 12:37:36,48.0,17.0,10.3856125,-30.692364,-21.577765,-0.04741237,0.30469763,9.730947,0.025947956,-0.0021732114,0.020454375,-0.03130163252353668,0.004872290417551994,-2.811459541320801,1017.3701,
2021.02.11 12:37:36,48.0,17.0,10.439552,-31.15128,-21.349554,-0.09379187,0.3508885,9.725739,0.013841538,0.00666383,0.01783487,-0.03606102243065834,0.009643377736210823,-2.816467761993408,1017.3701,
2021.02.11 12:37:36,48.0,17.0,10.738045,-31.654278,-23.04516,-0.056162477,0.3609043,9.745439,0.002016897,-9.837581E-4,0.025209706,-0.03701562061905861,0.005762886255979538,-2.8097615242004395,1017.3702,
2021.02.11 12:37:36,48.0,17.0,10.70079,-31.057812,-21.300463,0.002995244,0.34970784,9.803143,-0.005000349,-0.0013397787,0.024600608,-0.03565790876746178,-3.055391716770828E-4,-2.8016934394836426,1017.3702,
2021.02.11 12:37:36,48.0,17.0,10.777885,-31.010777,-22.906511,-0.079078175,0.3558646,9.755019,0.012798073,-0.001672121,0.0056582806,-0.03646279126405716,0.00810623075813055,-2.8037760257720947,1017.37036,
2021.02.11 12:37:36,48.0,17.0,11.044762,-31.02388,-22.686396,-0.05837061,0.34134185,9.746198,8.9018745E-4,-0.004193412,0.011323246,-0.03500814363360405,0.005988993216305971,-2.7950520515441895,1017.37036,
2021.02.11 12:37:36,48.0,17.0,10.448853,-31.898666,-21.377157,-0.08483589,0.39308408,9.781985,0.005950817,-7.762273E-4,0.0083655175,-0.0401613712310791,0.008672447875142097,-2.8219895362854004,1017.3705,
2021.02.11 12:37:36,48.0,17.0,10.768814,-31.494278,-21.724962,-0.044845074,0.32706746,9.725377,0.00542244,-0.0033347476,0.016181042,-0.0336172841489315,0.004611107055097818,-2.807588815689087,1017.3702,
2021.02.11 12:37:36,48.0,17.0,11.167885,-30.663383,-21.208776,-0.046964448,0.33809033,9.799461,-4.975409E-4,0.004800499,0.006402707,-0.034486837685108185,0.004792517051100731,-2.787252187728882,1017.3702,
2021.02.11 12:37:36,48.0,17.0,10.105278,-31.364502,-22.068419,-0.095604025,0.34270224,9.647712,0.0033271164,0.0018525196,-3.3871667E-4,-0.035504937171936035,0.009909178130328655,-2.8286991119384766,1017.36993,
2021.02.11 12:37:36,48.0,17.0,11.093239,-32.755573,-22.862852,-0.013453506,0.3201063,9.833068,-0.029409388,0.012307944,0.007092221,-0.03254253789782524,0.0013681893469765782,-2.8087069988250732,1017.36993,
2021.02.11 12:37:36,48.0,17.0,10.874001,-31.534527,-22.318003,-0.12016117,0.3737168,9.725371,7.688366E-4,0.002970789,-0.012571395,-0.0384051688015461,0.012354803271591663,-2.8086955547332764,1017.36945,
2021.02.11 12:37:37,48.0,17.0,10.661835,-30.973442,-21.359205,-0.08712584,0.34680307,9.786038,-0.018384574,0.0013251742,0.006513444,-0.03542232885956764,0.008902840316295624,-2.807774543762207,1017.36945,
2021.02.11 12:37:37,48.0,17.0,9.896378,-31.162891,-22.296198,-0.097327985,0.36588565,9.781268,0.0053838976,0.0029209317,0.0031554138,-0.037387486547231674,0.009950118139386177,-2.8325860500335693,1017.36945,
2021.02.11 12:37:37,48.0,17.0,10.767517,-31.26273,-22.01439,-0.09891448,0.31490088,9.750285,-0.0030758418,-3.750926E-4,0.0053060516,-0.03228369727730751,0.010144430212676525,-2.809087038040161,1017.36945,
2021.02.11 12:37:37,48.0,17.0,11.54113,-31.532074,-21.07451,-0.108270735,0.37398645,9.755291,0.0012734692,-0.0035013007,0.0053859055,-0.038315653800964355,0.011098211631178856,-2.788682699203491,1017.36945,
2021.02.11 12:37:37,48.0,17.0,10.761528,-31.705605,-21.535501,-0.07896277,0.32808593,9.752987,0.007786042,3.1038257E-4,0.011064972,-0.03362575173377991,0.008096089586615562,-2.8121132850646973,1017.3696,
2021.02.11 12:37:37,48.0,17.0,10.834694,-31.787987,-22.063772,-0.1009621,0.36041704,9.73898,0.0045971507,-2.439149E-4,4.7450763E-4,-0.03698880970478058,0.01036643236875534,-2.811432361602783,1017.3698,
2021.02.11 12:37:37,48.0,17.0,10.817635,-31.250286,-22.03649,-0.10858642,0.3367118,9.780065,-0.0060227164,0.0012699312,0.012924763,-0.03441266715526581,0.011102376505732536,-2.8076107501983643,1017.36993,
2021.02.11 12:37:37,48.0,17.0,9.843018,-32.639515,-22.343851,-0.07069106,0.3629926,9.702685,-0.013388481,0.0018450189,0.007979506,-0.037393130362033844,0.007285591680556536,-2.845916271209717,1017.3709,
2021.02.11 12:37:37,48.0,17.0,10.328926,-31.827637,-22.311892,-0.06334942,0.3262731,9.82785,0.013859475,-0.002401935,4.706513E-4,-0.03318595141172409,0.006445818580687046,-2.824803352355957,1017.371,
2021.02.11 12:37:37,48.0,17.0,8.79319,-31.989773,-22.38922,-0.073215656,0.3524507,9.739484,0.00915505,3.901145E-4,0.008410049,-0.03617101535201073,0.007517264690250158,-2.8715410232543945,1017.37103,
2021.02.11 12:37:37,48.0,17.0,10.522263,-31.341225,-21.514551,-0.11657765,0.36208573,9.764243,0.009053627,0.0035238615,4.387663E-4,-0.03706320375204086,0.011938673444092274,-2.8171303272247314,1017.3711,
2021.02.11 12:37:37,48.0,17.0,10.49398,-30.759666,-21.670378,-0.15081428,0.3871872,9.747684,0.007846411,0.0052705305,0.0063813315,-0.03969533368945122,0.01547057181596756,-2.8137943744659424,1017.3715,
2021.02.11 12:37:37,48.0,17.0,9.777351,-30.678974,-22.367449,-0.08560089,0.3767705,9.794777,0.0048125796,-0.0028874683,0.026128117,-0.03844604268670082,0.008739219978451729,-2.830439805984497,1017.3717,
2021.02.11 12:37:38,48.0,17.0,11.240051,-31.690979,-22.678694,-0.013478068,0.38192058,9.875828,0.031067248,-0.023451727,0.02195285,-0.03865296021103859,0.0013647524174302816,-2.7924602031707764,1017.37177,
2021.02.11 12:37:38,48.0,17.0,10.365044,-31.613655,-22.71435,-0.1076465,0.41571513,9.799945,0.10049848,-0.07462099,0.0042458447,-0.042392175644636154,0.010983956977725029,-2.8225200176239014,1017.372,
2021.02.11 12:37:38,48.0,17.0,10.210472,-30.833717,-20.936682,-0.11530288,0.54236555,9.423005,0.0511266,-0.1290113,0.03910294,-0.05748986825346947,0.012235707603394985,-2.8169240951538086,1017.372,
2021.02.11 12:37:38,48.0,17.0,9.851044,-31.553398,-21.227575,0.19130504,0.51802593,9.9427595,-0.0565826,-0.098862655,0.04800735,-0.05204413831233978,-0.019238265231251717,-2.8163323402404785,1017.37213,
2021.02.11 12:37:38,48.0,17.0,10.284409,-31.777218,-20.821413,0.183994,0.46205017,9.861293,0.042371668,-0.11153801,0.030557528,-0.046812549233436584,-0.018656035885214806,-2.8078436851501465,1017.37213,
2021.02.11 12:37:38,48.0,17.0,9.026512,-31.717056,-21.774027,0.23243661,0.48505118,9.647621,0.058177143,-0.15690437,0.011240312,-0.05021992325782776,-0.024087976664304733,-2.839085578918457,1017.3722,
2021.02.11 12:37:38,48.0,17.0,7.7136917,-31.816639,-21.675371,0.57915324,0.51831716,9.560493,-0.02271025,-0.15103425,-0.024531486,-0.05406254157423973,-0.06050381809473038,-2.85546612739563,1017.3724,
2021.02.11 12:37:38,48.0,17.0,7.241295,-31.673042,-22.388693,0.56060916,0.66497093,10.139966,-0.016507678,-0.08864016,-0.010972283,-0.06538587063550949,-0.05523085594177246,-2.868020534515381,1017.37244,
