Time,X-cord,Y-cord,Mag_x,Mag_y,Mag_z,Acc_x,Acc_y,Acc_z,Gyro_x,Gyro_y,Gyro_z,Orn_x,Orn_y,Orn_z,Pressure,
2021.02.11 12:39:54,50.0,16.0,-3.3735886,21.137512,-17.863451,-0.08838016,0.36349893,10.124032,0.008560241,-0.09151747,-0.0144099435,-0.03588777780532837,0.008729517459869385,0.16076894104480743,1017.5463,
2021.02.11 12:39:54,50.0,16.0,-2.900772,21.585323,-18.124685,-0.40941104,0.42256382,9.603879,0.09802009,-0.035883565,-0.027798668,-0.04393107816576958,0.04260396584868431,0.16272632777690887,1017.5463,
2021.02.11 12:39:54,50.0,16.0,-2.2221375,20.842869,-17.766768,-0.1679161,0.23682593,9.723243,-0.0023082928,-0.018386433,0.055432405,-0.024348238483071327,0.01726784184575081,0.11833472549915314,1017.5491,
2021.02.11 12:39:55,50.0,16.0,-3.3947449,20.359222,-16.896845,0.007805767,0.22183354,9.628694,-0.025489936,-0.014448911,0.0035151276,-0.02303471975028515,-8.106774766929448E-4,0.1615755259990692,1017.5511,
2021.02.11 12:39:55,50.0,16.0,-3.48378,21.477074,-17.508799,-0.3707393,0.32984892,9.885198,-0.06975189,0.012758149,-0.046385523,-0.03333217278122902,0.03748692199587822,0.1855364739894867,1017.5519,
2021.02.11 12:39:55,50.0,16.0,-3.3339233,20.232666,-17.509539,-0.43959346,0.46491432,9.833781,-0.024086181,-0.028439444,0.013527384,-0.047195032238960266,0.044672641903162,0.19313329458236694,1017.55194,
2021.02.11 12:39:55,50.0,16.0,-2.5278397,21.139023,-18.502085,-0.07838362,0.17627995,9.717858,-0.020567345,-0.040200766,0.07573771,-0.018137214705348015,0.00806576106697321,0.12404080480337143,1017.55206,
2021.02.11 12:39:55,50.0,16.0,-2.5457153,20.99612,-18.131208,0.012527879,0.10254061,9.800755,-0.017990543,-0.008374134,0.026114248,-0.010462131351232529,-0.001278255833312869,0.11851553618907928,1017.55206,
2021.02.11 12:39:55,50.0,16.0,-2.4905243,21.266323,-17.843702,-0.16094841,0.28069547,9.815181,5.193087E-4,0.0022846947,-0.026074626,-0.028586460277438164,0.01639643684029579,0.12715624272823334,1017.55225,
2021.02.11 12:39:55,50.0,16.0,-2.6140747,21.231281,-17.968355,-0.19734217,0.23659647,9.790961,0.009091422,0.013727607,-0.010081,-0.024155177175998688,0.02015281654894352,0.1365387886762619,1017.55304,
2021.02.11 12:39:55,50.0,16.0,-4.0352783,22.702127,-17.678606,-0.19511838,0.31530485,9.855603,0.010630155,-0.002271959,0.005378405,-0.03197527676820755,0.019795123487710953,0.1863643378019333,1017.55347,
2021.02.11 12:39:55,50.0,16.0,-3.084175,21.681637,-17.56468,-0.03607915,0.24436115,10.007768,0.029289177,-0.0058424966,0.028678283,-0.024412138387560844,0.003605098929256201,0.1414453536272049,1017.5561,
2021.02.11 12:39:55,50.0,16.0,-3.6593094,20.922413,-17.67098,-0.20323539,0.17826577,9.591332,0.09579219,-0.016870372,-9.135826E-4,-0.018579822033643723,0.021186314523220062,0.1875884234905243,1017.5561,
2021.02.11 12:39:55,50.0,16.0,-2.8044815,20.691837,-18.152933,-0.19059394,0.206235,9.54215,0.037780713,-0.017843356,0.018750202,-0.02160538174211979,0.019971244037151337,0.14911037683486938,1017.5561,
2021.02.11 12:39:55,50.0,16.0,-3.3490753,20.904789,-18.657175,0.021073474,0.13529891,9.846534,-0.01645169,0.0065126144,0.026321068,-0.013739869929850101,-0.0021401888225227594,0.1551353484392166,1017.5561,
2021.02.11 12:39:55,50.0,16.0,-2.2858276,20.373857,-17.651922,-0.07646805,0.1687894,9.6147785,0.018694654,-0.006056388,-0.01209412,-0.017552845180034637,0.007953010499477386,0.11678313463926315,1017.5561,
2021.02.11 12:39:55,50.0,16.0,-2.455307,21.479923,-18.528364,-0.20784058,0.26537514,9.718487,-0.02630345,0.0039102295,-0.0122484835,-0.027293195948004723,0.02138284407556057,0.12900754809379578,1017.5563,
2021.02.11 12:39:55,50.0,16.0,-2.1943054,21.666023,-18.535112,-0.16620733,0.33009028,9.852901,-0.030448463,0.0017250812,0.027136546,-0.033484552055597305,0.016867270693182945,0.11206862330436707,1017.5563,
2021.02.11 12:39:56,50.0,16.0,-3.8957825,22.572002,-17.753016,0.015842728,0.19562148,9.665933,-0.020126047,0.0046781152,0.037818823,-0.020235450938344002,-0.0016390258679166436,0.16708147525787354,1017.5563,
2021.02.11 12:39:56,50.0,16.0,-2.1231537,21.630545,-18.074232,-0.08137011,0.34650412,9.893926,-0.026065512,0.00843429,0.010166028,-0.035006411373615265,0.00822406355291605,0.10175080597400665,1017.557,
2021.02.11 12:39:56,50.0,16.0,-1.5785446,20.399223,-18.335112,-0.075332694,0.36767137,9.860779,0.007672429,-0.0011277136,0.012972364,-0.03726788982748985,0.007639480289071798,0.08139321208000183,1017.5576,
2021.02.11 12:39:56,50.0,16.0,-2.0543518,20.880096,-17.565985,-0.040084425,0.33703867,9.980326,0.0822763,-0.032462407,0.003499047,-0.03375720605254173,0.004016322549432516,0.09869083762168884,1017.5582,
2021.02.11 12:39:56,50.0,16.0,-3.453453,20.293015,-18.490267,-0.070479244,0.13627161,9.619378,0.006558657,-0.017248439,0.027486827,-0.014165036380290985,0.007326667197048664,0.1728745847940445,1017.55884,
2021.02.11 12:39:56,50.0,16.0,-3.0020142,20.573017,-17.680998,-0.012991086,0.21616285,9.615564,-0.005387632,-0.019911684,0.003757435,-0.02247670851647854,0.0013510468415915966,0.14334040880203247,1017.55884,
2021.02.11 12:39:56,50.0,16.0,-2.581459,20.463734,-17.572248,-0.13497685,0.3477824,9.878138,-0.03186877,0.0031809579,-0.012005397,-0.035189464688301086,0.01366334967315197,0.13312232494354248,1017.55884,
2021.02.11 12:39:56,50.0,16.0,-2.9925919,19.87763,-18.142286,-0.059667032,0.33704254,9.616738,0.001310098,-0.027453242,0.012371009,-0.0350324772298336,0.006204418372362852,0.15032389760017395,1017.55884,
2021.02.11 12:39:56,50.0,16.0,-3.476387,20.545391,-17.461752,-0.022469992,0.15317516,9.858781,-0.04483678,-0.018544821,0.01489821,-0.015535636804997921,0.00227918173186481,0.16735272109508514,1017.5589,
2021.02.11 12:39:56,50.0,16.0,-4.066536,21.006,-17.782156,-0.2442746,0.4177595,9.735512,-0.01867714,0.02758641,-0.018840581,-0.04287111014127731,0.025085827335715294,0.2045687735080719,1017.559,
2021.02.11 12:39:56,50.0,16.0,-3.5865479,21.542622,-18.886522,-0.004279966,0.21957453,9.892632,-0.01980667,0.023168575,0.042271543,-0.02219211868941784,4.326417692936957E-4,0.16228117048740387,1017.559,
2021.02.11 12:39:56,50.0,16.0,-3.0761719,22.721128,-17.610186,-0.048930313,0.23047478,9.650504,6.489665E-4,0.016890455,0.005552157,-0.023877302184700966,0.0050701904110610485,0.13598112761974335,1017.5589,
2021.02.11 12:39:56,50.0,16.0,-3.9863052,22.012337,-17.79323,-0.11142833,0.31449136,9.89611,-0.021877388,0.017231513,0.0110363,-0.031766586005687714,0.011259336024522781,0.18344081938266754,1017.5589,
2021.02.11 12:39:56,50.0,16.0,-2.511055,21.171822,-18.40222,-0.05278753,0.1861497,9.706001,0.012447009,0.011973195,0.014695126,-0.019176190719008446,0.005438594613224268,0.12074048817157745,1017.5589,
2021.02.11 12:39:57,50.0,16.0,-3.1655807,20.928856,-18.758646,-0.016776659,0.2038526,9.72819,-0.011935342,0.0014495644,0.0030298019,-0.020951732993125916,0.0017245387425646186,0.14890620112419128,1017.55896,
2021.02.11 12:39:57,50.0,16.0,-3.8345566,22.53462,-18.407312,-0.1274385,0.22491808,9.864616,-0.009862863,0.004714031,-0.01547792,-0.022794639691710472,0.01291802991181612,0.17562374472618103,1017.55896,
2021.02.11 12:39:57,50.0,16.0,-2.500618,21.255072,-18.793146,-0.11666066,0.18012579,9.723889,0.023793591,0.0025100284,-0.009928437,-0.018520595505833626,0.01199674978852272,0.12554137408733368,1017.5593,
2021.02.11 12:39:57,50.0,16.0,-3.0241394,21.61206,-18.578444,-0.1073788,0.14826609,9.77296,-0.0048361057,0.004560829,-0.004324856,-0.015168973244726658,0.01098689530044794,0.14640699326992035,1017.5593,
2021.02.11 12:39:57,50.0,16.0,-2.5320053,21.946106,-17.24035,-0.12782207,0.20629913,9.7685375,0.009649677,-0.0013581687,-0.011715177,-0.021113784983754158,0.013084331527352333,0.1229996532201767,1017.5593,
2021.02.11 12:39:57,50.0,16.0,-2.952156,20.826683,-18.212835,-0.14815463,0.22166131,9.765289,0.0078000594,0.0014604791,-0.006569033,-0.022692391648888588,0.015170392580330372,0.1508733332157135,1017.5593,
2021.02.11 12:39:57,50.0,16.0,-3.086975,21.780912,-17.522707,-0.0752651,0.16472878,9.748226,0.0058444464,0.0059033725,0.0010891927,-0.016896221786737442,0.007720749359577894,0.14495117962360382,1017.5593,
2021.02.11 12:39:57,50.0,16.0,-3.191269,21.033028,-18.866137,-0.084225975,0.25327516,9.737709,0.0059909658,0.0036524688,-0.01235546,-0.02600289136171341,0.008649248629808426,0.1546563059091568,1017.5593,
2021.02.11 12:39:57,50.0,16.0,-2.5898895,21.320877,-18.14477,-0.055024955,0.18917012,9.808941,0.002296476,0.0023515136,-0.013788096,-0.019282786175608635,0.00560961477458477,0.12359702587127686,1017.5593,
2021.02.11 12:39:57,50.0,16.0,-3.3300705,21.332512,-18.685297,-0.10315349,0.23590875,9.70922,0.011625482,0.0067227846,-0.035513807,-0.02429124526679516,0.010623881593346596,0.16061197221279144,1017.55927,
2021.02.11 12:39:57,50.0,16.0,-3.4254227,20.701675,-18.158857,-0.12077471,0.2217957,9.813891,-0.0057826145,0.0048188646,-0.034369305,-0.022594619542360306,0.01230588462203741,0.17118200659751892,1017.55896,
2021.02.11 12:39:57,50.0,16.0,-2.9257278,21.62687,-17.962011,-0.16823107,0.2520319,9.721511,0.008329279,7.6788117E-4,-0.0344109,-0.025915492326021194,0.017303306609392166,0.1455015242099762,1017.5589,
2021.02.11 12:39:57,50.0,16.0,-3.5868073,20.615734,-17.81676,-0.12488318,0.14328901,9.751296,-0.007077653,0.009658281,-0.02457431,-0.01469209510833025,0.012806128710508347,0.1807480752468109,1017.5588,
2021.02.11 12:39:57,50.0,16.0,-2.4478989,20.120317,-18.093058,-0.17066346,0.21207576,9.719365,-0.020468915,0.01561184,-0.023437973,-0.02181309461593628,0.017557311803102493,0.1340179294347763,1017.55835,
2021.02.11 12:39:58,50.0,16.0,-2.7731476,21.488253,-17.06016,-0.158804,0.21529831,9.744892,0.0048991363,0.001732113,-0.0130848205,-0.02208692766726017,0.016294684261083603,0.1386711746454239,1017.5576,
2021.02.11 12:39:58,50.0,16.0,-2.6927185,21.468323,-17.002703,-0.15097381,0.22854339,9.828884,0.0017239333,0.003882801,-0.009046463,-0.02324529178440571,0.015359010547399521,0.13431809842586517,1017.5575,
2021.02.11 12:39:58,50.0,16.0,-3.5938416,20.741915,-17.278719,-0.12946512,0.151527,9.68953,-0.006114126,-0.0023206389,-2.848925E-4,-0.015635550022125244,0.013360545970499516,0.1800651252269745,1017.55707,
2021.02.11 12:39:58,50.0,16.0,-3.9631271,21.127865,-17.090322,-0.108902894,0.2205671,9.746478,-0.012491319,0.0051217335,-0.0059357164,-0.022625168785452843,0.011173098348081112,0.19077998399734497,1017.5563,
2021.02.11 12:39:58,50.0,16.0,-3.4198532,21.08593,-17.447546,-0.11163288,0.21995813,9.895851,0.03706498,-0.012879955,-0.007245437,-0.022222235798835754,0.011280297301709652,0.1668941229581833,1017.5563,
2021.02.11 12:39:58,50.0,16.0,-4.297928,21.49469,-18.166311,-0.20624197,0.25186977,9.59954,-0.025241386,-0.0057274997,0.01913856,-0.026225624606013298,0.021481264382600784,0.21027401089668274,1017.55597,
2021.02.11 12:39:58,50.0,16.0,-3.0347595,21.54828,-18.584719,-0.08237073,0.22100115,9.812941,0.023294635,-0.0057891198,-0.016706944,-0.022516800090670586,0.00839389581233263,0.14427971839904785,1017.55597,
2021.02.11 12:39:58,50.0,16.0,-4.225418,20.95353,-17.696585,-0.212909,0.24299848,9.655753,0.022880116,-0.002778471,-0.018070295,-0.025154761970043182,0.022046389058232307,0.21247990429401398,1017.55597,
2021.02.11 12:39:58,50.0,16.0,-3.9608002,20.93631,-17.484102,-0.07164127,0.16564238,9.843876,-0.0072606765,0.002866075,0.0033432292,-0.016824912279844284,0.0072776214219629765,0.19025267660617828,1017.55597,
2021.02.11 12:39:58,50.0,16.0,-4.487465,21.205894,-18.297747,-0.14993328,0.2298029,9.655354,0.012598015,-0.009682437,-0.014717682,-0.023793209344148636,0.015527265146374702,0.21706415712833405,1017.55554,
2021.02.11 12:39:58,50.0,16.0,-2.4333649,19.739006,-17.565908,-0.097350426,0.1928962,9.803084,-0.018014288,-0.001533713,5.212324E-4,-0.019673585891723633,0.009930264204740524,0.1291399598121643,1017.5554,
2021.02.11 12:39:58,50.0,16.0,-3.4698792,20.909489,-18.038595,-0.055160265,0.14780174,9.749677,-0.0037508374,-0.009145984,-0.008966936,-0.015158251859247684,0.005657590460032225,0.16707025468349457,1017.5553,
2021.02.11 12:39:58,50.0,16.0,-3.2095337,21.142555,-18.228735,-0.15581924,0.23796229,9.770966,-0.008522415,-3.6096806E-4,-0.021694455,-0.024346113204956055,0.01594581827521324,0.1607866734266281,1017.5532,
2021.02.11 12:39:58,50.0,16.0,-2.0739136,22.658604,-17.36717,-0.11874431,0.16038345,9.777252,-0.0062686717,2.2753747E-4,-0.0055858297,-0.016401054337620735,0.012144360691308975,0.09926610440015793,1017.55286,
2021.02.11 12:39:59,50.0,16.0,-4.8867645,21.798458,-17.27305,-0.14094867,0.22366518,9.772815,-0.0058062533,-0.0034560245,4.223364E-4,-0.02288009226322174,0.014421525411307812,0.22745957970619202,1017.55286,
2021.02.11 12:39:59,50.0,16.0,-4.258812,20.730541,-17.5011,-0.062218864,0.12318301,9.724517,0.008332067,9.2473364E-4,0.0059348214,-0.012666326947510242,0.006398057099431753,0.20567315816879272,1017.55286,
2021.02.11 12:39:59,50.0,16.0,-3.3009644,22.159767,-18.271463,-0.1444024,0.24858804,9.809371,-0.016497042,0.0037670394,-0.0035426472,-0.025333726778626442,0.014719799160957336,0.1565537452697754,1017.55286,
2021.02.11 12:39:59,50.0,16.0,-4.3032303,21.128902,-17.459677,-0.078546494,0.1957028,9.752202,0.010350762,-0.0058435076,0.012167018,-0.020064204931259155,0.008054058067500591,0.2040521800518036,1017.55286,
2021.02.11 12:39:59,50.0,16.0,-4.423851,21.665318,-18.309198,-0.065369815,0.15792087,9.756337,-0.001154514,-0.0017156007,0.003022903,-0.016184713691473007,0.006700141355395317,0.20416325330734253,1017.55286,
2021.02.11 12:39:59,50.0,16.0,-3.4605255,21.718678,-19.136751,-0.082433455,0.20495127,9.776319,0.0097804945,-0.009893743,-0.0043766843,-0.020960239693522453,0.008431753143668175,0.16233284771442413,1017.55286,
2021.02.11 12:39:59,50.0,16.0,-4.905945,21.450241,-17.675318,-0.09143135,0.21549119,9.722808,-6.126147E-5,-0.006101617,0.011124351,-0.022158866748213768,0.009403523989021778,0.22823143005371094,1017.55286,
2021.02.11 12:39:59,50.0,16.0,-3.2920227,21.185463,-17.530863,-0.006552397,0.18957895,9.725116,0.021677678,-0.02043376,-0.0092104785,-0.019491277635097504,6.737601361237466E-4,0.15231303870677948,1017.55286,
2021.02.11 12:39:59,50.0,16.0,-5.0830154,21.101196,-17.406504,-0.050953403,0.24088953,9.792976,0.003307649,-0.011610342,-0.015250348,-0.02459290251135826,0.0052030086517333984,0.23590457439422607,1017.55286,
2021.02.11 12:39:59,50.0,16.0,-3.3136368,21.108215,-16.807722,-0.023346819,0.26392713,9.765035,0.025376791,-0.011027014,-0.016560763,-0.027021115645766258,0.0023908542934805155,0.15435977280139923,1017.55286,
2021.02.11 12:39:59,50.0,16.0,-4.484894,20.435179,-17.253366,0.030771771,0.15855621,9.777352,0.018757164,-0.010296132,-0.022129036,-0.01621517725288868,-0.003147239563986659,0.21073251962661743,1017.55286,
2021.02.11 12:39:59,50.0,16.0,-4.0527954,20.734592,-17.406057,-0.13075049,0.25762483,9.751808,0.01791593,-0.0058931885,-0.041415032,-0.02640964649617672,0.013407016173005104,0.19960415363311768,1017.55286,
2021.02.11 12:39:59,50.0,16.0,-5.1710663,21.4689,-18.290548,-0.08258688,0.26963484,9.7947235,0.020892836,-0.0048191817,-0.010257896,-0.02752065099775791,0.0084315724670887,0.2378690242767334,1017.55286,
2021.02.11 12:39:59,50.0,16.0,-4.171417,21.355047,-18.419825,-0.0052228547,0.19373655,9.73017,0.0061873393,0.0057828524,-0.021020483,-0.019908275455236435,5.367690464481711E-4,0.19020457565784454,1017.55286,
2021.02.11 12:40:00,50.0,16.0,-2.1807098,21.26585,-17.947767,-0.01554267,0.20863749,9.71187,0.018855553,1.1807855E-4,0.006185011,-0.021479401737451553,0.0016003773780539632,0.10171715915203094,1017.55286,
2021.02.11 12:40:00,50.0,16.0,-3.7268982,21.368065,-17.916498,-0.041525204,0.24078299,9.723781,-0.0017154887,0.0059455186,-0.007595553,-0.02475699782371521,0.004270453471690416,0.17269225418567657,1017.55286,
2021.02.11 12:40:00,50.0,16.0,-4.4376526,21.383245,-16.65143,-0.066287644,0.29691482,9.8052,-0.0068103485,0.006796185,-0.0011268982,-0.03027142398059368,0.006760355085134506,0.20506730675697327,1017.55286,
2021.02.11 12:40:00,50.0,16.0,-2.8623276,20.42255,-17.351576,-0.017575005,0.1990043,9.695668,0.0042136335,5.518078E-4,0.0068553584,-0.020522156730294228,0.0018126637442037463,0.1384059488773346,1017.55286,
2021.02.11 12:40:00,50.0,16.0,-4.2482834,21.501726,-17.972761,-0.061107676,0.31105596,9.800982,-0.018228138,0.0023117848,-0.003705673,-0.03172595798969269,0.0062347715720534325,0.19513779878616333,1017.55286,
2021.02.11 12:40:00,50.0,16.0,-4.338661,21.979809,-17.373392,-0.061809074,0.2744729,9.805018,-0.007314197,0.0030879448,0.0022976263,-0.027985239401459694,0.006303736474364996,0.19554424285888672,1017.5541,
2021.02.11 12:40:00,50.0,16.0,-3.2999573,21.481756,-17.79743,-0.04611059,0.23416688,9.722535,0.008049544,0.0017454587,0.0058827894,-0.024080034345388412,0.004742615390568972,0.1532973200082779,1017.5541,
2021.02.11 12:40:00,50.0,16.0,-3.9844818,20.567276,-17.150507,-0.08170068,0.25215372,9.807163,6.3293055E-4,0.003649502,0.012593666,-0.025704625993967056,0.00833052210509777,0.1940569281578064,1017.5541,
2021.02.11 12:40:00,50.0,16.0,-4.173065,22.610172,-18.178389,-0.055278618,0.27785525,9.734845,-0.0021889508,0.0021077965,0.0020288425,-0.02853413112461567,0.005678366869688034,0.18289917707443237,1017.55475,
2021.02.11 12:40:00,50.0,16.0,-3.5329971,21.334602,-18.11424,-0.044397887,0.21711113,9.8468485,-8.250573E-4,0.012393339,0.005502715,-0.022044995799660683,0.004508811514824629,0.1648460179567337,1017.55524,
2021.02.11 12:40:00,50.0,16.0,-5.037857,21.796404,-18.466135,-0.022365278,0.21898492,9.681563,0.0085289115,-3.373702E-4,0.0017931676,-0.022614840418100357,0.002310085343196988,0.22489753365516663,1017.55524,
2021.02.11 12:40:00,50.0,16.0,-4.0894394,21.643478,-18.069605,-0.113766216,0.2901701,9.8215065,0.009275725,0.009374943,-0.014670337,-0.029533786699175835,0.011582858860492706,0.19154220819473267,1017.55524,
2021.02.11 12:40:00,50.0,16.0,-4.704857,21.686848,-18.348646,-0.03314108,0.1994353,9.7430525,0.011692489,0.0071851164,0.012792216,-0.020466510206460953,0.003401495749130845,0.21285420656204224,1017.5553,
2021.02.11 12:40:01,50.0,16.0,-3.9905014,21.395489,-18.062513,-0.02278909,0.20501886,9.69949,0.007896715,-0.003097379,-0.0068895356,-0.021133873611688614,0.0023495100904256105,0.18315687775611877,1017.55536,
2021.02.11 12:40:01,50.0,16.0,-3.60437,21.008137,-18.370615,-0.12391981,0.29902807,9.800141,-0.006559155,0.0033251494,-0.00924897,-0.030500726774334908,0.012644021771848202,0.1761181354522705,1017.55536,
2021.02.11 12:40:01,50.0,16.0,-5.3833313,21.022266,-17.498281,-0.05244692,0.24518251,9.757058,0.001478212,0.0013793259,0.008649277,-0.02512308582663536,0.005375228356570005,0.2499600350856781,1017.5555,
2021.02.11 12:40:01,50.0,16.0,-3.9810944,20.254662,-17.65275,-0.047038782,0.26091993,9.774898,-0.0023005828,7.872551E-5,0.003820308,-0.026686212047934532,0.004812164697796106,0.19379164278507233,1017.55566,
2021.02.11 12:40:01,50.0,16.0,-3.7249146,21.633934,-17.786505,-0.0313501,0.26651642,9.752874,-0.0010659588,-5.2668015E-4,0.006815091,-0.027320021763443947,0.0032144361175596714,0.1694067120552063,1017.55566,
2021.02.11 12:40:01,50.0,16.0,-4.465683,21.200083,-18.640253,0.047864635,0.21432827,9.755629,0.0018264409,-4.462942E-4,-0.012937473,-0.021965907886624336,-0.004906321410089731,0.199762225151062,1017.5562,
2021.02.11 12:40:01,50.0,16.0,-4.0267715,21.451666,-17.923704,-0.20003729,0.3129468,9.78755,0.0057075615,0.00554203,0.0052932887,-0.03195640817284584,0.020435089245438576,0.19696079194545746,1017.5562,
2021.02.11 12:40:01,50.0,16.0,-3.4359589,20.808243,-17.857286,-0.043821584,0.2011003,9.729098,0.0030486109,0.004833532,-0.006799939,-0.020666832104325294,0.00450414652004838,0.16457903385162354,1017.5563,
2021.02.11 12:40:01,50.0,16.0,-3.8225937,20.57095,-17.4653,-0.13700621,0.331866,9.78271,0.0013027296,0.00972612,-7.2440354E-4,-0.03390740230679512,0.01400401908904314,0.18997067213058472,1017.55634,
2021.02.11 12:40:01,50.0,16.0,-3.3819427,21.278837,-18.148813,0.027516091,0.16269822,9.726182,0.006739597,0.01405037,0.012086206,-0.016726234927773476,-0.0028290667105466127,0.15313148498535156,1017.55634,
2021.02.11 12:40:01,50.0,16.0,-4.6632843,20.327654,-18.142569,-0.122965075,0.3221239,9.7946415,-0.0054297494,0.015163798,-0.019012883,-0.03287332504987717,0.012553662061691284,0.229750394821167,1017.55634,
2021.02.11 12:40:01,50.0,16.0,-5.083969,20.547798,-17.666307,-0.06794528,0.23785174,9.776643,0.011945957,0.012936572,-0.002780876,-0.02432318404316902,0.006949643604457378,0.24336197972297668,1017.55634,
2021.02.11 12:40:01,50.0,16.0,-3.5775452,21.035778,-18.394194,-0.19093984,0.28605926,9.74756,0.01976933,0.01850161,-0.009085294,-0.029332714155316353,0.019585972651839256,0.18058817088603973,1017.5564,
2021.02.11 12:40:01,50.0,16.0,-3.293068,20.941763,-18.746336,-0.05729351,0.25836387,9.786774,0.0072568264,0.01473299,0.019270912,-0.026392709463834763,0.005854110699146986,0.1574796438217163,1017.5565,
2021.02.11 12:40:02,50.0,16.0,-4.476303,21.900974,-18.33925,-0.13932495,0.3146843,9.768624,0.061934896,-9.2547433E-4,0.010655903,-0.03219936788082123,0.014261527918279171,0.2077173888683319,1017.55676,
2021.02.11 12:40:02,50.0,16.0,-3.431778,21.330929,-18.63585,-0.1820911,0.46038494,9.767556,0.193619,-0.089449964,0.014390889,-0.04709106683731079,0.01864028163254261,0.16872774064540863,1017.55707,
2021.02.11 12:40:02,50.0,16.0,-4.2449646,20.995968,-19.052416,-0.05411161,0.5013534,9.546246,0.16699266,-0.08835224,0.02418498,-0.05246933549642563,0.005668304860591888,0.19563908874988556,1017.55707,
2021.02.11 12:40:02,50.0,16.0,-3.8787231,20.587667,-19.486818,0.07060159,0.52632767,9.849056,0.079156175,-0.05463353,0.0069268104,-0.053387247025966644,-0.007168238516896963,0.17140333354473114,1017.55707,
2021.02.11 12:40:02,50.0,16.0,-4.5595245,19.757141,-18.464865,0.04802945,0.68720436,9.508945,0.06463161,-0.044110227,6.0768635E-4,-0.07214290648698807,-0.005050932057201862,0.20918315649032593,1017.5571,
2021.02.11 12:40:02,50.0,16.0,-4.6992874,19.36036,-18.650675,0.20895946,0.6219153,10.111045,0.033309583,-0.052997533,0.030239277,-0.06141803413629532,-0.020663514733314514,0.20761482417583466,1017.5572,
