Time,X-cord,Y-cord,Mag_x,Mag_y,Mag_z,Acc_x,Acc_y,Acc_z,Gyro_x,Gyro_y,Gyro_z,Orn_x,Orn_y,Orn_z,Pressure,
2021.02.11 12:40:53,48.0,19.0,12.023994,-21.50917,-13.997213,-0.2516616,0.49219283,10.1922,0.1098542,0.07022786,-0.099239245,-0.04823896288871765,0.024686573073267937,-2.6300225257873535,1017.67206,
2021.02.11 12:40:53,48.0,19.0,13.932068,-21.572296,-13.61088,-0.46539947,0.9277833,9.409045,-0.027899269,0.08180773,0.006311308,-0.09816849231719971,0.04942270740866661,-2.5583107471466064,1017.67206,
2021.02.11 12:40:54,48.0,19.0,12.05143,-21.623692,-13.605631,-0.11093029,0.16929072,9.843047,0.06185458,0.049588237,0.016972028,-0.017196230590343475,0.011269436217844486,-2.6338791847229004,1017.6736,
2021.02.11 12:40:54,48.0,19.0,12.0082855,-21.27415,-13.616102,-0.34819674,0.2754242,9.735074,0.003652448,0.079499066,-0.06440425,-0.028266340494155884,0.03575200214982033,-2.6374261379241943,1017.6736,
2021.02.11 12:40:54,48.0,19.0,12.578346,-21.091492,-12.384047,0.003956119,0.42821,9.546152,0.047891486,0.042723585,-0.021472579,-0.04482676833868027,-4.144202684983611E-4,-2.5914061069488525,1017.6728,
2021.02.11 12:40:54,48.0,19.0,11.003006,-21.009209,-12.367617,0.055605914,0.48213387,9.416776,-0.04868373,-0.031206422,-0.022856569,-0.05115390941500664,-0.005904915742576122,-2.643216609954834,1017.67206,
2021.02.11 12:40:54,48.0,19.0,12.061783,-21.349648,-14.150976,0.022872405,0.39395407,10.373562,-0.13020755,-0.016807023,-0.03258638,-0.037958405911922455,-0.0022048712708055973,-2.614931583404541,1017.67206,
2021.02.11 12:40:54,48.0,19.0,11.462135,-21.232834,-13.183809,-0.16486894,0.24948364,9.282975,0.082245685,-0.029754067,-0.08091667,-0.02686469629406929,0.017758488655090332,-2.6479902267456055,1017.67206,
2021.02.11 12:40:54,48.0,19.0,11.961876,-22.462399,-12.842073,-0.42575875,0.54448694,9.656312,-0.053022448,0.046231456,-0.072606966,-0.05627243220806122,0.04406270012259483,-2.6579689979553223,1017.67175,
2021.02.11 12:40:54,48.0,19.0,12.27594,-21.193836,-14.026972,-0.40331426,0.54454255,11.059852,-0.12447987,0.112178326,9.986025E-4,-0.04916362091898918,0.03645036369562149,-2.61999249458313,1017.67175,
2021.02.11 12:40:54,48.0,19.0,13.869629,-22.282028,-12.961775,0.14319344,0.31534314,8.0569105,0.27831087,-0.180795,0.052970894,-0.039113324135541916,-0.017770877107977867,-2.5668771266937256,1017.67175,
2021.02.11 12:40:54,48.0,19.0,11.602394,-21.493977,-13.769457,0.099529944,0.0035733972,10.063407,-0.19779293,0.04007133,0.0697274,-3.550708061084151E-4,-0.009889960289001465,-2.641648530960083,1017.6715,
2021.02.11 12:40:54,48.0,19.0,13.570679,-21.624298,-13.565748,-0.405648,0.47797188,9.616817,-0.033853568,-0.09277715,-0.053830866,-0.04961675778031349,0.04215611517429352,-2.585536241531372,1017.6715,
2021.02.11 12:40:54,48.0,19.0,12.132896,-20.6431,-13.870119,-0.4162911,0.71606714,9.823911,-0.1249646,0.0017704876,-0.014448367,-0.07269654422998428,0.042349956929683685,-2.6084299087524414,1017.6707,
2021.02.11 12:40:54,48.0,19.0,11.630035,-20.891518,-13.621691,-0.3766272,0.5660882,10.249299,-0.040423714,0.0022525117,0.01689814,-0.05513869225978851,0.03673010319471359,-2.6359002590179443,1017.6707,
2021.02.11 12:40:54,48.0,19.0,12.102516,-20.723022,-14.549181,-0.20414574,0.1829433,9.586263,0.060068928,-0.027231079,0.08145685,-0.019077260047197342,0.021292436867952347,-2.6183321475982666,1017.6705,
2021.02.11 12:40:54,48.0,19.0,12.109077,-21.179558,-13.921934,-0.16367362,0.14089444,9.428945,-0.11496505,0.033551916,-0.0024566543,-0.014939396642148495,0.01735689491033554,-2.626591682434082,1017.67,
2021.02.11 12:40:55,48.0,19.0,11.693832,-21.32022,-13.869665,-0.20379241,0.25965762,10.082595,0.00657919,-0.0038030017,-0.027444774,-0.02574210800230503,0.020209545269608498,-2.6428418159484863,1017.66925,
2021.02.11 12:40:55,48.0,19.0,12.170143,-19.782852,-13.62858,-0.33525956,0.4495099,9.7922325,-0.00898839,0.014577446,0.038504373,-0.04584571346640587,0.034223929047584534,-2.592548370361328,1017.6691,
2021.02.11 12:40:55,48.0,19.0,12.193275,-20.522232,-13.604929,-0.15832953,0.28250805,9.824561,0.037701137,-0.013427362,0.07471067,-0.028743630275130272,0.016114288941025734,-2.6047563552856445,1017.66907,
2021.02.11 12:40:55,48.0,19.0,11.018547,-20.49303,-13.303431,-0.12256049,0.12005797,9.615845,0.03922214,-0.005473552,0.06047371,-0.012483768165111542,0.012744992040097713,-2.651296615600586,1017.66907,
2021.02.11 12:40:55,48.0,19.0,12.139748,-20.648159,-13.16741,-0.105770014,0.09210816,9.562789,-0.0042836345,0.0042838575,0.025338316,-0.009631048887968063,0.011060130782425404,-2.61264967918396,1017.6685,
2021.02.11 12:40:55,48.0,19.0,12.194366,-21.52351,-13.888754,-0.2357381,0.24787813,10.015823,-0.053191718,0.018462412,0.00840671,-0.02473675087094307,0.023532221093773842,-2.630708694458008,1017.6684,
2021.02.11 12:40:55,48.0,19.0,11.531616,-21.209007,-13.713236,-0.21389802,0.20777355,9.733077,0.03040876,0.0031057582,0.013117187,-0.02133876644074917,0.021972864866256714,-2.648752212524414,1017.6684,
2021.02.11 12:40:55,48.0,19.0,12.168938,-21.138615,-13.362619,-0.24105184,0.30672142,9.83031,0.08209682,0.0047245026,0.016012413,-0.031182117760181427,0.02451637201011181,-2.6221671104431152,1017.6684,
2021.02.11 12:40:55,48.0,19.0,11.394997,-20.67202,-14.336962,-0.3490219,0.41942236,9.522426,0.087323576,-0.040972754,0.11887041,-0.04398780316114426,0.03663622587919235,-2.6441304683685303,1017.6685,
2021.02.11 12:40:55,48.0,19.0,11.658813,-20.652687,-13.280931,0.12075964,0.124455355,9.79617,-0.011163946,-0.047385298,0.14290784,-0.01270284317433834,-0.01232660561800003,-2.618173360824585,1017.6685,
2021.02.11 12:40:55,48.0,19.0,11.791405,-21.094006,-13.58827,-0.0071076355,0.31320226,9.388904,0.009323055,-0.008935108,0.044100873,-0.03334639593958855,7.570249144919217E-4,-2.622697114944458,1017.6685,
2021.02.11 12:40:55,48.0,19.0,11.472412,-20.773777,-12.787813,-0.060388815,0.30545315,9.934258,0.03489556,-0.038978472,-0.012298571,-0.030737202614545822,0.006078769918531179,-2.6315557956695557,1017.6685,
2021.02.11 12:40:55,48.0,19.0,10.753929,-21.481033,-12.877092,-0.4038429,0.44095054,9.652293,-0.08291199,-0.08191748,0.09006825,-0.0456119142472744,0.04181467741727829,-2.686403751373291,1017.6689,
2021.02.11 12:40:56,48.0,19.0,11.2914505,-21.901463,-14.107531,0.33724943,0.22381754,10.115801,-0.14843029,0.011868782,0.042558108,-0.02210964821279049,-0.03332653269171715,-2.643052816390991,1017.6689,
2021.02.11 12:40:56,48.0,19.0,10.230309,-21.410275,-13.080633,-0.14989074,0.3402528,9.7758875,-2.0855153E-4,-0.0063817254,-0.07070532,-0.03478718176484108,0.015331496484577656,-2.694895029067993,1017.6689,
2021.02.11 12:40:56,48.0,19.0,10.299965,-20.96199,-14.549376,-0.13846241,0.08989629,9.67777,-0.0017272038,9.194099E-4,-0.015185464,-0.009287728928029537,0.014306288212537766,-2.690373182296753,1017.6689,
2021.02.11 12:40:56,48.0,19.0,12.24057,-21.98442,-13.777132,0.039953895,0.18991923,9.646815,-0.032558706,-0.004330177,-0.017628249,-0.019684534519910812,-0.004141643177717924,-2.626210927963257,1017.6689,
2021.02.11 12:40:56,48.0,19.0,10.673462,-20.755886,-13.946863,0.06258405,0.09519728,9.939891,-0.023877697,0.056770116,-0.05733401,-0.009576814249157906,-0.006296168547123671,-2.6606388092041016,1017.6689,
2021.02.11 12:40:56,48.0,19.0,11.337379,-21.25,-13.848833,-0.04622898,0.13400555,9.751197,0.008564466,0.011078541,-0.097699106,-0.013741453178226948,0.0047408160753548145,-2.6501126289367676,1017.6685,
2021.02.11 12:40:56,48.0,19.0,12.107491,-20.729382,-14.040903,-0.27521288,0.29742083,9.720483,0.014006469,0.022131188,-0.101444684,-0.030575545504689217,0.028305115178227425,-2.6181228160858154,1017.6685,
2021.02.11 12:40:56,48.0,19.0,11.269043,-19.514038,-12.987562,-0.1690485,0.24288483,9.864676,-0.028318342,-0.0040520453,-0.04282744,-0.024613086134195328,0.017135072499513626,-2.6192030906677246,1017.6684,
2021.02.11 12:40:56,48.0,19.0,11.164917,-20.148819,-13.649504,-0.12816869,0.29966474,9.755256,0.0017286758,-0.0077144084,-0.03611396,-0.030705982819199562,0.013137669302523136,-2.633277416229248,1017.6684,
2021.02.11 12:40:56,48.0,19.0,10.779976,-19.762112,-13.101545,-0.32266507,0.36768594,9.808436,0.01863909,0.021579009,-0.031048914,-0.03744892403483391,0.03288482874631882,-2.648423433303833,1017.6683,
2021.02.11 12:40:56,48.0,19.0,11.739571,-21.368626,-14.080114,-0.23318726,0.1711821,9.74047,0.016854228,0.024556277,0.035921272,-0.017567474395036697,0.02393546886742115,-2.6465275287628174,1017.66797,
2021.02.11 12:40:56,48.0,19.0,11.902763,-20.303043,-14.372938,-0.086885504,0.21176444,9.658302,0.011483332,0.01055669,0.05268217,-0.02192123979330063,0.008995696902275085,-2.609140634536743,1017.66797,
2021.02.11 12:40:56,48.0,19.0,10.120956,-20.657757,-14.012278,-0.102446385,0.13604,9.6568,-0.019534865,0.0067159943,0.040075418,-0.014085758477449417,0.010608331300318241,-2.688033103942871,1017.66785,
2021.02.11 12:40:56,48.0,19.0,12.372917,-20.084923,-14.744047,-0.21941896,0.17419648,9.916279,-0.024883993,0.06179414,-0.003669738,-0.01756061613559723,0.022123536095023155,-2.59552264213562,1017.66724,
2021.02.11 12:40:57,48.0,19.0,11.455238,-20.459923,-13.988596,-0.06671087,0.07045332,9.889564,0.006435639,0.017677467,0.026439669,-0.007123724557459354,0.006745480466634035,-2.6326212882995605,1017.66724,
2021.02.11 12:40:57,48.0,19.0,12.129379,-20.715576,-13.665804,-0.16899127,0.20448172,9.673383,0.023947159,-7.98512E-4,0.0047439905,-0.021132223308086395,0.017467940226197243,-2.614305257797241,1017.66724,
2021.02.11 12:40:57,48.0,19.0,11.587379,-20.728043,-13.001146,-0.08871109,0.149929,9.776172,-0.022219108,0.0073123886,-0.0058150054,-0.01533433422446251,0.00907396711409092,-2.6320271492004395,1017.66724,
2021.02.11 12:40:57,48.0,19.0,12.616646,-21.71307,-13.680342,-0.09694451,0.18962027,9.819871,0.0043864115,-0.0068175886,-0.03925982,-0.019306514412164688,0.009871959686279297,-2.6144638061523438,1017.66724,
2021.02.11 12:40:57,48.0,19.0,12.371796,-21.106552,-13.566839,-0.16992308,0.22228706,9.710813,0.0110664135,-0.003887246,-0.05458625,-0.022883176803588867,0.01749655418097973,-2.6132471561431885,1017.66724,
2021.02.11 12:40:57,48.0,19.0,11.353462,-19.725845,-13.393259,-0.2676445,0.29025918,9.769073,-0.019563394,0.0044787237,-0.05646544,-0.02969217859208584,0.027390271425247192,-2.6244843006134033,1017.66724,
2021.02.11 12:40:57,48.0,19.0,12.759422,-20.86745,-13.203791,-0.14478616,0.12813842,9.855605,-0.001320648,-0.0023689037,-0.031083373,-0.012999443337321281,0.01468968577682972,-2.595891237258911,1017.66724,
2021.02.11 12:40:57,48.0,19.0,12.267563,-21.084778,-13.955751,-0.2073261,0.1352479,9.651122,0.025071723,-0.011081747,-0.045486655,-0.014009548351168633,0.021478768438100815,-2.6213085651397705,1017.66724,
2021.02.11 12:40:57,48.0,19.0,12.381981,-20.314003,-14.352499,-0.2898073,0.22259171,9.810105,-0.0041520386,0.0047986573,-0.04202379,-0.022676261141896248,0.02953312173485756,-2.6023647785186768,1017.66724,
2021.02.11 12:40:57,48.0,19.0,11.904907,-20.210693,-14.55831,-0.23973759,0.1422071,9.731552,6.590537E-4,-0.005643394,-0.012085469,-0.014607521705329418,0.024630101397633553,-2.6179726123809814,1017.66724,
2021.02.11 12:40:57,48.0,19.0,13.295563,-19.7463,-13.685503,-0.32384035,0.2621552,9.760929,0.013451066,-0.0102606155,-0.006316079,-0.026836395263671875,0.033165041357278824,-2.556184768676758,1017.66724,
2021.02.11 12:40:57,48.0,19.0,12.396759,-20.36924,-13.695005,-0.21914022,0.18846822,9.79629,0.01100407,-0.0033088685,0.023684032,-0.01923154853284359,0.022365985438227654,-2.6001029014587402,1017.66724,
2021.02.11 12:40:57,48.0,19.0,13.4249115,-20.253998,-14.250399,-0.23894982,0.23591472,9.720757,0.020531764,-0.008326185,0.022185216,-0.024257084354758263,0.024576453492045403,-2.5603129863739014,1017.66724,
2021.02.11 12:40:57,48.0,19.0,11.806534,-19.300041,-13.0021305,-0.24514265,0.25348696,9.78456,0.010743197,0.0017023502,0.027827213,-0.025892917066812515,0.025048788636922836,-2.597010850906372,1017.66724,
2021.02.11 12:40:58,48.0,19.0,12.452568,-19.86314,-13.917616,-0.16525276,0.23075347,9.775691,0.01107895,0.005770746,0.036018036,-0.023597072809934616,0.016902849078178406,-2.582519769668579,1017.6673,
2021.02.11 12:40:58,48.0,19.0,11.474785,-20.531998,-13.924982,-0.18208742,0.21136825,9.735177,0.014704615,0.0013839187,0.01987577,-0.021704597398638725,0.018701886758208275,-2.635293960571289,1017.6673,
2021.02.11 12:40:58,48.0,19.0,11.7148285,-19.529911,-14.071249,-0.13633509,0.24049912,9.691703,-0.017713396,5.8129337E-4,0.0021732464,-0.024807404726743698,0.014066269621253014,-2.6006648540496826,1017.66797,
2021.02.11 12:40:58,48.0,19.0,11.064323,-20.58329,-14.00548,-0.15671964,0.22409527,9.809196,0.0023095072,-0.0036270097,-0.006587448,-0.022838540375232697,0.01597544737160206,-2.650214195251465,1017.668,
2021.02.11 12:40:58,48.0,19.0,11.253937,-20.715153,-13.937639,-0.16708489,0.22568516,9.728322,-0.011892712,-0.0109514175,-0.0066321515,-0.023191196843981743,0.017173409461975098,-2.6462056636810303,1017.668,
2021.02.11 12:40:58,48.0,19.0,11.361931,-20.109024,-14.599363,-0.1617154,0.21859942,9.794151,-0.009142961,-0.0037579187,-0.014181012,-0.02231263928115368,0.016509925946593285,-2.6293416023254395,1017.668,
2021.02.11 12:40:58,48.0,19.0,11.572922,-20.240135,-13.425547,-0.19613467,0.21668644,9.786699,-0.00474076,-0.0036584241,-0.018335234,-0.02213285118341446,0.020038260146975517,-2.625807046890259,1017.668,
2021.02.11 12:40:58,48.0,19.0,11.458176,-19.7809,-13.1672,-0.1990209,0.21017854,9.714103,-0.009832639,-0.009028,-0.009065464,-0.021628519520163536,0.020484967157244682,-2.620478868484497,1017.6684,
2021.02.11 12:40:58,48.0,19.0,11.401581,-20.113071,-14.332102,-0.17622554,0.20829713,9.791004,-0.018947223,-0.006070949,-0.0047820844,-0.021267687901854515,0.01799677684903145,-2.6290249824523926,1017.6685,
2021.02.11 12:40:58,48.0,19.0,13.01709,-20.311836,-14.997179,-0.12974839,0.21911018,9.818559,0.010907868,-0.0049445587,-0.009424607,-0.022310269996523857,0.013213837519288063,-2.570930242538452,1017.67065,
2021.02.11 12:40:58,48.0,19.0,12.091675,-20.16119,-13.654779,-0.12516868,0.14489315,9.711335,-0.0074350364,-0.0058144243,-0.0099761095,-0.01491765771061182,0.012888212688267231,-2.6032793521881104,1017.67065,
2021.02.11 12:40:58,48.0,19.0,11.796974,-19.706291,-13.928633,-0.105486654,0.16395052,9.74783,0.004995573,-0.0028912504,-8.691684E-5,-0.01681661047041416,0.010821129195392132,-2.6024858951568604,1017.67065,
2021.02.11 12:40:58,48.0,19.0,11.877739,-21.149372,-13.211828,-0.1525963,0.1630638,9.773623,-0.0029625157,0.012640778,-0.019563993,-0.016680486500263214,0.015611804090440273,-2.632810115814209,1017.67065,
2021.02.11 12:40:59,48.0,19.0,12.246918,-20.253845,-14.164995,-0.21908194,0.21773629,9.688533,-0.0054147732,0.006038699,-0.009121632,-0.0224640853703022,0.022608647122979164,-2.6023213863372803,1017.67065,
2021.02.11 12:40:59,48.0,19.0,12.534622,-20.037014,-13.797014,-0.16088605,0.17085724,9.816491,-0.016217919,0.014371431,0.003339881,-0.01740102842450142,0.016387898474931717,-2.585254192352295,1017.67065,
2021.02.11 12:40:59,48.0,19.0,11.003059,-20.114918,-12.999956,-0.18502195,0.18226743,9.7775545,-0.0011825394,0.017608812,-0.0031840065,-0.01863591931760311,0.01892087236046791,-2.6453745365142822,1017.67065,
2021.02.11 12:40:59,48.0,19.0,11.322838,-20.346462,-13.999868,-0.17318462,0.15328671,9.706985,-0.0076567507,0.001551508,0.005613201,-0.015787556767463684,0.0178393442183733,-2.6385421752929688,1017.67065,
2021.02.11 12:40:59,48.0,19.0,12.852547,-19.365341,-15.305349,-0.18732251,0.17023075,9.768647,-0.018525695,0.0032219938,0.0026108301,-0.017421269789338112,0.01917354203760624,-2.559814691543579,1017.67065,
2021.02.11 12:40:59,48.0,19.0,12.387276,-21.072311,-13.57995,-0.18722422,0.21142268,9.828776,-0.020014696,4.1392812E-4,0.00928285,-0.02150336466729641,0.019046274945139885,-2.613147735595703,1017.67065,
2021.02.11 12:40:59,48.0,19.0,12.109993,-20.431046,-14.012461,-0.12003034,0.09018991,9.738606,0.0039223474,-0.004251053,0.012544677,-0.009260101243853569,0.01232458371669054,-2.6100234985351562,1017.67065,
2021.02.11 12:40:59,48.0,19.0,10.585892,-21.065865,-13.211779,-0.21309483,0.20162801,9.773358,-0.0058856863,8.569007E-4,-0.00304802,-0.02062254585325718,0.021800190210342407,-2.681675672531128,1017.67065,
2021.02.11 12:40:59,48.0,19.0,11.654259,-20.851639,-12.887224,-0.1693231,0.15598023,9.765857,0.0035844806,-0.0015869171,0.009419771,-0.015968238934874535,0.017336538061499596,-2.6358861923217773,1017.67065,
2021.02.11 12:40:59,48.0,19.0,11.571938,-20.235832,-13.757841,-0.13426231,0.14732204,9.761646,-0.0011006743,7.9739874E-4,0.0024401667,-0.015089352615177631,0.013753196224570274,-2.624723434448242,1017.67065,
2021.02.11 12:40:59,48.0,19.0,12.817314,-19.621765,-14.244593,-0.19149263,0.15196282,9.801506,0.0107993,0.0039995853,-0.004598009,-0.015499827452003956,0.019534576684236526,-2.567758560180664,1017.67065,
2021.02.11 12:40:59,48.0,19.0,12.532364,-20.9953,-12.823763,-0.20675887,0.19646055,9.802734,0.0018242581,0.0123083005,-0.008008594,-0.020034266635775566,0.02108883298933506,-2.6075186729431152,1017.67065,
2021.02.11 12:40:59,48.0,19.0,11.677643,-20.346886,-13.267794,-0.17898129,0.13108745,9.775783,0.017454207,0.015370785,-1.2337207E-4,-0.013406357727944851,0.01830659620463848,-2.625805616378784,1017.67065,
2021.02.11 12:40:59,48.0,19.0,11.785858,-20.524414,-13.130674,-0.20523977,0.09556064,9.716243,0.011411584,0.006078927,-0.012401443,-0.009832633659243584,0.021120227873325348,-2.627882242202759,1017.67065,
2021.02.11 12:41:00,48.0,19.0,11.909004,-20.370514,-13.464819,-0.320921,0.20936131,9.750295,0.0058414536,0.0012732614,-0.003414624,-0.02145739085972309,0.032902102917432785,-2.6227545738220215,1017.67065,
2021.02.11 12:41:00,48.0,19.0,11.458649,-21.201607,-14.025236,-0.19119203,0.15371023,9.809316,-0.011035129,0.0027842405,0.022664411,-0.015665564686059952,0.019488396123051643,-2.651782274246216,1017.67065,
2021.02.11 12:41:00,48.0,19.0,11.6790085,-21.023983,-12.7313175,-0.21772075,0.17100804,9.772338,0.0115490155,0.002359063,0.010987654,-0.01749306730926037,0.02227560617029667,-2.6403727531433105,1017.6703,
2021.02.11 12:41:00,48.0,19.0,12.587975,-21.229572,-13.733919,-0.21215522,0.18137038,9.715583,-0.008517824,-0.012895827,0.025233738,-0.018661370500922203,0.02183312363922596,-2.6115334033966064,1017.6701,
2021.02.11 12:41:00,48.0,19.0,12.344131,-20.627121,-13.184866,-0.18619746,0.18141341,9.754033,-5.3228578E-5,-0.0100586675,0.023966512,-0.018593279644846916,0.019086960703134537,-2.6060309410095215,1017.6701,
2021.02.11 12:41:00,48.0,19.0,12.026344,-19.575787,-13.987741,-0.1329835,0.15699153,9.819781,-0.009484671,-0.004324662,0.013442321,-0.015984443947672844,0.01354158204048872,-2.592569589614868,1017.66956,
2021.02.11 12:41:00,48.0,19.0,12.965637,-20.024654,-13.049208,-0.19532402,0.19286074,9.728332,0.012480166,-0.011906407,0.0041719163,-0.019818054512143135,0.020075157284736633,-2.5702502727508545,1017.66956,
2021.02.11 12:41:00,48.0,19.0,11.315048,-21.191422,-13.073927,-0.14733337,0.17970686,9.737931,-0.0067901737,-0.0089575,0.0102018025,-0.018450111150741577,0.01512868795543909,-2.6536407470703125,1017.66956,
2021.02.11 12:41:00,48.0,19.0,11.271072,-21.43404,-14.457663,-0.16209142,0.17707504,9.784203,-0.0010921643,-0.009429303,-0.004164288,-0.018093597143888474,0.01656513102352619,-2.661184072494507,1017.66956,
2021.02.11 12:41:00,48.0,19.0,11.485031,-19.84533,-13.79291,-0.20445783,0.19216478,9.774425,0.005698991,-0.0017879773,-0.0018299161,-0.01965312846004963,0.020914584398269653,-2.6219217777252197,1017.66956,
2021.02.11 12:41:00,48.0,19.0,11.162758,-20.421768,-12.600584,-0.15813807,0.16758667,9.741489,0.006795938,-0.002256126,0.007976923,-0.017199430614709854,0.01623203232884407,-2.6445703506469727,1017.66956,
2021.02.11 12:41:00,48.0,19.0,11.545639,-21.043,-14.507265,-0.1429935,0.17696387,9.780816,-0.0014589354,0.009752794,0.0019282196,-0.01808904856443405,0.014618750661611557,-2.642209053039551,1017.66956,
2021.02.11 12:41:00,48.0,19.0,12.296074,-19.563984,-13.896879,-0.19013257,0.20138343,9.743545,0.0066110212,0.0038677612,0.0026392955,-0.02066151797771454,0.01951122097671032,-2.5837314128875732,1017.66956,
2021.02.11 12:41:00,48.0,19.0,11.029419,-20.962215,-13.44002,-0.15548293,0.15882185,9.776089,-0.002524199,-4.6806352E-4,0.008806745,-0.016242466866970062,0.01590307056903839,-2.660921812057495,1017.66956,
2021.02.11 12:41:01,48.0,19.0,11.577827,-19.588814,-14.024405,-0.10636836,0.1708789,9.706042,-0.0076166126,-0.015963545,0.010176968,-0.01760254055261612,0.010958544909954071,-2.6079914569854736,1017.66956,
2021.02.11 12:41:01,48.0,19.0,12.573326,-20.460201,-13.015917,-0.22502725,0.23828061,9.912045,-0.0043005017,-0.014248637,0.008001868,-0.024028683081269264,0.022698504850268364,-2.5941262245178223,1017.66956,
2021.02.11 12:41:01,48.0,19.0,11.420456,-20.118519,-13.941355,-0.26937258,0.22500448,9.732295,0.05824929,-0.05293563,0.03422912,-0.023106401786208153,0.027671152725815773,-2.632976531982422,1017.66956,
2021.02.11 12:41:01,48.0,19.0,12.381447,-20.44329,-14.955946,-0.045273546,0.16508132,9.769713,0.057341162,-0.0784542,0.029155042,-0.016895465552806854,0.004634038079530001,-2.593921184539795,1017.66956,
2021.02.11 12:41:01,48.0,19.0,10.367073,-22.014156,-12.725168,0.024709454,0.26315138,9.816109,0.056463238,-0.12346542,-0.023138007,-0.026801612228155136,-0.002517229877412319,-2.69409441947937,1017.66956,
2021.02.11 12:41:01,48.0,19.0,12.09404,-20.802845,-14.894648,0.12490624,0.4018958,9.710606,0.045158897,-0.115016535,0.03497714,-0.0413602776825428,-0.012862159870564938,-2.594667434692383,1017.66956,
2021.02.11 12:41:01,48.0,19.0,12.383598,-21.1105,-14.388796,0.11793912,0.3551804,9.853147,0.09243262,-0.23138317,0.022102552,-0.036029230803251266,-0.011969119310379028,-2.5938963890075684,1017.66956,
2021.02.11 12:41:01,48.0,19.0,10.222458,-20.657932,-13.918905,0.35817376,0.3880569,9.462438,-0.03341906,-0.02547148,0.032285687,-0.0409579798579216,-0.03783410042524338,-2.650527238845825,1017.66956,
