Time,X-cord,Y-cord,Mag_x,Mag_y,Mag_z,Acc_x,Acc_y,Acc_z,Gyro_x,Gyro_y,Gyro_z,Orn_x,Orn_y,Orn_z,Pressure,
2021.02.11 12:36:45,48.0,21.0,21.692123,-28.237797,-2.3523884,-0.03374606,0.42181227,10.060126,0.0039300523,5.726188E-4,-0.010749373,-0.04190434142947197,0.0033544243779033422,-2.4845588207244873,1017.3109,
2021.02.11 12:36:45,48.0,21.0,22.916656,-28.368893,-2.2298775,-0.24766542,0.38650444,9.466152,-0.036195498,0.059333805,3.703547E-5,-0.04079354554414749,0.02615729346871376,-2.461120843887329,1017.3109,
2021.02.11 12:36:45,48.0,21.0,23.749733,-27.830914,-1.9927349,-0.24878688,0.4269198,9.946641,0.032809235,0.009449942,0.010163191,-0.04288127273321152,0.025006935000419617,-2.4339170455932617,1017.3113,
2021.02.11 12:36:45,48.0,21.0,23.539406,-28.588673,-2.2572517,-0.07459151,0.34179083,9.824206,0.03555826,8.128823E-4,-0.024799505,-0.03477565199136734,0.007592478767037392,-2.45137357711792,1017.3113,
2021.02.11 12:36:45,48.0,21.0,22.403877,-28.78012,-1.7280464,-0.23730831,0.43585244,9.890202,-0.011519844,0.019085784,-0.024543736,-0.044027965515851974,0.023989681154489517,-2.4790146350860596,1017.3113,
2021.02.11 12:36:45,48.0,21.0,25.282051,-27.826206,-2.099371,-0.21642274,0.44927666,9.695934,0.01990601,-0.0055453163,-0.0149023915,-0.04629196971654892,0.022317273542284966,-2.40236496925354,1017.3113,
2021.02.11 12:36:45,48.0,21.0,23.480843,-27.233334,-2.5505714,-0.20882301,0.40758133,9.733995,0.002712945,0.0017535733,-0.013426804,-0.04183788597583771,0.02144967019557953,-2.428560256958008,1017.3113,
2021.02.11 12:36:45,48.0,21.0,24.526817,-27.556145,-1.6872482,-0.22071446,0.36836305,9.740269,-0.015983278,0.008651139,-0.018245019,-0.03779086470603943,0.022656120359897614,-2.4133095741271973,1017.3109,
2021.02.11 12:36:45,48.0,21.0,24.12886,-27.579346,-1.0216408,-0.25665852,0.42160332,9.848855,-0.02020279,0.0052317968,-0.020299727,-0.04276672378182411,0.026053836569190025,-2.4218173027038574,1017.3109,
2021.02.11 12:36:45,48.0,21.0,22.982117,-28.383614,-1.3517971,-0.17956167,0.40458813,9.780023,0.020716138,-0.01997475,-0.014114209,-0.041338302195072174,0.018357984721660614,-2.4598941802978516,1017.3109,
2021.02.11 12:36:45,48.0,21.0,23.034004,-27.893372,-2.2014694,-0.23660772,0.38243905,9.741932,0.014724238,-0.016384266,-0.014028239,-0.03922530263662338,0.024282783269882202,-2.4503214359283447,1017.3109,
2021.02.11 12:36:46,48.0,21.0,23.651138,-27.258194,-2.877779,-0.13816907,0.4016862,9.755446,0.012703335,-0.021786213,-0.003273871,-0.041148215532302856,0.014162327162921429,-2.4250049591064453,1017.3109,
2021.02.11 12:36:46,48.0,21.0,23.818916,-28.108074,-2.3041286,-0.21913141,0.50625736,9.78791,0.00501429,-0.008642794,-0.010610436,-0.05166374519467354,0.02238422818481922,-2.4365601539611816,1017.3109,
2021.02.11 12:36:46,48.0,21.0,23.640121,-27.877567,-1.5983963,-0.09655567,0.43041858,9.778264,0.022599727,-0.0148934275,0.009067335,-0.04398735240101814,0.009874199517071247,-2.43670916557312,1017.3109,
2021.02.11 12:36:46,48.0,21.0,22.757652,-28.503551,-1.5882244,-0.16422544,0.4936737,9.748725,0.031509303,-0.004127908,0.004783386,-0.050589438527822495,0.0168442465364933,-2.4661266803741455,1017.3109,
2021.02.11 12:36:46,48.0,21.0,24.617989,-28.265408,-1.8399544,-0.20287985,0.51561254,9.83664,0.054161668,-4.3069292E-4,0.012954121,-0.05235850438475609,0.02062198892235756,-2.423086166381836,1017.3109,
2021.02.11 12:36:46,48.0,21.0,23.834938,-27.051311,-0.77557945,-0.13227834,0.48922333,9.710039,0.009115788,-0.00642968,0.013451895,-0.050336018204689026,0.013621999882161617,-2.4179372787475586,1017.3109,
2021.02.11 12:36:46,48.0,21.0,23.785698,-28.433968,-1.7934628,-0.08540859,0.52666825,9.779369,0.011941807,-0.0037870503,0.007714678,-0.05380101129412651,0.008733326569199562,-2.442734956741333,1017.31116,
2021.02.11 12:36:46,48.0,21.0,23.75692,-26.929409,-2.184248,-0.17642182,0.5730029,9.666905,0.01497742,-0.005124214,-0.004849842,-0.059195589274168015,0.01824805699288845,-2.4158825874328613,1017.31146,
2021.02.11 12:36:46,48.0,21.0,24.8582,-27.347649,-1.0942993,-0.041723352,0.51134986,9.780524,-0.01145306,-0.010148065,0.007460029,-0.05223442614078522,0.004265937022864819,-2.402118444442749,1017.3118,
2021.02.11 12:36:46,48.0,21.0,24.034737,-26.865887,-1.2007236,-0.16515492,0.5610068,9.7585,0.009511344,-0.004290833,-0.023033448,-0.057417627424001694,0.016922594979405403,-2.4097180366516113,1017.31323,
2021.02.11 12:36:46,48.0,21.0,24.798088,-26.590641,-0.7393799,-0.12897736,0.5357289,9.789397,-0.008749323,-0.0035191337,-0.0033804106,-0.054666150361299515,0.013174447230994701,-2.389460563659668,1017.31323,
2021.02.11 12:36:46,48.0,21.0,23.674171,-27.0849,-1.335968,-0.27416134,0.57592624,9.639426,0.027351119,-0.0063504446,-0.0026532174,-0.0596519336104393,0.02843400090932846,-2.4212024211883545,1017.3136,
2021.02.11 12:36:46,48.0,21.0,24.73413,-27.670097,-1.8538895,-0.19456398,0.60121626,9.788661,-0.028082097,-0.032091163,0.06353617,-0.06133052334189415,0.0198738481849432,-2.4094717502593994,1017.3141,
2021.02.11 12:36:47,48.0,21.0,24.52317,-27.231602,-1.0385323,0.042897176,0.4889662,9.800758,-0.0027299896,-0.021733519,0.05862865,-0.04984884336590767,-0.004376896191388369,-2.40692400932312,1017.3141,
2021.02.11 12:36:47,48.0,21.0,23.849052,-27.723003,-1.2693615,-0.12497776,0.53046244,9.688783,-0.0025789053,-0.018049616,0.012461946,-0.05469101294875145,0.012898506596684456,-2.429269313812256,1017.31415,
2021.02.11 12:36:47,48.0,21.0,23.76278,-28.180264,-1.8763428,-0.07612728,0.54014224,9.802293,-0.02315697,-0.012434755,0.025069771,-0.055046338587999344,0.007766116876155138,-2.4386146068573,1017.31433,
2021.02.11 12:36:47,48.0,21.0,23.769608,-27.969936,-1.8178711,-0.04808262,0.5804097,9.779204,-0.007693907,-0.010478273,0.013004287,-0.05928117036819458,0.004916783422231674,-2.4344918727874756,1017.3144,
2021.02.11 12:36:47,48.0,21.0,23.87645,-27.581234,-1.2516117,0.011317204,0.47469354,9.731278,1.5757186E-4,-0.01391574,0.0056380564,-0.04874151572585106,-0.001162971369922161,-2.4263765811920166,1017.3144,
2021.02.11 12:36:47,48.0,21.0,23.620316,-28.721226,-1.429657,-0.07854849,0.5336935,9.730271,-0.013169086,-0.0025712652,-0.020084552,-0.05479209125041962,0.008072414435446262,-2.4513399600982666,1017.3144,
2021.02.11 12:36:47,48.0,21.0,23.533936,-27.856117,-1.4763145,-0.089720644,0.49702105,9.757599,-0.009678852,0.0010467675,-0.014901203,-0.05089068412780762,0.0091946916654706,-2.4382402896881104,1017.3144,
2021.02.11 12:36:47,48.0,21.0,23.14524,-27.757439,-1.0092945,-0.15768068,0.5320842,9.744451,-0.009819366,0.0028214022,-0.014068252,-0.05454251915216446,0.01618017628788948,-2.444894552230835,1017.3144,
2021.02.11 12:36:47,48.0,21.0,24.752396,-28.52676,-2.904747,-0.045926977,0.42909798,9.742981,-5.6006596E-4,-0.0021221905,0.010321658,-0.044012825936079025,0.004713817499577999,-2.4244019985198975,1017.3144,
2021.02.11 12:36:47,48.0,21.0,23.958267,-28.07354,-2.3580475,-0.09905634,0.51245385,9.794202,-0.015300471,-0.01280475,-0.0014899571,-0.052271824330091476,0.0101134292781353,-2.4325640201568604,1017.3144,
2021.02.11 12:36:47,48.0,21.0,23.82698,-27.790592,-1.0792847,-0.06642758,0.45990583,9.76088,-0.004835524,-0.011285671,-0.0010814008,-0.04708134010434151,0.006805385462939739,-2.4314067363739014,1017.3144,
2021.02.11 12:36:47,48.0,21.0,23.549004,-28.751934,-2.1042366,-0.096604176,0.47748017,9.754205,0.0019078699,-0.010671441,-0.0019231862,-0.04890977591276169,0.009903525933623314,-2.4532649517059326,1017.31433,
2021.02.11 12:36:47,48.0,21.0,23.591545,-28.001736,-1.4000301,-0.09435964,0.40551743,9.686109,-0.005521105,-0.018682458,0.0077870865,-0.04183945432305336,0.009741440415382385,-2.4401416778564453,1017.31433,
2021.02.11 12:36:47,48.0,21.0,24.165756,-27.864853,-2.427456,0.0025430385,0.43867168,9.762074,-0.04906877,-0.023713589,0.016060429,-0.04490610584616661,-2.6050186716020107E-4,-2.424720287322998,1017.31433,
2021.02.11 12:36:47,48.0,21.0,23.041153,-26.92643,-1.8180218,-0.04067818,0.46473837,9.724069,-0.0037147128,-6.306927E-4,0.009152736,-0.047755829989910126,0.0041832225397229195,-2.431715965270996,1017.31415,
2021.02.11 12:36:48,48.0,21.0,23.700752,-27.936752,-2.4692173,-0.13129823,0.5076217,9.810515,0.016542366,-0.0019279346,0.04214916,-0.05169188976287842,0.013382619246840477,-2.4355647563934326,1017.3141,
2021.02.11 12:36:48,48.0,21.0,24.530563,-27.348469,-1.6564236,-0.01835988,0.4290875,9.83482,0.0076968647,0.016074874,0.03437112,-0.04360169544816017,0.0018668222473934293,-2.4086968898773193,1017.3141,
2021.02.11 12:36:48,48.0,21.0,23.118362,-27.599094,-0.8031883,0.008181701,0.4130868,9.850158,0.033148233,0.02719535,0.027733568,-0.0419125035405159,-8.306161034852266E-4,-2.443279266357422,1017.3141,
2021.02.11 12:36:48,48.0,21.0,24.265167,-27.158688,-1.8755589,-0.16655695,0.62371975,9.528091,0.061180227,0.014582553,0.002001239,-0.06535792350769043,0.017478840425610542,-2.4093270301818848,1017.3141,
2021.02.11 12:36:48,48.0,21.0,23.878082,-27.610054,-1.8674679,-0.037663337,0.45306277,9.877662,-0.02228029,0.026293129,0.04498847,-0.04583495110273361,0.0038129626773297787,-2.4265685081481934,1017.3141,
2021.02.11 12:36:48,48.0,21.0,23.646133,-28.460773,-1.1725998,-0.048539896,0.54446954,9.75432,0.017082104,0.007081123,0.020234607,-0.055759746581315994,0.004976204596459866,-2.446449041366577,1017.31415,
2021.02.11 12:36:48,48.0,21.0,24.275833,-28.729294,-0.94338226,-0.046786126,0.5387986,9.747275,-0.0033541014,-3.6960666E-4,0.014927038,-0.05522000417113304,0.004799881484359503,-2.4383559226989746,1017.31415,
2021.02.11 12:36:48,48.0,21.0,23.989586,-28.44165,-2.186123,-0.042771097,0.6035182,9.864037,-0.0019996157,0.0018277022,0.0015766686,-0.06110694631934166,0.004336037207394838,-2.43774676322937,1017.31415,
2021.02.11 12:36:48,48.0,21.0,24.261559,-28.114704,-1.663908,-0.09025196,0.49688372,9.7707205,0.046307903,0.0018127633,-0.0123699205,-0.05080842226743698,0.009236717596650124,-2.4276323318481445,1017.31415,
2021.02.11 12:36:48,48.0,21.0,23.933052,-28.935497,-0.86748314,-0.2451307,0.57740706,9.7075405,0.020127472,-0.009774439,-0.0043128347,-0.059391383081674576,0.025246210396289825,-2.4487857818603516,1017.31415,
2021.02.11 12:36:48,48.0,21.0,24.497757,-29.11932,-1.6665726,-0.10141396,0.5778798,9.630762,0.017720452,-0.015601807,0.022798948,-0.05992836505174637,0.010529821738600731,-2.4397146701812744,1017.31415,
2021.02.11 12:36:48,48.0,21.0,23.52581,-28.789665,-0.97950745,-0.16445708,0.64498687,9.811125,-0.00434924,-0.0012675085,0.012785947,-0.06563670188188553,0.01676073670387268,-2.454289197921753,1017.31415,
2021.02.11 12:36:48,48.0,21.0,23.570198,-28.410225,-1.7524376,-0.108585425,0.61972934,9.694691,-0.010906041,-0.021221306,0.037421387,-0.06383375078439713,0.011200036853551865,-2.446241855621338,1017.3141,
2021.02.11 12:36:48,48.0,21.0,23.373024,-28.275139,-0.39587212,-0.017114095,0.58936125,9.805608,-0.011343328,-0.008100204,0.027545018,-0.0600321963429451,0.0017453357577323914,-2.449498176574707,1017.31384,
2021.02.11 12:36:49,48.0,21.0,23.853493,-28.07294,-2.0384998,-0.0039325333,0.5092757,9.669955,0.0094136745,-0.018479627,0.01962379,-0.052617158740758896,4.066754481755197E-4,-2.4347076416015625,1017.31384,
2021.02.11 12:36:49,48.0,21.0,22.73973,-27.27855,-1.1142616,0.026808253,0.5158129,9.818337,-0.0120034795,-0.013069367,-0.01409351,-0.05248721316456795,-0.0027304200921207666,-2.4449498653411865,1017.3135,
2021.02.11 12:36:49,48.0,21.0,24.344238,-27.595592,-1.4062138,-0.020187424,0.5740122,9.721207,-0.0024673603,-0.006846802,-0.042724118,-0.058978814631700516,0.002076634904369712,-2.4163591861724854,1017.31335,
2021.02.11 12:36:49,48.0,21.0,24.516655,-27.727913,-1.4222279,-0.063263945,0.5569254,9.629745,0.015666964,-0.019415852,-0.024186166,-0.05776828154921532,0.006569544319063425,-2.4153125286102295,1017.31323,
2021.02.11 12:36:49,48.0,21.0,23.828743,-27.295033,-1.861433,-0.025525423,0.5605663,9.857899,-0.020305838,-0.0054068025,-0.028270127,-0.05680331960320473,0.002589331241324544,-2.4212050437927246,1017.3129,
2021.02.11 12:36:49,48.0,21.0,24.003418,-29.042263,-1.7702389,-0.10720082,0.61097944,9.7211275,0.017573845,-0.01579278,-0.025060493,-0.06276430189609528,0.01102716475725174,-2.4481940269470215,1017.3127,
2021.02.11 12:36:49,48.0,21.0,24.741653,-28.61686,-0.94613457,-0.034944575,0.56608224,9.68058,-4.049528E-4,-0.007872296,-0.010416171,-0.05840917304158211,0.00360974483191967,-2.4268717765808105,1017.3122,
2021.02.11 12:36:49,48.0,21.0,23.864723,-28.877445,-1.0011101,-0.030947862,0.62586,9.846092,-0.014442142,-0.0047542443,-0.009635202,-0.06347858160734177,0.0031431515235453844,-2.4488637447357178,1017.3122,
2021.02.11 12:36:49,48.0,21.0,24.025124,-27.81818,-1.3565636,6.341785E-4,0.53675425,9.740088,0.015498057,-0.0055952566,-0.011606826,-0.055052053183317184,-6.511013634735718E-5,-2.4271461963653564,1017.312,
2021.02.11 12:36:49,48.0,21.0,23.908127,-28.249409,-1.4849892,-0.044015184,0.6032727,9.725825,0.010775428,-0.0046507604,-0.01906095,-0.06194791942834854,0.004525568336248398,-2.4367048740386963,1017.312,
2021.02.11 12:36:49,48.0,21.0,22.424393,-27.900806,-1.1431122,-0.010773676,0.5329756,9.693036,0.007271327,-0.0014224068,-0.01036567,-0.05493006855249405,0.0011114857625216246,-2.4627532958984375,1017.3118,
2021.02.11 12:36:49,48.0,21.0,23.67173,-28.427647,-1.4934158,-0.04012792,0.6376373,9.84229,-0.018021885,4.1418313E-4,-0.00993375,-0.06469452381134033,0.004077069461345673,-2.444542169570923,1017.3118,
2021.02.11 12:36:49,48.0,21.0,22.934402,-27.372417,-1.4350681,0.0431996,0.49892783,9.653369,0.0024645752,-0.00584962,-0.010390529,-0.051637858152389526,-0.004475050140172243,-2.442155361175537,1017.3118,
2021.02.11 12:36:49,48.0,21.0,23.599617,-28.24339,-2.2743816,-0.107079625,0.5910273,9.809487,-0.027664067,-4.3547235E-4,-0.03011819,-0.06017425283789635,0.010915490798652172,-2.442519426345825,1017.3115,
2021.02.11 12:36:50,48.0,21.0,23.666656,-27.875591,-1.6471348,-0.034916554,0.53040236,9.691316,-0.0065521956,-0.008641167,-0.011418926,-0.05467475578188896,0.003602854674682021,-2.4353809356689453,1017.3113,
2021.02.11 12:36:50,48.0,21.0,22.95523,-28.354813,-2.0327148,-0.01646736,0.52996516,9.783399,-0.0282629,-0.003556354,-0.007875872,-0.0541168749332428,0.0016831926768645644,-2.4584596157073975,1017.3112,
2021.02.11 12:36:50,48.0,21.0,24.77916,-27.020226,-0.73734856,-0.010294336,0.50858766,9.668031,-0.021251082,-0.0051694177,-0.02062604,-0.05255661904811859,0.0010647806338965893,-2.3980183601379395,1017.3109,
2021.02.11 12:36:50,48.0,21.0,23.499489,-27.945194,-1.7803555,-0.08892482,0.57736033,9.809506,-0.038076557,0.0012179203,-0.014308563,-0.058786991983652115,0.00906491931527853,-2.439831256866455,1017.3109,
2021.02.11 12:36:50,48.0,21.0,24.040718,-29.759453,-2.5214157,-0.010401105,0.51046365,9.718212,-0.015620839,-0.006956193,-0.009097136,-0.05247823894023895,0.0010702690342441201,-2.4592702388763428,1017.3109,
2021.02.11 12:36:50,48.0,21.0,23.082245,-28.507381,-0.22873306,-0.033143006,0.49668226,9.835028,-0.026659334,-0.0013573811,-0.011648304,-0.05045820400118828,0.003369881771504879,-2.460099220275879,1017.3109,
2021.02.11 12:36:50,48.0,21.0,23.68998,-28.726273,-1.0118599,-0.06760456,0.51218045,9.727634,-5.554834E-4,-0.008646377,-0.012565427,-0.052602265030145645,0.006949630565941334,-2.4504013061523438,1017.3109,
2021.02.11 12:36:50,48.0,21.0,24.566475,-27.029224,-1.5948849,-0.09242585,0.48617724,9.77027,-0.011556892,-0.010058586,0.0031223914,-0.049717649817466736,0.009459624998271465,-2.4019250869750977,1017.3109,
2021.02.11 12:36:50,48.0,21.0,24.7668,-29.20068,-1.5532875,0.0017431118,0.4635681,9.777528,-0.016628116,-0.011381539,0.020313215,-0.047376107424497604,-1.7827734700404108E-4,-2.4363667964935303,1017.3109,
2021.02.11 12:36:50,48.0,21.0,24.38079,-27.64016,-1.759161,0.036920484,0.41188428,9.770282,0.004066797,-0.011420878,0.005967513,-0.04213160276412964,-0.0037788376212120056,-2.4169321060180664,1017.3109,
2021.02.11 12:36:50,48.0,21.0,24.29232,-28.038364,-1.6561356,-0.1090613,0.52854156,9.733972,0.002409035,-0.010504823,-0.0018994554,-0.05424198880791664,0.011203724890947342,-2.425485372543335,1017.3109,
2021.02.11 12:36:50,48.0,21.0,23.317604,-27.161343,-1.7028599,0.08889434,0.40159786,9.765931,0.001729266,-0.010664431,0.02959974,-0.04109746962785721,-0.00910224299877882,-2.4303507804870605,1017.3109,
2021.02.11 12:36:50,48.0,21.0,23.133179,-28.561008,-1.4634533,-0.007816489,0.4467369,9.751446,0.006004098,-0.008108289,-0.002383283,-0.045780349522829056,8.01572110503912E-4,-2.459157705307007,1017.3109,
2021.02.11 12:36:50,48.0,21.0,23.135582,-27.271294,-1.9613781,-0.0054225586,0.44126222,9.713805,0.0038163993,-0.0057889638,0.0050565526,-0.04539508745074272,5.582321318797767E-4,-2.4359469413757324,1017.3109,
2021.02.11 12:36:50,48.0,21.0,23.319328,-26.9472,-1.6730862,0.02107332,0.43289384,9.750597,-0.0077185906,-0.006753271,0.0044072354,-0.044367410242557526,-0.0021612306591123343,-2.42635440826416,1017.3112,
2021.02.11 12:36:51,48.0,21.0,24.335754,-27.975506,-2.9567432,-0.0038861223,0.49870023,9.734703,-0.0055469074,-0.004217916,-0.0011806195,-0.05118436738848686,3.9920295239426196E-4,-2.422337770462036,1017.3112,
2021.02.11 12:36:51,48.0,21.0,23.972397,-28.314072,-1.7263126,0.041405305,0.42680833,9.862931,-0.0075907134,0.0076309703,0.0013932372,-0.04324662312865257,-0.004198048263788223,-2.4372074604034424,1017.3112,
2021.02.11 12:36:51,48.0,21.0,24.617928,-27.648842,-1.5131149,-0.055707414,0.50367767,9.671708,0.02140335,-0.00248925,-0.011623724,-0.0520295649766922,0.005759768187999725,-2.4120795726776123,1017.3112,
2021.02.11 12:36:51,48.0,21.0,24.167053,-26.665462,-2.0187492,-0.012102266,0.47033584,9.781194,0.0018203917,0.007086616,0.008539495,-0.04804868623614311,0.0012372988276183605,-2.402939796447754,1017.31116,
2021.02.11 12:36:51,48.0,21.0,23.395294,-28.416641,-1.7423935,-0.005361989,0.49039507,9.767258,0.006472443,0.0024057045,0.009772534,-0.05016593262553215,5.489758332259953E-4,-2.4506850242614746,1017.31116,
2021.02.11 12:36:51,48.0,21.0,24.992622,-26.613728,-2.7897224,0.060176928,0.43523076,9.706935,0.0066597085,0.0017377969,0.00956606,-0.04480622708797455,-0.006199295166879892,-2.384539842605591,1017.3109,
2021.02.11 12:36:51,48.0,21.0,24.636192,-26.402962,-1.557436,-0.06670058,0.51486903,9.760449,-0.004727927,1.8214888E-4,-0.0028532916,-0.0527004674077034,0.00683365436270833,-2.3886077404022217,1017.3109,
2021.02.11 12:36:51,48.0,21.0,23.40596,-26.585117,-3.0916176,-0.041293353,0.47621486,9.768684,-0.01044306,-9.766563E-4,0.01979526,-0.048710137605667114,0.004227089695632458,-2.416484832763672,1017.3109,
2021.02.11 12:36:51,48.0,21.0,23.126503,-26.753616,-0.9254074,0.030000081,0.48501548,9.74203,-0.0028907768,-0.0037838127,0.016783448,-0.04974456876516342,-0.0030794390477240086,-2.4273250102996826,1017.3109,
2021.02.11 12:36:51,48.0,21.0,24.491898,-27.101913,-1.2793045,-0.029425757,0.45453915,9.793734,-1.293302E-4,0.0029923725,0.008866466,-0.04637772962450981,0.003004540456458926,-2.40513014793396,1017.3109,
2021.02.11 12:36:51,48.0,21.0,23.842339,-27.492577,-1.6092987,-0.03046454,0.46634924,9.686103,0.005694811,-2.4341978E-4,0.014521877,-0.04810883477330208,0.003145169699564576,-2.425253391265869,1017.31116,
2021.02.11 12:36:51,48.0,21.0,23.504128,-27.495384,-2.7333221,-0.01748284,0.45067063,9.816135,-0.015105376,0.0057774843,0.012824395,-0.04587891697883606,0.0017810289282351732,-2.431583881378174,1017.3112,
2021.02.11 12:36:51,48.0,21.0,24.351173,-27.005486,-2.0955334,-0.014330273,0.46039304,9.743501,0.00971263,0.0061599454,0.010579082,-0.047216128557920456,0.0014707508962601423,-2.405482769012451,1017.3112,
2021.02.11 12:36:51,48.0,21.0,23.847992,-26.904228,-2.1563435,-0.02683864,0.4583138,9.732993,-0.00339757,0.017128453,0.0074193836,-0.0470537431538105,0.002757483860477805,-2.4139816761016846,1017.31116,
2021.02.11 12:36:51,48.0,21.0,24.159729,-26.718006,-2.5117512,0.058635205,0.39970306,9.734483,-0.013084384,0.020599809,-0.011162265,-0.04103673994541168,-0.006023380905389786,-2.403900623321533,1017.31116,
2021.02.11 12:36:52,48.0,21.0,23.483528,-27.208897,-2.1011162,-0.028045677,0.43993506,9.814426,-0.014957327,0.016535457,-0.025769385,-0.04479517787694931,0.0028575893957167864,-2.4274137020111084,1017.3109,
2021.02.11 12:36:52,48.0,21.0,23.558922,-27.23507,-1.6722412,-0.19016278,0.51275855,9.901356,0.015142074,-0.0029239818,-0.017315358,-0.051730960607528687,0.019203370437026024,-2.4265432357788086,1017.31116,
2021.02.11 12:36:52,48.0,21.0,24.310547,-27.461803,-2.5818348,-0.2757416,0.6444396,9.7417555,0.08933295,-0.075776495,0.04927035,-0.06602968275547028,0.02829756960272789,-2.4136741161346436,1017.31116,
2021.02.11 12:36:52,48.0,21.0,23.69532,-27.529953,-2.1107178,0.11286665,0.5005849,9.695127,0.069526,-0.10647214,0.1059579,-0.05158333480358124,-0.011641060002148151,-2.4280710220336914,1017.31116,
2021.02.11 12:36:52,48.0,21.0,23.670593,-28.118206,-2.0291195,0.31848535,0.50186086,9.819295,0.07716345,-0.10020835,0.028111232,-0.051038432866334915,-0.03242328017950058,-2.4389820098876953,1017.31116,
2021.02.11 12:36:52,48.0,21.0,23.765686,-28.015442,-2.532238,0.2074728,0.6672158,9.697205,0.058962643,-0.082261875,0.019229691,-0.0686810240149498,-0.0213918499648571,-2.4334473609924316,1017.3116,
2021.02.11 12:36:52,48.0,21.0,22.071152,-27.805706,-2.066599,0.2661943,0.63246673,10.08486,-0.09836995,0.042847212,0.009983783,-0.0626107007265091,-0.026389311999082565,-2.4670441150665283,1017.31177,
