Time,Mag_x,Mag_y,Mag_z,Acc_x,Acc_y,Acc_z,Gyro_x,Gyro_y,Gyro_z,Orn_x,Orn_y,Orn_z,Pressure
2021.02.12 11:49:01,16.736717,-40.178684,-29.555738,-0.10251066,0.37143835,10.2804575,-0.22638415,-0.034659427,0.023539532,-0.036113027,0.009971079,-2.743359327,1016.5196
2021.02.12 11:49:01,16.230354,-40.30428,-31.07802,-0.0776973,0.5557613,9.953919,0.21613477,-0.010663623,0.00258108,-0.055773806,0.007805541,-2.748025656,1016.5196
2021.02.12 11:49:01,16.024185,-41.34368,-30.877829,-0.13915747,0.44756463,9.289218,0.06483545,0.051657964,0.004419398,-0.048138462,0.014979417,-2.768898726,1016.5196
2021.02.12 11:49:01,18.080582,-40.261272,-30.780142,-0.15339923,0.46090925,9.818131,-0.036272805,0.06928283,0.009986568,-0.046904545,0.015622805,-2.715414047,1016.5197
2021.02.12 11:49:01,16.084816,-40.522736,-30.463953,-0.13777861,0.51846033,9.754067,-0.002894186,0.06737794,-0.008555088,-0.053097986,0.014124307,-2.758465767,1016.52045
2021.02.12 11:49:01,16.297417,-40.911057,-30.661192,-0.1302772,0.5217677,9.745809,-0.011515692,0.04856467,0.001939833,-0.053481814,0.013366714,-2.756579399,1016.52045
2021.02.12 11:49:01,16.714195,-40.176754,-30.664248,-0.08100323,0.46596408,9.724177,-0.00785917,0.03845573,0.014066828,-0.047879811,0.008329893,-2.739082575,1016.521
2021.02.12 11:49:01,16.148598,-40.486355,-31.259604,-0.18924744,0.5651601,9.813838,-0.007926973,0.041722037,0.007377298,-0.057513878,0.019281344,-2.758834839,1016.52203
2021.02.12 11:49:01,17.588287,-40.66042,-31.061365,-0.13590507,0.5457707,9.586791,0.020085089,0.042802922,0.004628774,-0.056862362,0.014175334,-2.725631237,1016.52203
2021.02.12 11:49:01,18.210014,-40.712414,-31.607409,-0.2016657,0.4075009,9.729032,-0.04913007,0.055271737,-0.045232203,-0.041851595,0.020725271,-2.721943617,1016.52203
2021.02.12 11:49:02,16.852394,-40.623425,-31.213594,-0.34879065,0.5834214,9.567085,-0.026124781,0.02104422,-0.15031934,-0.060866386,0.036441218,-2.755325556,1016.52203
2021.02.12 11:49:02,17.509972,-39.96312,-30.920015,-1.0865225,1.4829249,9.964145,-0.18380795,0.08383925,-0.174705,-0.146883592,0.108614095,-2.757309437,1016.52234
2021.02.12 11:49:02,17.504608,-40.137806,-29.944433,-0.7769999,1.3398966,10.144304,0.06938133,-5.36E-04,-0.085249476,-0.130944312,0.076445438,-2.740075588,1016.5226
2021.02.12 11:49:02,17.755135,-40.151047,-29.86614,-0.71863216,0.8582668,8.95107,0.050766572,0.010843718,-0.06324088,-0.095287293,0.080112673,-2.749316692,1016.5226
2021.02.12 11:49:02,16.630234,-39.519436,-30.714155,-0.55879587,1.1454817,9.466954,-0.02171315,-0.034709718,-0.021889258,-0.120205343,0.058957532,-2.746203661,1016.5231
2021.02.12 11:49:02,18.738281,-39.152855,-31.064997,-0.55119383,1.6376866,9.305493,-0.005887426,-0.1798483,0.09251202,-0.173908725,0.059164036,-2.669105768,1016.5231
2021.02.12 11:49:02,16.439003,-40.499588,-30.600756,-0.12555876,1.5738367,9.947379,-0.030891135,-0.2180687,0.07010445,-0.156903222,0.012621626,-2.713629246,1016.5231
2021.02.12 11:49:02,16.160118,-40.392887,-30.71346,-0.26879847,1.9560329,10.354738,0.08826802,-0.28339016,0.050822895,-0.186640754,0.025953153,-2.716404438,1016.5231
2021.02.12 11:49:02,15.783371,-40.662357,-30.798273,-0.49483076,1.0878767,10.449932,0.05743195,-0.14648966,0.01851539,-0.103614792,0.047317188,-2.774255514,1016.5231
2021.02.12 11:49:02,16.270454,-40.102318,-30.800364,-0.4261868,0.39799368,10.341244,-0.106450826,-0.020297501,-0.020692717,-0.038434476,0.041189026,-2.773511171,1016.5231
2021.02.12 11:49:02,16.051537,-40.073044,-30.802721,-0.22982526,0.63289624,10.591794,-0.03660657,0.05862319,-0.044951554,-0.059668478,0.021695022,-2.758338213,1016.5231
2021.02.12 11:49:02,16.099129,-39.873207,-31.070318,0.7676528,-0.4607416,10.1772375,-0.040163722,0.011005351,0.005577322,0.045112908,-0.075285845,-2.721537352,1016.5231
2021.02.12 11:49:02,15.354889,-39.45846,-29.977365,0.6467865,-0.47183606,8.6025,0.25904694,0.0307263,-0.18352136,0.054639898,-0.075044684,-2.736681223,1016.5231
2021.02.12 11:49:02,16.005219,-40.177322,-29.488134,0.02100709,-0.11329343,9.777875,-0.21225004,0.12306537,0.04208437,0.011586168,-0.002148428,-2.764022112,1016.52356
2021.02.12 11:49:02,16.405525,-39.722862,-30.656752,0.4712267,0.40893388,10.114177,0.16272387,-0.059768975,0.07720534,-0.040366001,-0.046557043,-2.708071947,1016.52356
2021.02.12 11:49:03,15.142487,-39.048744,-29.638613,0.3826035,0.7666363,7.9446793,0.116556436,0.06416879,0.08976815,-0.096088298,-0.048121277,-2.711701632,1016.52356
2021.02.12 11:49:03,15.978325,-40.53865,-28.571203,0.8392291,0.71128744,9.69637,-0.17099044,0.15497233,0.030762129,-0.072953127,-0.086335704,-2.69569397,1016.52356
2021.02.12 11:49:03,16.922455,-40.33679,-29.05483,0.5512902,1.2193987,9.426744,0.06623142,0.0927705,-0.12331049,-0.128423899,-0.05841497,-2.669595957,1016.52356
2021.02.12 11:49:03,16.026886,-39.947277,-29.472036,0.26705793,1.589867,9.421421,-0.02042441,0.092314415,-0.04911757,-0.167109355,-0.028338235,-2.687888861,1016.52356
2021.02.12 11:49:03,15.535965,-39.941086,-29.120562,0.37418127,1.3273071,10.492908,0.080638625,0.056627046,-0.008778267,-0.125748262,-0.035645295,-2.710841656,1016.52356
2021.02.12 11:49:03,16.417152,-40.51717,-27.987085,-0.12676628,0.97392005,10.28696,0.17420587,0.029700708,-0.043589734,-0.094386734,0.012322384,-2.738442898,1016.52356
2021.02.12 11:49:03,16.29705,-39.06679,-27.741335,-0.8530672,0.7569415,11.000644,-0.14273725,0.020315627,0.20265757,-0.068495557,0.077392139,-2.777383566,1016.5236
2021.02.12 11:49:03,15.511604,-40.401524,-28.409208,-1.1111693,0.3287997,8.04422,0.59119034,0.1509444,-0.09371742,-0.040467471,0.137264013,-2.856354475,1016.5237
2021.02.12 11:49:03,14.25779,-40.5427,-27.009329,-1.3978282,-0.047189865,9.33365,-0.17287524,-0.11391143,0.4224876,0.005000082,0.148657411,-2.898266315,1016.5237
2021.02.12 11:49:03,13.324661,-41.457092,-26.882318,0.003100246,0.3962758,10.262208,0.15147546,-0.09219776,0.19628718,-0.038595885,-3.02E-04,-2.822747231,1016.5237
2021.02.12 11:49:03,13.25441,-40.993282,-26.074068,-0.8280916,1.0136343,7.544567,0.28703767,-0.017007427,0.029827692,-0.132765219,0.109322377,-2.869394779,1016.5237
2021.02.12 11:49:03,13.479996,-40.47518,-26.246908,-0.4686844,0.6217599,8.613685,-0.16722497,0.08446142,0.11387558,-0.071951762,0.054358006,-2.838150263,1016.5237
2021.02.12 11:49:03,13.401192,-39.922474,-25.518934,0.06716025,1.2551233,10.1007395,-0.016055882,0.009238776,0.020268422,-0.123624139,-0.006648945,-2.785473585,1016.5236
2021.02.12 11:49:04,12.709457,-40.345524,-26.086683,-0.3332043,2.2440841,8.217799,0.045847207,-0.15807861,0.004770203,-0.266368002,0.04052446,-2.791917086,1016.5231
2021.02.12 11:49:04,11.70005,-39.873863,-26.270304,-0.010418301,2.1733732,10.0267105,-0.3443538,-0.15102455,0.044697862,-0.213456094,0.001039054,-2.805389881,1016.52277
2021.02.12 11:49:04,11.726387,-39.82088,-25.808119,0.05291046,1.9825047,11.530662,0.03153354,-0.14914571,-0.16448213,-0.170266792,-0.004588643,-2.814237118,1016.52277
2021.02.12 11:49:04,12.359917,-39.34711,-25.193113,-0.3491746,1.1956259,10.580504,-0.003652034,-0.0752765,-0.13061446,-0.112464666,0.032989722,-2.83365345,1016.52277
2021.02.12 11:49:04,12.438087,-39.968246,-25.114836,0.5677207,-0.61584675,12.212971,0.052992422,0.075961486,-0.20935126,0.050328702,-0.046451624,-2.822600842,1016.52277
2021.02.12 11:49:04,12.96019,-39.76707,-24.409739,-0.1264959,-0.13702752,7.887674,0.3685044,-0.057533044,-0.2810031,0.017368382,0.016035786,-2.838522196,1016.5226
2021.02.12 11:49:04,12.562584,-38.09781,-25.130339,-0.10273979,-0.31157896,8.351582,-0.20528154,0.009000871,-0.08369899,0.03728766,0.012301216,-2.837291479,1016.5226
2021.02.12 11:49:04,12.201042,-39.465816,-25.201998,0.24296601,0.02800946,10.456664,-0.29705215,-0.001676037,0.060909435,-0.002677894,-0.023231337,-2.827854156,1016.5226
2021.02.12 11:49:04,13.157318,-38.831436,-23.162237,0.3862147,0.8955436,9.025978,0.056438938,-0.027616773,-0.025773242,-0.098804966,-0.042763148,-2.77131772,1016.52185
2021.02.12 11:49:04,12.4110565,-36.349274,-23.646605,0.17979138,1.0576324,8.472687,-0.11233217,0.011781575,0.046933267,-0.124158427,-0.021216929,-2.770470858,1016.5211
2021.02.12 11:49:04,12.687332,-36.747696,-24.03705,0.50895613,1.1906193,9.347753,-0.21320428,0.010326827,0.06954891,-0.126502067,-0.054393191,-2.74650526,1016.5211
2021.02.12 11:49:04,10.789108,-37.2279,-24.44354,0.55231404,1.6564072,9.502206,-0.10430298,-0.013482815,0.039035138,-0.172298953,-0.058059499,-2.783784866,1016.51776
2021.02.12 11:49:04,12.2951355,-36.457535,-23.554937,0.37664732,1.5999355,10.43328,-0.06801484,-0.001734294,0.08813968,-0.152066335,-0.036084898,-2.757867813,1016.5177
2021.02.12 11:49:04,10.712173,-36.834507,-24.054201,0.36992165,1.1872383,10.223781,0.005093192,0.021953622,0.067223795,-0.115532443,-0.036166694,-2.812222481,1016.5177
2021.02.12 11:49:04,9.70488,-36.50266,-25.16113,1.0873861,0.07950844,11.8285675,-0.12996735,0.032376565,0.20207268,-0.006693406,-0.091671154,-2.823460102,1016.5177
2021.02.12 11:49:05,9.115387,-36.839443,-24.327185,-0.20034583,0.15543878,8.595769,0.028464695,-0.1467089,0.26590368,-0.018076293,0.023303274,-2.910926104,1016.5177
2021.02.12 11:49:05,10.456413,-36.591583,-23.473475,-0.9105336,-0.3682405,8.84797,0.053653967,0.046653602,0.26178563,0.041376375,0.102547765,-2.931829453,1016.51746
2021.02.12 11:49:05,8.347366,-36.731297,-22.657576,0.15788396,-0.03914553,10.046988,0.034514878,-0.013228579,0.10922125,0.003895745,-0.015713263,-2.909495831,1016.51605
2021.02.12 11:49:05,8.30677,-35.603226,-22.547354,-0.31000388,1.0253302,7.971386,0.18275818,0.089618556,-0.057290893,-0.12782836,0.038869996,-2.916332483,1016.5156
2021.02.12 11:49:05,8.405869,-35.280373,-22.908876,-0.18600614,0.971652,8.478669,-0.26059645,0.10447767,0.09545034,-0.114074603,0.021934612,-2.902555227,1016.51495
2021.02.12 11:49:05,9.207268,-34.547443,-21.990385,0.39175066,0.7672741,9.778754,-0.056166414,0.029773634,0.031521033,-0.078240447,-0.040039998,-2.84303093,1016.5142
2021.02.12 11:49:05,7.8686066,-35.891838,-22.580374,-0.026312822,1.6272856,8.732706,-0.0332272,-0.12672924,-0.018697418,-0.184229985,0.003013126,-2.896172285,1016.5136
2021.02.12 11:49:05,7.279381,-35.595158,-21.7414,-0.09928935,2.0270908,10.337654,-0.44329986,-0.18038087,0.047397904,-0.193622574,0.009604335,-2.915476084,1016.51324
2021.02.12 11:49:05,7.2498245,-33.682114,-22.17084,0.49159706,1.6261,11.867409,-0.048623044,-0.2090699,-0.093375325,-0.13605909,-0.041400459,-2.879371881,1016.51263
2021.02.12 11:49:05,6.2007065,-33.98268,-23.34957,-0.031767666,0.45664668,11.030799,0.09615172,-0.08985542,-0.103355095,-0.041373629,0.002879898,-2.957757473,1016.51263
2021.02.12 11:49:05,5.202545,-33.482754,-22.92526,0.75236934,-1.0731323,12.00108,0.27326655,0.12180835,-0.21995899,0.089008629,-0.062609866,-2.956308365,1016.51263
2021.02.12 11:49:05,6.6003265,-34.625988,-21.576113,0.52968067,-0.516794,7.4446754,0.38406914,0.013976913,-0.21085292,0.069132552,-0.071029231,-2.919869184,1016.51263
2021.02.12 11:49:05,6.3350067,-33.13423,-21.292994,0.627248,-0.62972814,8.83862,-0.18605043,0.11314607,-0.22230843,0.070949309,-0.070847951,-2.918670177,1016.51263
2021.02.12 11:49:05,6.559967,-34.341915,-21.723207,0.25289813,0.387123,10.51267,-0.10392953,0.026413867,-0.14797847,-0.036797155,-0.024051869,-2.933454037,1016.51263
2021.02.12 11:49:05,7.1516037,-32.465527,-22.30087,0.21339633,1.127422,8.193651,0.23965512,0.04732431,-0.20009753,-0.136692613,-0.02603822,-2.882387161,1016.51263
2021.02.12 11:49:06,6.7763977,-34.37068,-22.0059,-0.058549944,1.2374109,8.493571,-0.227843,0.0888899,-0.0227381,-0.144666731,0.006893333,-2.929954529,1016.51324
2021.02.12 11:49:06,8.090401,-32.8597,-21.25149,0.538876,1.348238,10.116185,-0.08074823,0.038755182,0.006234041,-0.132309139,-0.053218395,-2.842144012,1016.51324
2021.02.12 11:49:06,6.2694016,-31.855331,-21.202887,0.14572781,1.8251024,9.624,0.016914725,0.043904696,0.060359813,-0.187394202,-0.015140968,-2.905289888,1016.51324
2021.02.12 11:49:06,6.091606,-31.368946,-21.396662,0.40718603,1.4030663,10.295192,0.105091006,0.045021515,0.10570646,-0.135344669,-0.039530482,-2.900785208,1016.51324
2021.02.12 11:49:06,5.7775497,-33.685238,-21.083765,0.16722219,1.2732214,10.202768,-0.044802252,0.026457455,0.10566765,-0.124133445,-0.016388416,-2.94554615,1016.51324
2021.02.12 11:49:06,4.7463074,-31.620811,-21.495703,0.29150832,0.84808356,12.531951,-0.16349895,-0.015139967,0.30179852,-0.067552455,-0.023257015,-2.969106674,1016.51324
2021.02.12 11:49:06,4.800415,-31.393188,-21.601854,1.2079443,-0.26553112,10.4682455,0.42333543,-0.041206706,-0.022092797,0.025192855,-0.114883192,-2.9183321,1016.5156
2021.02.12 11:49:06,4.7081757,-31.320786,-21.490599,-1.2534705,-0.11041802,7.8090005,0.21772467,0.08969237,-0.100281775,0.013960221,0.159158453,-3.10231781,1016.51746
2021.02.12 11:49:06,4.924469,-30.978374,-20.655455,-1.0017053,0.17002465,10.54839,-0.18262789,-0.061276004,0.18409243,-0.016044974,0.094678931,-3.045609474,1016.5177
2021.02.12 11:49:06,4.0585175,-29.97401,-19.839817,-0.2423082,1.0771357,9.270295,0.40270096,0.060915273,-0.033378795,-0.115634322,0.026132181,-3.013491869,1016.51776
2021.02.12 11:49:06,4.2315063,-30.872536,-20.693602,-0.43403962,1.1272236,7.7593427,0.120137624,0.019347347,0.05924952,-0.144041806,0.055879448,-3.030659199,1016.51776
2021.02.12 11:49:06,2.772606,-31.384392,-20.390797,0.14434196,0.9062307,9.196177,-0.068663105,-0.015483618,0.09345111,-0.098215133,-0.015694577,-3.036222696,1016.51776
2021.02.12 11:49:06,2.1509552,-30.619713,-20.296236,-0.24775207,1.6268913,8.673347,0.030888384,-0.031352703,0.03061777,-0.185345188,0.028556993,-3.082048416,1016.5177
2021.02.12 11:49:06,1.47892,-29.431637,-20.17833,-0.3483406,2.2864387,9.065953,-0.17003073,-0.12600262,0.12176072,-0.2468739,0.038404051,-3.11180687,1016.5177
2021.02.12 11:49:07,1.4998932,-28.104889,-21.45553,0.72303754,1.9673785,10.918765,-0.28067803,-0.12093204,0.07573887,-0.177889019,-0.06612318,-3.020207644,1016.5177
2021.02.12 11:49:07,1.0314407,-27.96939,-20.265799,0.2750711,2.4956424,10.950142,0.06828889,-0.1387064,-0.20862886,-0.224013776,-0.025115041,-3.074078083,1016.5196
2021.02.12 11:49:07,0.31760406,-27.759506,-22.827494,0.061057404,0.9737362,10.705308,-0.04591463,-0.04765255,-0.12876861,-0.09070719,-0.005703408,-3.124087334,1016.5201
2021.02.12 11:49:07,2.3047638,-28.644753,-21.936724,0.38886586,-0.36599103,11.597453,0.19515112,0.12444894,-0.30288264,0.031529702,-0.033517726,-3.038322926,1016.5201
2021.02.12 11:49:07,2.26342,-27.508884,-21.362246,-0.04732591,0.08538682,7.7859216,0.14130852,-0.019043934,-0.12550546,-0.01096618,0.00607832,-3.063522339,1016.52014
2021.02.12 11:49:07,0.89704895,-28.182663,-22.125273,0.8054531,-0.42883775,9.372228,-0.29611948,0.015278297,-0.07617598,0.045556638,-0.08572977,-3.046244144,1016.52014
2021.02.12 11:49:07,1.3038559,-27.025703,-22.115591,0.59622055,0.45387992,10.130763,-0.069856144,-0.009367207,-0.17861551,-0.044694971,-0.058784675,-3.041949034,1016.52014
2021.02.12 11:49:07,1.8025208,-27.217426,-23.20931,0.043360103,1.1720672,8.001048,0.002074986,0.023526656,-0.1675485,-0.145452544,-0.00541925,-3.059955597,1016.52014
2021.02.12 11:49:07,2.1933212,-26.564816,-22.419214,0.2855895,1.1371983,9.151052,-0.17599525,0.055374317,-0.028932981,-0.123576298,-0.03119825,-3.019719601,1016.52014
2021.02.12 11:49:07,2.1060486,-25.744549,-22.478056,0.5403581,1.5644736,9.825734,-0.120995365,-0.017684741,0.058033504,-0.157662347,-0.054938834,-2.990505934,1016.52014
2021.02.12 11:49:07,1.4927444,-25.976322,-23.332605,0.52837557,1.6371127,9.487123,0.08956429,0.022008313,0.027976532,-0.170619413,-0.055636495,-3.013570309,1016.52014
2021.02.12 11:49:07,0.6790619,-25.831196,-23.39879,0.4234844,1.470105,9.883003,-0.011627508,0.036558554,0.07002306,-0.147534624,-0.042823572,-3.065776348,1016.5201
2021.02.12 11:49:07,0.95695496,-24.290462,-22.000216,0.49102,1.2946184,9.953877,-0.08263343,-0.025207628,0.07619069,-0.129180357,-0.049289562,-3.045958757,1016.52014
2021.02.12 11:49:07,0.9509659,-24.284443,-23.407679,-0.29186383,1.5990607,12.2985735,-0.20921947,0.05621799,0.1891614,-0.129258692,0.023727067,-3.12282443,1016.5202
2021.02.12 11:49:07,0.14513397,-24.177322,-23.321318,1.342641,0.034988582,11.646945,0.28235582,0.002204432,0.10913078,-0.002984327,-0.114771768,-3.025356054,1016.5202
2021.02.12 11:49:08,0.89219666,-25.24646,-24.301916,-0.49264812,-0.17417015,7.9763985,0.44510236,0.24506377,-0.26271352,0.021790709,0.061684869,3.118018866,1016.5202
2021.02.12 11:49:08,1.3718185,-24.084724,-23.949156,-1.1299244,0.12338001,9.125987,-0.17067583,-0.0531094,0.2055925,-0.01341638,0.123187013,3.075139761,1016.5202
2021.02.12 11:49:08,1.6678085,-23.783695,-23.987494,-0.043878783,0.9917118,8.1918545,0.24978802,0.028935604,0.035430852,-0.120472744,0.005356341,-3.067464828,1016.5202
2021.02.12 11:49:08,0.8702545,-23.720184,-23.685656,0.01991987,0.47699878,8.49702,-0.101506196,-0.056241773,0.0850991,-0.056078169,-0.002344332,-3.100204468,1016.5202
2021.02.12 11:49:08,1.8458099,-22.58144,-24.24209,0.2347297,1.0838422,9.284178,-0.099904664,-0.06885977,-0.020622768,-0.116177954,-0.025277382,-3.016999483,1016.5202
2021.02.12 11:49:08,2.1283646,-23.442276,-23.30813,-0.239484,2.3040962,9.133025,-0.03743695,-0.1345431,-0.092521444,-0.24704361,0.026215754,-3.052712202,1016.5202
2021.02.12 11:49:08,1.2735367,-22.095482,-25.242758,0.12814084,2.065142,10.709583,-0.26488328,-0.18985435,0.044241477,-0.190479785,-0.011964492,-3.04874754,1016.521
2021.02.12 11:49:08,0.93668365,-22.678371,-25.668684,0.38571227,2.1828082,11.126569,0.18676107,-0.21638598,-0.19530119,-0.193606198,-0.034652002,-3.036618471,1016.5213
2021.02.12 11:49:08,1.0984344,-22.193321,-24.653715,-0.1996832,1.0435011,10.649455,0.049789235,-0.004576045,-0.09148294,-0.097657487,0.018748358,-3.109287739,1016.52136
2021.02.12 11:49:08,1.8694992,-22.431934,-25.63096,0.637757,-0.57952684,11.998849,0.18159452,0.1672116,-0.21296793,0.048193108,-0.053101547,-3.005880833,1016.52136
2021.02.12 11:49:08,1.495018,-24.351158,-26.21963,0.84727734,-0.3460863,8.812062,-0.26974815,-0.018379433,-0.08956161,0.039073966,-0.095855065,-2.985163689,1016.5213
2021.02.12 11:49:08,2.1048737,-22.422253,-25.733068,0.31917593,0.32354295,10.386134,-0.14287464,-0.043655027,-0.15302654,-0.031126676,-0.030721297,-3.008469105,1016.5213
2021.02.12 11:49:08,3.048439,-23.56411,-25.612314,0.11850962,1.1763471,8.206505,-0.001834142,-0.001057696,-0.1435315,-0.14235878,-0.014439934,-2.96979022,1016.5196
2021.02.12 11:49:09,1.8295517,-23.555672,-26.939623,0.30606544,1.0723934,8.932907,-0.13585977,0.05991123,-0.01855381,-0.119408585,-0.034249295,-3.006160259,1016.51886
2021.02.12 11:49:09,3.398346,-22.563137,-27.585722,0.4830464,1.5149943,9.517574,-0.1340716,0.018409703,0.06832151,-0.157654718,-0.05070959,-2.881184101,1016.51886
2021.02.12 11:49:09,3.1361313,-23.195923,-27.763487,0.551534,1.745441,9.614047,0.002751008,0.041276198,0.041809417,-0.179306448,-0.057304706,-2.883891344,1016.51886
2021.02.12 11:49:09,3.7155838,-21.589527,-28.196486,0.23648982,1.8936034,10.067786,-0.030180693,0.016568724,0.13122976,-0.185863301,-0.023485433,-2.874972582,1016.51886
2021.02.12 11:49:09,2.8394547,-20.96479,-28.357183,0.60938454,1.796472,10.221859,-0.041297063,0.029565226,0.14203592,-0.173669249,-0.059545346,-2.862630367,1016.51886
2021.02.12 11:49:09,3.22435,-21.358818,-28.718237,-0.014098776,1.8039346,11.792167,-0.003985932,0.064656176,0.2188531,-0.151800409,0.001195605,-2.953616142,1016.51886
2021.02.12 11:49:09,3.7417145,-21.122646,-29.609152,1.4236082,0.32933727,11.696281,0.1662967,0.05988114,0.20399344,-0.027943881,-0.121118836,-2.796836138,1016.51886
2021.02.12 11:49:09,4.3618164,-22.186779,-29.74809,-0.086915575,0.1674173,8.550713,0.5151368,0.124296695,-0.22747397,-0.019575825,0.010164368,-2.955826998,1016.51886
2021.02.12 11:49:09,5.1182327,-23.49884,-30.336393,-1.0826763,0.26664555,8.61378,-0.002719572,-0.06782857,0.14983554,-0.030704377,0.125035495,-3.084211588,1016.51904
2021.02.12 11:49:09,5.321968,-23.22778,-29.41545,-0.37848568,1.0131409,9.869083,-0.05282563,-0.059665695,0.18727031,-0.10222508,0.038331855,-2.935902834,1016.51904
2021.02.12 11:49:09,4.5859528,-22.926865,-30.12599,0.004754856,1.072456,8.583565,0.22262028,0.03718326,0.07280092,-0.124298811,-5.54E-04,-2.904110909,1016.51904
2021.02.12 11:49:09,5.539154,-21.949284,-30.614573,-0.10280529,0.9533014,8.4454775,-0.077836506,-0.022323517,0.10946483,-0.112393126,0.012172219,-2.867446184,1016.51904
2021.02.12 11:49:09,4.9770813,-24.286682,-30.38682,0.34256017,1.4055414,9.426522,-0.10301909,-0.029413579,0.09631707,-0.147918284,-0.036324054,-2.840530157,1016.51886
2021.02.12 11:49:09,5.4891663,-21.975578,-30.181688,0.2893629,2.1436002,8.707756,-0.04626708,-0.027997242,-0.013531162,-0.241243958,-0.033218257,-2.712343454,1016.51886
2021.02.12 11:49:09,6.257782,-23.180454,-30.822218,0.015115213,2.758688,9.669631,-0.31409782,-0.13593383,0.03459631,-0.277910739,-0.001563162,-2.714003086,1016.51843
2021.02.12 11:49:09,3.6566315,-22.63002,-31.956472,0.93477994,2.159238,11.471569,-0.022223711,-0.11256616,-0.09021633,-0.185447797,-0.081307024,-2.778504133,1016.51843
2021.02.12 11:49:10,4.6461563,-22.026997,-32.90873,-0.10949341,2.086274,10.331232,0.047216326,-0.05372497,-0.18107834,-0.199247956,0.010597895,-2.863786459,1016.51886
2021.02.12 11:49:10,5.635475,-22.564632,-32.643715,0.2425883,0.18233003,11.773453,-0.031931255,0.07865962,-0.12974042,-0.015482015,-0.020601772,-2.863111496,1016.51886
2021.02.12 11:49:10,4.8956146,-23.987019,-32.86872,0.1280363,0.35408294,9.517743,0.28617653,-0.042180456,-0.12976652,-0.037181899,-0.01345157,-2.911164999,1016.51886
2021.02.12 11:49:10,4.6787186,-24.495655,-34.283302,1.398004,-0.61661315,8.348645,-0.018010756,-0.13977431,-0.027960595,0.072715208,-0.165913478,-2.77582407,1016.51904
2021.02.12 11:49:10,5.648697,-22.545052,-33.626305,-0.17238462,0.11609677,9.696551,-0.21700831,0.007879969,-0.05754454,-0.011970532,0.017776059,-2.917329073,1016.51953
2021.02.12 11:49:10,6.5900955,-23.533253,-34.35919,0.023852931,1.1928622,9.112159,0.059476167,-0.022210754,0.018944997,-0.1301682,-0.002617698,-2.801466465,1016.51953
2021.02.12 11:49:10,5.4566574,-23.65887,-35.102806,0.36535606,1.350257,8.290527,-0.12991694,0.0931481,0.13707656,-0.161296025,-0.044040602,-2.766269207,1016.51953
2021.02.12 11:49:10,6.5002136,-23.0868,-35.439125,1.1951936,1.2413777,9.584942,-0.16571431,0.08391746,0.13239656,-0.127817377,-0.124054611,-2.612188101,1016.5195
2021.02.12 11:49:10,6.1205826,-22.69801,-36.55101,1.1234537,1.627697,9.260927,2.43E-04,0.026572648,0.027783528,-0.172741517,-0.120721258,-2.568892479,1016.5195
2021.02.12 11:49:10,7.0104294,-23.157574,-36.727577,0.5790577,1.6897503,9.791665,-0.06694701,0.07608416,0.03523614,-0.170594886,-0.059069019,-2.638779163,1016.5195
2021.02.12 11:49:10,6.665123,-22.746284,-37.3955,0.46788216,1.6958374,10.285005,0.014372518,0.018050421,0.06393606,-0.163248286,-0.04546034,-2.670818329,1016.51953
2021.02.12 11:49:10,6.47773,-22.662292,-38.08069,0.34290448,1.8257393,11.31622,-0.13030148,0.08642486,0.12023676,-0.159887686,-0.030292764,-2.704930305,1016.5196
2021.02.12 11:49:10,6.2614746,-23.912342,-38.269264,0.7681772,1.0413288,12.313126,0.059936415,0.007797449,0.19609785,-0.084206924,-0.062306106,-2.74560976,1016.5198
2021.02.12 11:49:10,6.718025,-24.928394,-38.189873,0.5656555,-0.001361014,9.126733,0.43252486,-0.022587374,-0.12561794,1.49E-04,-0.061898701,-2.792798996,1016.5206
2021.02.12 11:49:11,7.355324,-25.47152,-38.061913,-1.1400555,-0.23423396,8.436057,0.188171,-0.007980175,0.09465869,0.027508747,0.134327009,-3.059157372,1016.5209
2021.02.12 11:49:11,6.2777634,-26.034874,-38.507195,-0.34570172,0.69569117,9.843293,-0.13173664,-0.061510727,0.16075714,-0.070516013,0.035106108,-2.932900667,1016.5209
2021.02.12 11:49:11,6.723549,-27.692368,-39.96215,0.46023104,1.1828601,8.819007,0.19274363,0.09867816,-0.023787819,-0.133151442,-0.052138966,-2.764244556,1016.5209
2021.02.12 11:49:11,6.310379,-26.584175,-38.994385,0.35271847,0.97594804,8.222276,-0.06310028,0.039611742,-0.025695428,-0.118035309,-0.042871628,-2.791495085,1016.5209
2021.02.12 11:49:11,6.3255005,-26.588173,-39.9041,0.3018122,1.1207371,9.092826,-0.16161391,-0.005997249,-0.019964546,-0.122569732,-0.033180162,-2.800481796,1016.5206
2021.02.12 11:49:11,6.6132736,-26.765305,-39.858337,-0.0939841,1.9806448,9.5263405,-0.10620778,-0.03517822,-0.08893397,-0.204982281,0.009865388,-2.810243607,1016.51984
2021.02.12 11:49:11,6.2471695,-26.37738,-40.86921,-0.21562593,2.7235692,9.475151,-0.15632328,-0.1094401,-0.001601887,-0.279828727,0.022753062,-2.779358625,1016.51984
2021.02.12 11:49:11,6.022461,-27.082417,-42.23339,1.0088649,1.8874224,11.200333,-0.06958965,-0.091895476,-0.08961322,-0.166285574,-0.08983212,-2.683242321,1016.51984
2021.02.12 11:49:11,7.2702026,-28.89513,-41.508972,0.5121263,1.3324403,10.919925,-0.031985592,-0.057534195,-0.22701305,-0.121286951,-0.046863999,-2.771169186,1016.5203
2021.02.12 11:49:11,7.1707916,-28.836533,-41.868553,0.19011472,-0.001429771,11.426575,0.07518896,0.116239905,-0.31887352,1.25E-04,-0.016636411,-2.875328541,1016.5206
2021.02.12 11:49:11,6.7845993,-30.374664,-42.05912,-0.26069143,0.55542916,8.8475685,0.26367718,0.045931928,-0.2309303,-0.062668197,0.029456232,-2.943884134,1016.5206
2021.02.12 11:49:11,6.734482,-30.796509,-41.758217,1.1691612,-0.36647642,8.545927,-0.094479986,-0.012729349,-0.10936554,0.042461861,-0.135965079,-2.778775454,1016.5208
2021.02.12 11:49:11,7.567032,-30.555546,-41.484924,0.5634592,0.16025473,10.297572,-0.23159017,0.027412975,-0.1533378,-0.015537884,-0.054663163,-2.82433939,1016.5208
2021.02.12 11:49:11,7.6018906,-31.720825,-41.744995,0.17925481,1.2270131,9.351836,0.08777588,-0.018512337,-0.1551257,-0.130436674,-0.019165527,-2.82955122,1016.5208
2021.02.12 11:49:11,8.73613,-29.922302,-43.851204,0.032309595,1.2354375,8.369598,-0.09665168,0.070722364,0.012968688,-0.146550775,-0.003860333,-2.77512908,1016.5206
2021.02.12 11:49:12,8.220039,-31.282928,-43.265747,0.88437796,1.5373219,9.51723,-0.033993695,0.009201698,0.09263514,-0.15947172,-0.092657797,-2.674473047,1016.5205
2021.02.12 11:49:12,8.582481,-32.862335,-43.18242,0.81256074,1.4988985,10.122614,-0.02157973,0.006833935,0.04534306,-0.146541432,-0.080100082,-2.713575363,1016.5205
2021.02.12 11:49:12,11.253212,-31.727478,-41.176353,0.6074753,1.759068,10.173014,0.047125,-0.051983234,-0.012595083,-0.170923486,-0.059643563,-2.630155325,1016.5205
2021.02.12 11:49:12,8.033424,-33.841404,-42.635254,0.21372163,1.475256,11.765063,-0.18867494,0.17622657,0.07058683,-0.124721512,-0.018163787,-2.839846134,1016.5205
2021.02.12 11:49:12,8.63443,-34.16763,-40.94049,1.7214168,0.47769412,12.273238,0.45110312,-0.011565113,-0.13178231,-0.038525254,-0.13934873,-2.730133772,1016.5206
2021.02.12 11:49:12,8.651703,-36.203327,-40.821358,0.038499486,0.5925699,7.249361,0.5109402,0.044592682,-0.33885884,-0.081558511,-0.005310692,-2.877230406,1016.5208
2021.02.12 11:49:12,8.773102,-37.43102,-39.3443,0.50887674,-0.07427099,9.30064,-0.06178972,-0.08695457,-0.11607393,0.007973484,-0.054659661,-2.860188723,1016.5208
2021.02.12 11:49:12,9.0811615,-37.34043,-39.042274,0.8440545,0.7883044,10.250754,0.20408909,-0.051923957,-0.54131293,-0.076493159,-0.082155392,-2.79858923,1016.5208
2021.02.12 11:49:12,9.966743,-38.02229,-40.506386,0.6718781,1.4867887,8.447252,0.12829597,-0.020269722,-0.6890618,-0.173686579,-0.079370975,-2.735900879,1016.5208
2021.02.12 11:49:12,11.1256485,-39.256916,-38.493927,1.5942302,0.9073324,9.432109,-0.031785116,-0.09760143,-0.85528404,-0.094567895,-0.167439088,-2.688108444,1016.5208
2021.02.12 11:49:12,12.472588,-38.602238,-37.93367,1.3527584,0.92790866,8.930275,-0.09703955,-0.16508423,-1.1741997,-0.102374792,-0.150337115,-2.663454056,1016.5208
2021.02.12 11:49:12,15.193787,-38.88187,-39.49009,0.49765763,1.6070976,9.514619,-0.12790255,-0.13322231,-1.4119645,-0.167104691,-0.052256905,-2.646392345,1016.5206
2021.02.12 11:49:12,18.501389,-38.92352,-39.134827,0.35471177,2.0811937,10.086755,-0.0564032,-0.1997103,-1.4289154,-0.203351766,-0.035151612,-2.562096596,1016.5205
2021.02.12 11:49:12,19.920753,-36.66286,-39.53244,0.99879926,1.0267648,10.089452,-0.120677985,-0.23819317,-1.5287834,-0.100927062,-0.098672912,-2.514217138,1016.5203
2021.02.12 11:49:12,22.06086,-36.361565,-39.46595,1.1336485,-0.13020298,11.060914,-0.18085079,-0.22826575,-1.5406893,0.011709569,-0.102134772,-2.526955128,1016.51984
2021.02.12 11:49:13,25.151115,-34.058517,-39.87841,1.1678663,-0.5954243,9.907159,0.06794354,-0.17833833,-1.7963213,0.059616406,-0.117339544,-2.455149889,1016.51984
2021.02.12 11:49:13,26.81247,-31.455635,-39.703476,0.5989846,-0.0538035,9.012456,0.032665446,-0.17068012,-1.7148733,0.005956692,-0.066364266,-2.393743277,1016.51984
2021.02.12 11:49:13,29.19439,-30.26038,-40.594345,0.72234964,0.04533549,8.608544,-0.26635623,-0.2833554,-1.4389921,-0.005247846,-0.083714671,-2.317426443,1016.5198
2021.02.12 11:49:13,32.515335,-24.801857,-41.50779,0.9609719,0.069375485,10.690879,-0.3657387,-0.1853906,-1.3194164,-0.006463074,-0.089646168,-2.168056726,1016.5198
2021.02.12 11:49:13,32.411873,-23.225555,-42.70514,0.4038899,0.74426335,9.51294,0.09582166,-0.20836946,-1.3293029,-0.078007907,-0.04243141,-2.098663092,1016.51984
2021.02.12 11:49:13,33.652916,-20.316784,-41.005714,0.47318807,0.8639188,8.414353,-0.18623544,-0.15844426,-1.0819062,-0.102153249,-0.056176651,-1.995330334,1016.51984
2021.02.12 11:49:13,33.341454,-18.211014,-41.566185,1.0160476,0.8727028,10.123917,-0.17619021,-0.11787921,-1.0009441,-0.085561812,-0.100026183,-1.950478077,1016.51984
2021.02.12 11:49:13,32.68476,-16.840286,-42.114204,0.551578,1.254191,9.7179365,-0.05946642,-0.1001072,-0.8906932,-0.128145918,-0.056697924,-1.889784813,1016.5193
2021.02.12 11:49:13,33.367935,-14.967563,-42.54371,0.52139074,1.1086943,10.316995,-0.05441961,-0.084744096,-0.7074786,-0.106916688,-0.050494116,-1.859297633,1016.5193
2021.02.12 11:49:13,32.892944,-13.693282,-43.323868,-0.26331204,1.2941227,10.651408,0.018210083,-0.025901271,-0.6440533,-0.120868631,0.024715833,-1.825224042,1016.5193
2021.02.12 11:49:13,34.811745,-12.850686,-43.942207,-0.26028067,1.1573535,12.076428,-0.21573576,-0.047729183,-0.16454661,-0.095521905,0.021549448,-1.817616343,1016.5193
2021.02.12 11:49:13,33.560005,-12.708001,-43.176254,1.0231853,0.3876613,10.131107,0.44560936,-0.067392,-0.33684206,-0.038052414,-0.100653119,-1.859192491,1016.5193
2021.02.12 11:49:13,33.52436,-13.783048,-42.494423,-0.41702637,0.15407275,8.463413,0.28380182,-0.053599693,-0.23222125,-0.018180503,0.049234197,-1.962843418,1016.5193
2021.02.12 11:49:13,33.35749,-11.725106,-41.48403,-0.8543825,-0.12783135,9.400043,-0.09894404,-0.022678485,0.06091714,0.013542363,0.090642281,-1.966948748,1016.51984
2021.02.12 11:49:14,33.084175,-13.573888,-42.78813,0.10158405,1.0841079,10.6717825,0.2369449,0.014111584,-0.12342203,-0.101234533,-0.009518651,-1.839230061,1016.51984
2021.02.12 11:49:14,33.90351,-13.320369,-42.228058,0.07291911,1.3008956,7.5282135,0.19505915,0.09058513,-0.0545897,-0.171104997,-0.009685808,-1.74368751,1016.51984
2021.02.12 11:49:14,32.36216,-13.778192,-42.0038,0.5889413,0.9055312,9.885436,-0.048455182,0.004149505,0.025413837,-0.091186844,-0.059506323,-1.852662683,1016.51984
2021.02.12 11:49:14,33.24385,-14.390349,-42.100693,0.19384982,1.685186,8.922654,0.20708153,-0.053000417,-0.16088086,-0.186624229,-0.02172216,-1.75788641,1016.51984
2021.02.12 11:49:14,32.967842,-13.353501,-42.84597,0.037030872,2.207785,8.422008,-0.05216506,-0.09024581,-0.07947584,-0.256373554,-0.004396889,-1.633726835,1016.51984
2021.02.12 11:49:14,32.498993,-13.891366,-41.73674,0.5142221,2.3491173,10.650554,-0.17184153,-0.17475055,-0.034025043,-0.216842428,-0.048243791,-1.712957978,1016.51984
2021.02.12 11:49:14,32.041885,-12.116353,-42.686348,0.6223197,2.4294522,10.621136,0.08745664,-0.20095398,-0.23584457,-0.224496812,-0.058525663,-1.650177956,1016.51984
2021.02.12 11:49:14,31.11679,-12.235038,-43.541916,0.111034155,1.0107393,10.981959,0.053236987,-0.060482472,-0.22082359,-0.091773115,-0.010110252,-1.825692892,1016.51984
2021.02.12 11:49:14,31.045433,-12.07632,-43.836502,0.50859326,0.36755323,10.2808695,0.15685038,0.04391734,-0.31937054,-0.035692349,-0.049429573,-1.879007578,1016.52
2021.02.12 11:49:14,32.371277,-11.693168,-42.311615,0.6458835,0.6351128,9.219741,-0.026363099,-0.013487507,-0.06618165,-0.068609923,-0.069940142,-1.818839669,1016.52
2021.02.12 11:49:14,31.291687,-13.3190565,-41.636627,1.3530283,-0.30475253,9.3533945,0.029554775,0.011724452,-0.17981753,0.032235216,-0.14365986,-1.944837332,1016.52
2021.02.12 11:49:14,30.88179,-12.263162,-42.99302,0.20061453,0.95011264,9.951236,-0.12242896,-0.025568267,-0.09733483,-0.09516909,-0.02015703,-1.823076248,1016.52014
2021.02.12 11:49:14,31.9057,-12.552367,-40.94464,0.31564996,1.6493577,7.9868426,0.11094003,0.006117718,-0.013587279,-0.203492135,-0.039500687,-1.6978755,1016.52014
2021.02.12 11:49:14,32.990326,-11.443799,-40.966713,0.8606408,0.98371553,8.7598715,-0.16481373,0.09911792,0.09310958,-0.111297987,-0.097933806,-1.763891578,1016.52
2021.02.12 11:49:14,31.688026,-11.949344,-39.94545,0.8673322,1.5580397,9.642328,-0.08593565,0.074067965,0.049101885,-0.159565419,-0.089709066,-1.737901807,1016.5193
2021.02.12 11:49:15,32.12902,-12.033732,-40.928734,0.53547347,2.3583374,9.301322,0.061700854,0.06700049,0.1120798,-0.247921914,-0.057506137,-1.631486654,1016.51917
2021.02.12 11:49:15,31.347649,-12.990678,-41.7465,0.73128897,1.8001909,9.933846,-0.045921165,0.020431444,0.23262766,-0.178798854,-0.07348334,-1.737845659,1016.51917
2021.02.12 11:49:15,31.010696,-13.208123,-41.17247,0.40137777,1.9723355,12.134936,-0.08123314,0.041672137,0.16787528,-0.161038145,-0.03306416,-1.77212739,1016.51917
2021.02.12 11:49:15,31.896835,-12.870965,-40.45307,1.2899929,0.55843896,11.040591,-0.071458764,0.08303762,0.19934091,-0.050196566,-0.116313539,-1.865067005,1016.51917
2021.02.12 11:49:15,31.98339,-12.9661665,-40.99138,-0.10099724,0.07885052,7.687481,0.33758885,-0.06702584,0.07676021,-0.01025576,0.013137129,-1.950314403,1016.52
2021.02.12 11:49:15,30.330002,-14.633849,-39.93602,-0.82318395,0.057474334,9.035774,0.3524505,-0.104711995,-0.06307624,-0.006334435,0.09085197,-2.066224098,1016.52
2021.02.12 11:49:15,30.027077,-13.394265,-40.806427,-0.23093222,1.2583367,10.032147,0.07341196,0.032000266,0.095837265,-0.124746092,0.023015156,-1.84335494,1016.52
2021.02.12 11:49:15,30.588448,-14.911811,-39.957886,0.13229634,1.2276177,8.09346,0.07617258,0.07342411,0.17498629,-0.150512964,-0.016344622,-1.846208096,1016.52
2021.02.12 11:49:15,30.864113,-13.563973,-38.947678,0.39109716,1.0187734,9.470412,-0.15471916,0.011434294,0.20303291,-0.107071683,-0.041273292,-1.854608059,1016.52
2021.02.12 11:49:15,31.175537,-13.962882,-39.182755,0.25387108,1.7603894,9.192164,0.01833868,-0.008208873,0.08488283,-0.189148307,-0.027611189,-1.770045042,1016.52
2021.02.12 11:49:15,29.765785,-13.372624,-39.75428,0.31816754,2.4292595,8.770039,-0.106235296,-0.051108237,0.10994643,-0.270051152,-0.036263015,-1.653243423,1016.52
2021.02.12 11:49:15,30.356842,-14.198344,-38.5235,1.033949,2.2975852,10.507392,-0.23200439,-0.12207507,0.04538503,-0.214272067,-0.098086283,-1.755625606,1016.52
2021.02.12 11:49:15,29.755295,-13.305196,-38.304543,0.97904307,2.2635264,10.479182,0.10440097,-0.12433555,-0.2454733,-0.211838886,-0.093157008,-1.737095475,1016.52
2021.02.12 11:49:15,30.039223,-13.280175,-39.261246,0.4006568,1.0748714,10.8457,-0.0384849,-0.03295603,-0.19483486,-0.098716304,-0.036924742,-1.862765551,1016.52
2021.02.12 11:49:16,29.52089,-12.684085,-38.416786,0.45394397,0.31259787,11.216861,0.118595995,0.11776976,-0.31187633,-0.027838584,-0.040447716,-1.929570436,1016.52
2021.02.12 11:49:16,30.25386,-12.34938,-38.682114,0.6878359,0.37179387,8.279972,0.1303919,-0.042300664,-0.14839424,-0.044718817,-0.082881942,-1.881938219,1016.51935
2021.02.12 11:49:16,30.546532,-12.209971,-39.263412,1.1366035,-0.22838897,8.508409,-0.14467944,0.023105662,-0.21247043,0.026600113,-0.132799685,-1.92534709,1016.51935
2021.02.12 11:49:16,29.58229,-11.122376,-38.424942,0.29604056,1.1760554,10.490196,-0.23428588,0.05092944,-0.1580456,-0.111599714,-0.028213199,-1.791218042,1016.51935
2021.02.12 11:49:16,29.704315,-10.763728,-38.443398,0.37246832,1.7352375,8.782754,0.067499794,-0.004570782,-0.051501922,-0.19489032,-0.04238366,-1.67788589,1016.51935
2021.02.12 11:49:16,29.726845,-10.0093775,-38.619255,1.0123134,1.1531419,9.040565,-0.13350013,-0.003461235,0.014635994,-0.126087338,-0.111510076,-1.73248148,1016.51935
2021.02.12 11:49:16,29.947533,-9.683422,-39.287033,1.0298945,1.3810974,9.07116,-0.067629136,0.009338077,-0.056045625,-0.150141135,-0.113050938,-1.694210052,1016.5187
2021.02.12 11:49:16,31.576065,-8.377147,-38.487343,0.7265628,1.469705,9.326356,-0.056920853,0.02612465,-0.020224284,-0.155836299,-0.077747226,-1.648990035,1016.5187
2021.02.12 11:49:16,30.532135,-9.644975,-39.27057,0.22518355,1.7209584,9.88509,-0.02255653,0.028425861,0.05657015,-0.172324941,-0.022776181,-1.662498236,1016.5187
2021.02.12 11:49:16,29.158264,-8.250482,-39.079987,0.66380215,2.0062535,10.521953,-0.12441848,-0.018757632,0.23710577,-0.18804647,-0.06300386,-1.607442617,1016.5187
2021.02.12 11:49:16,30.495125,-7.8331566,-38.86689,0.41346848,1.8411365,11.649404,0.008897454,0.10452887,0.24445651,-0.156651989,-0.03547778,-1.628685832,1016.5187
2021.02.12 11:49:16,29.34208,-9.576057,-38.435623,1.6516243,0.35325325,11.371971,0.07341999,0.01305661,0.31262654,-0.030731296,-0.144227967,-1.812830687,1016.5187
2021.02.12 11:49:16,29.895737,-9.252382,-37.808815,0.2107424,-0.1298921,8.964374,0.4787572,0.08101567,-0.1450376,0.014484797,-0.023504553,-1.878740788,1016.5187
2021.02.12 11:49:16,30.358932,-9.432124,-38.726913,-0.93949294,0.28629294,8.978559,-0.04023574,-0.018613655,0.08105104,-0.031702526,0.104257993,-1.871248245,1016.5187
2021.02.12 11:49:16,29.492043,-10.193962,-38.032608,-0.3249577,1.6432424,10.3848095,0.06769266,0.057795096,0.15907726,-0.156858519,0.03128143,-1.710793138,1016.5187
2021.02.12 11:49:17,30.523033,-10.394519,-38.411285,0.43256965,0.98286813,8.421318,0.26985148,-0.00508845,0.15268621,-0.116034657,-0.051320925,-1.75554049,1016.51807
2021.02.12 11:49:17,30.09159,-11.524819,-37.39012,0.23455365,1.2097092,8.157199,-0.0152603,-0.06511179,0.16093643,-0.147166595,-0.02874627,-1.76250124,1016.518
2021.02.12 11:49:17,29.02256,-10.379741,-39.14177,0.38160753,1.6609956,8.8808775,-0.08148104,-0.04113611,0.13240114,-0.184727818,-0.042943157,-1.676319122,1016.51794
2021.02.12 11:49:17,30.74337,-11.116113,-38.63188,0.45229682,2.3016746,9.123659,-0.11669326,-0.10224639,0.13308166,-0.246828109,-0.049533509,-1.623594522,1016.51794
2021.02.12 11:49:17,28.802818,-10.689481,-38.883736,1.0199081,2.5306122,9.654753,-0.1557586,-0.18841268,0.072511606,-0.254986316,-0.105247587,-1.612131715,1016.51794
2021.02.12 11:49:17,28.66668,-11.298255,-38.326294,1.3261489,2.0995226,10.603282,-0.07488996,-0.25940096,-0.12334808,-0.194004938,-0.124423586,-1.703747272,1016.51794
2021.02.12 11:49:17,29.043945,-9.582627,-40.25791,0.55048066,2.1557357,10.959316,-0.13510734,-0.12984385,-0.16831811,-0.193985388,-0.050187293,-1.633015871,1016.51794
2021.02.12 11:49:17,28.395271,-8.848398,-39.81996,1.2574435,-0.30669788,11.825665,0.044529025,0.07844538,-0.2788066,0.025783837,-0.105933689,-1.863806129,1016.51794
2021.02.12 11:49:17,28.747719,-8.667446,-39.715927,-0.2814254,0.8404131,8.729836,0.31301028,0.07377485,-0.3330315,-0.095923781,0.03222603,-1.741662502,1016.51794
2021.02.12 11:49:17,28.087875,-9.785388,-39.400078,1.4872351,-0.34954894,8.781745,-0.14899692,-0.02201682,0.05188359,0.03922509,-0.167763501,-1.88446784,1016.51807
2021.02.12 11:49:17,27.732147,-8.619879,-39.492767,0.91176575,0.31834948,10.162347,-0.19079913,-0.008137753,-0.107834905,-0.031190928,-0.089480422,-1.806043983,1016.51807
2021.02.12 11:49:17,28.533928,-6.5069733,-39.75099,0.5135848,1.4653754,9.007104,0.121471025,0.015395297,-0.11354076,-0.161021009,-0.056958292,-1.581216574,1016.5187
2021.02.12 11:49:17,28.097885,-8.532881,-39.779785,0.5854803,1.3279057,8.173663,-0.1482055,0.112065375,0.06520915,-0.160649866,-0.071507968,-1.648300767,1016.5187
2021.02.12 11:49:17,28.27092,-9.147736,-39.862267,1.159006,1.2061125,9.186689,-0.12174329,0.10392647,0.02093523,-0.129527345,-0.125498414,-1.70378685,1016.51825
2021.02.12 11:49:17,28.506264,-7.5609207,-40.707947,0.96509767,1.9129372,9.4252205,-0.10059136,0.05704605,0.0672854,-0.199225381,-0.102039605,-1.56991756,1016.51807
2021.02.12 11:49:18,29.228966,-7.5381746,-40.01216,0.92874694,1.9214689,9.825747,-0.07085674,0.013742937,0.12529086,-0.19228147,-0.094241768,-1.580305576,1016.51794
2021.02.12 11:49:18,28.71621,-6.39472,-39.935127,1.0822538,1.8223842,10.06446,0.03359383,-0.046104696,0.17092794,-0.178125247,-0.107120611,-1.564769745,1016.51794
2021.02.12 11:49:18,27.642982,-6.3925695,-40.581955,0.7597634,2.042016,10.901718,-0.08106673,0.09402331,0.13691652,-0.184727848,-0.069579579,-1.544510484,1016.51807
2021.02.12 11:49:18,29.351913,-8.877483,-39.830322,0.99142677,1.2820932,12.063667,-0.046568822,0.08356591,0.3060311,-0.105526671,-0.081998587,-1.72036922,1016.51807
2021.02.12 11:49:18,28.530067,-8.711845,-40.36795,2.0173903,-0.37559095,10.678329,0.43448356,0.019947609,-0.10200949,0.034548059,-0.186723009,-1.842394233,1016.51807
2021.02.12 11:49:18,28.960304,-10.345564,-40.81092,-0.70174783,0.61561865,9.177952,-0.21166827,0.011598226,0.16965625,-0.066781156,0.0763117,-1.852622628,1016.51807
2021.02.12 11:49:18,28.23655,-10.332878,-40.079773,0.5961741,1.302571,9.925427,0.21654995,0.10159205,0.040994678,-0.130257934,-0.059993256,-1.741363764,1016.51807
2021.02.12 11:49:18,29.143364,-10.188718,-40.267372,0.47891915,1.1047544,7.406317,0.055187214,0.049768038,0.05173803,-0.147767931,-0.064573698,-1.709984541,1016.51807
2021.02.12 11:49:18,28.587105,-9.287554,-39.861626,0.7206003,0.9840053,9.539471,-0.2508912,0.024516802,0.07519336,-0.102497436,-0.075395629,-1.740288138,1016.51807
2021.02.12 11:49:18,29.413643,-9.71881,-40.027596,0.5701785,1.8442796,9.27559,0.042778526,-0.007463543,-0.087499455,-0.195911393,-0.061393611,-1.636930704,1016.51794
2021.02.12 11:49:18,29.618828,-10.116124,-40.409554,0.32486343,2.6287806,8.91433,-0.10592085,-0.05355341,-0.03800612,-0.286585689,-0.036426716,-1.525547028,1016.51733
2021.02.12 11:49:18,29.02578,-8.781277,-40.836456,1.0716871,2.4687538,10.920386,-0.16381937,-0.09821206,-0.028558426,-0.221302599,-0.097823143,-1.578966498,1016.51685
2021.02.12 11:49:18,28.223457,-9.366044,-40.893356,1.0256814,2.413089,10.429079,0.17812839,-0.12888525,-0.27849212,-0.226324692,-0.098032959,-1.589951038,1016.51733
2021.02.12 11:49:18,28.252014,-10.277081,-39.81984,0.67437977,0.8624161,10.50105,-0.023343563,-0.032557655,-0.19761759,-0.081775054,-0.064132147,-1.799122334,1016.51794
2021.02.12 11:49:18,27.894623,-10.519954,-41.65171,0.32479838,-0.010189553,11.603127,0.13285175,0.103140496,-0.33321378,8.78E-04,-0.027985007,-1.919338584,1016.518
2021.02.12 11:49:19,28.464806,-9.115747,-40.657127,0.5612532,0.30992937,8.0190115,0.064650215,-0.18346728,-0.018281726,-0.038535919,-0.069876373,-1.810177445,1016.518
2021.02.12 11:49:19,28.057526,-9.039484,-40.7491,1.1142422,-0.27123776,8.995638,-0.1910844,0.040155333,-0.164834,0.029914537,-0.123237029,-1.87021184,1016.518
2021.02.12 11:49:19,28.27314,-8.790669,-41.818123,0.19589716,0.95538193,9.90566,-0.13770986,-0.031192744,-0.09980494,-0.09613201,-0.019773709,-1.73399055,1016.518
2021.02.12 11:49:19,28.65982,-8.021103,-41.26429,0.32485628,1.329091,8.481824,-0.08409076,0.044536196,0.05067526,-0.155322686,-0.038281575,-1.627501607,1016.518
2021.02.12 11:49:19,28.880486,-7.663557,-42.515564,0.9554956,1.1634107,9.235035,-0.16886696,0.05276709,0.062064514,-0.124659248,-0.103097372,-1.652644992,1016.51794
2021.02.12 11:49:19,29.017395,-8.748105,-42.2293,0.8367297,1.9052767,9.71191,-0.07379229,0.017009558,0.09134349,-0.193021894,-0.08594279,-1.601297736,1016.51776
2021.02.12 11:49:19,27.846603,-7.7974367,-41.40831,0.9958928,1.9131404,9.39323,0.08565522,0.044593118,0.12548742,-0.199833885,-0.105627798,-1.572388887,1016.51733
2021.02.12 11:49:19,28.257065,-8.405831,-40.849884,1.4826368,1.5127937,10.07158,0.024781106,-0.0049863,0.13328156,-0.147523075,-0.146160185,-1.658433914,1016.51733
2021.02.12 11:49:19,28.592628,-8.490901,-40.82614,1.2668751,1.8381462,10.184142,0.059856877,0.037092727,-0.035364274,-0.177231222,-0.12376108,-1.625730157,1016.51733
2021.02.12 11:49:19,27.963669,-8.856581,-39.829758,0.30075786,2.143769,12.030057,-0.042496737,0.111935824,0.042722218,-0.176295966,-0.024995327,-1.634906173,1016.51776
2021.02.12 11:49:19,27.6818,-9.525432,-37.651596,2.176977,0.5086651,11.73941,0.41254824,-0.021659186,0.030780409,-0.042577602,-0.183358878,-1.805674672,1016.51733
2021.02.12 11:49:19,28.554947,-10.700988,-38.83902,1.1159824,-0.26523426,7.6198096,0.42153826,0.014853848,-0.4259086,0.034427486,-0.145424142,-1.907900929,1016.51733
2021.02.12 11:49:19,28.611244,-10.278321,-38.50997,-0.32924324,0.3458384,9.217992,0.101204626,0.047578458,-0.30815333,-0.037476297,0.035702284,-1.883196235,1016.51733
2021.02.12 11:49:19,27.505775,-9.656671,-38.451256,0.8190337,1.1556855,9.697793,0.063616954,0.002983392,-0.38816956,-0.118193738,-0.084255733,-1.743456006,1016.51733
2021.02.12 11:49:20,28.794281,-8.766715,-37.24196,0.8647995,1.4737186,8.193133,0.11071384,-0.011635942,-0.5169743,-0.177006632,-0.105162352,-1.651753306,1016.517
2021.02.12 11:49:20,28.357933,-8.187788,-37.653244,1.3462511,1.3387194,9.190266,-0.16502401,-0.049594577,-0.6413023,-0.143143177,-0.145452142,-1.671176672,1016.51624
2021.02.12 11:49:20,28.029015,-7.587553,-38.59671,1.5724211,2.008968,9.330699,-0.21553168,-0.15427233,-1.0685412,-0.209207103,-0.166952595,-1.58503747,1016.516
2021.02.12 11:49:20,25.97522,-3.104374,-37.487907,1.1976335,2.1205542,10.221841,-0.13750781,-0.1536263,-1.3666643,-0.203200132,-0.116632424,-1.443400025,1016.5152
2021.02.12 11:49:20,25.558868,-1.1923733,-37.304016,1.0137603,1.5525885,9.811938,-0.014287904,-0.13890116,-1.5810481,-0.156115994,-0.102953769,-1.428781748,1016.51514
2021.02.12 11:49:20,24.73198,-0.63191175,-36.03685,0.35520855,1.0801572,10.737971,-0.19585527,-0.08096075,-1.515462,-0.100200593,-0.033067614,-1.459624887,1016.51514
2021.02.12 11:49:20,23.230873,0.5994911,-35.486,1.4865786,-0.7715662,11.253036,0.095500685,-0.100797296,-1.6010767,0.067870192,-0.13134414,-1.627870083,1016.51514
2021.02.12 11:49:20,21.89074,2.568883,-36.399063,0.043956023,0.5766468,8.836136,0.060982663,-0.16027601,-1.5128736,-0.065166853,-0.004974534,-1.351183891,1016.51495
2021.02.12 11:49:20,21.55603,4.511159,-34.62497,1.3800598,-0.2705936,9.01106,-0.12242529,-0.3236782,-1.2292758,0.029674249,-0.151970938,-1.436372519,1016.5149
2021.02.12 11:49:20,20.487572,4.7093763,-35.124985,1.0995516,0.04284287,9.771557,-0.3294599,-0.32245386,-1.1246701,-0.004356922,-0.11205437,-1.373635411,1016.5149
2021.02.12 11:49:20,20.27221,7.732956,-34.81636,0.75662464,1.1275071,9.461633,-0.15118147,-0.28694344,-1.125255,-0.118232995,-0.079797849,-1.103998899,1016.5146
2021.02.12 11:49:20,17.67205,6.788566,-34.261932,1.0907277,0.7185688,8.748602,-0.13080236,-0.20553674,-1.0590521,-0.08132451,-0.124034494,-1.165197134,1016.51404
2021.02.12 11:49:20,16.266739,6.6179137,-33.725433,0.92494804,1.1592727,9.281089,-0.25732294,-0.17404051,-0.9711985,-0.123657107,-0.099331446,-1.077213764,1016.5132
2021.02.12 11:49:20,16.124352,7.553117,-33.18038,0.865335,1.9814358,9.780862,-0.16390993,-0.14974919,-0.90505654,-0.199120671,-0.088242508,-0.947090805,1016.5131
2021.02.12 11:49:21,14.0895,9.202996,-33.55065,1.1462675,1.4367486,10.466119,-0.051935505,-0.11039249,-0.7900998,-0.135622501,-0.109086953,-0.920925856,1016.5131
2021.02.12 11:49:21,13.443764,9.54134,-34.21109,0.7169154,1.3413559,9.864399,0.0836157,-0.07351865,-0.8242033,-0.134799331,-0.0725495,-0.851709247,1016.5131
2021.02.12 11:49:21,12.424248,9.870237,-33.119614,0.08439481,1.6389621,9.557082,-0.08419946,0.025221452,-0.73275584,-0.169833317,-0.008830375,-0.693199813,1016.5132
2021.02.12 11:49:21,12.917244,9.580996,-34.198517,0.071763836,1.8616129,12.054222,-0.17558321,0.18758045,-0.47101703,-0.15322338,-0.005953349,-0.729485095,1016.5132
2021.02.12 11:49:21,11.806511,8.497503,-34.21987,1.4208277,0.7159068,10.498327,0.24132751,-0.13202989,-0.35664028,-0.067473806,-0.134521142,-0.991417706,1016.51404
2021.02.12 11:49:21,11.843033,7.5786505,-34.75216,-0.11253514,0.57677513,9.240809,0.24420772,0.10172829,-0.32979673,-0.062330604,0.012177459,-0.86471051,1016.5146
2021.02.12 11:49:21,11.844093,10.027542,-34.602394,-0.48549548,-0.06990339,9.127551,0.07341584,-0.1257172,0.001523999,0.007647544,0.053140037,-0.797109246,1016.5146
2021.02.12 11:49:21,10.849052,8.698609,-35.064034,0.20679344,1.0766066,10.156247,-0.057418823,-0.046880003,-0.07764595,-0.105588257,-0.020358393,-0.75354439,1016.5149
2021.02.12 11:49:21,10.160492,7.328453,-34.90251,0.45985374,0.5687806,8.521376,0.32178617,0.050409608,-0.23917207,-0.066552095,-0.053912438,-0.897457898,1016.51514
2021.02.12 11:49:21,11.227173,8.98666,-34.352844,0.2612854,1.2673222,9.415239,-0.0874056,0.021394525,-0.12409105,-0.133748218,-0.027744206,-0.735936701,1016.5149
2021.02.12 11:49:21,10.195404,8.768972,-35.038216,-0.32753077,2.4447317,8.609346,-0.02494101,-0.030875986,-0.2489462,-0.276489407,0.03802529,-0.455046892,1016.5146
2021.02.12 11:49:21,10.844704,9.84433,-35.78064,0.25737873,2.6731846,9.878708,-0.04903442,-0.042239863,-0.2114071,-0.264186054,-0.026047992,-0.560217857,1016.5146
2021.02.12 11:49:21,9.554611,10.03203,-36.483856,1.2382076,2.204684,11.425172,-0.27689743,-0.19141622,-0.015337526,-0.189541012,-0.10795407,-0.683410287,1016.5146
2021.02.12 11:49:21,7.920944,9.881484,-36.211464,0.62239504,1.4941286,10.395574,0.0679257,-0.20022365,-0.2600873,-0.142498061,-0.059799775,-0.596006632,1016.5149
2021.02.12 11:49:21,6.4996185,8.742134,-37.319786,0.05719167,0.27294832,10.6528,0.055436593,-0.14586036,-0.2901343,-0.02561624,-0.005368647,-0.604740918,1016.5149
2021.02.12 11:49:22,7.207741,9.57001,-36.025925,0.53568286,0.19491847,9.8316,0.05934285,0.038770963,-0.4089893,-0.019793762,-0.054432001,-0.728058457,1016.5152
2021.02.12 11:49:22,7.1024475,9.681921,-36.139404,1.7784281,-0.63839835,8.459073,0.031015307,-0.07445702,-0.06503867,0.073720671,-0.20722121,-1.109071732,1016.5152
2021.02.12 11:49:22,5.317047,9.617992,-36.925423,0.4248971,0.4915352,10.114011,-0.26903385,-0.027657047,-0.11133458,-0.048518497,-0.041986052,-0.54243058,1016.5152
2021.02.12 11:49:22,6.027382,9.86988,-36.483765,0.4170275,1.4523841,8.906001,0.08590967,-0.05094127,-0.03532446,-0.161482349,-0.04679127,-0.461045355,1016.5152
2021.02.12 11:49:22,5.44503,10.526777,-36.56002,0.94716805,1.0627328,8.216212,-0.11224536,0.088481575,0.0562762,-0.127794564,-0.114773735,-0.569424689,1016.5146
2021.02.12 11:49:22,4.9770966,12.370937,-36.57337,1.1645885,1.4183054,9.220198,-0.12930413,0.06991854,0.067406885,-0.151444808,-0.12564306,-0.49565503,1016.5145
2021.02.12 11:49:22,5.439003,10.818893,-37.977783,1.4628582,1.973176,9.873162,-0.061846435,0.052784655,0.058322854,-0.19517754,-0.14709495,-0.552742481,1016.5138
2021.02.12 11:49:22,5.0293274,10.70411,-38.357086,1.207144,1.5376004,9.871367,0.026985826,0.042052146,-0.06707863,-0.153397292,-0.121683262,-0.534375012,1016.5132
2021.02.12 11:49:22,4.7064285,10.690672,-38.75933,0.889982,1.7524095,9.953381,0.015206087,0.021061037,-0.098692596,-0.173596993,-0.089177892,-0.443681449,1016.5138
2021.02.12 11:49:22,3.966339,10.996294,-38.388336,0.09157413,2.427616,11.094128,-0.066071145,0.14448224,-0.022481136,-0.215417281,-0.008254101,-0.222391307,1016.5145
2021.02.12 11:49:22,3.5077362,12.741812,-39.50757,0.77677584,1.1179341,12.4211235,-0.06891745,0.07210018,0.32833472,-0.089586735,-0.062455345,-0.352922559,1016.5146
2021.02.12 11:49:22,2.797058,12.62514,-37.29557,1.5198923,-0.55455625,9.536472,0.3338906,-0.102331236,-0.02198296,0.057363313,-0.158047557,-0.687236488,1016.51495
2021.02.12 11:49:22,2.0258636,12.321768,-38.480812,-0.7202711,-0.1551558,8.744424,0.25583848,-0.022113726,-0.010241704,0.017681668,0.082183667,0.097628869,1016.51495
2021.02.12 11:49:22,0.46242523,11.896824,-38.692703,0.15825404,0.6554358,9.581629,-0.015168389,-0.07916741,0.07003334,-0.068289779,-0.016514901,-0.075764753,1016.51495
2021.02.12 11:49:23,0.034729004,11.396385,-39.201454,0.15199529,1.1302638,8.493421,0.284528,0.06526234,-0.089644924,-0.132276997,-0.017893739,-0.044676613,1016.51495
2021.02.12 11:49:23,-0.237854,12.295362,-38.53985,0.10447117,0.69272536,7.7941957,-0.05390367,-4.83E-04,0.03690267,-0.088636242,-0.013402912,-0.01779649,1016.51495
2021.02.12 11:49:23,-0.72844696,12.798316,-38.5744,-0.052669317,1.286816,9.359711,-0.16728178,0.06336044,0.042021085,-0.136625916,0.005627178,0.052677296,1016.5145
2021.02.12 11:49:23,-1.2962799,13.610384,-38.32187,0.38549542,2.1895306,9.385651,-0.10815706,-0.09321422,0.112306386,-0.228999615,-0.041049778,-0.012635349,1016.5145
2021.02.12 11:49:23,-1.8693695,14.487768,-36.679634,0.57717174,2.4592373,9.52235,-0.23817842,-0.1799243,0.120208636,-0.252293497,-0.060538258,-0.015225955,1016.5138
2021.02.12 11:49:23,-2.9613876,13.757329,-36.502724,0.19468653,1.9174875,10.120773,0.030315569,-0.18272866,-0.11859986,-0.187207446,-0.019233959,0.110706285,1016.5145
2021.02.12 11:49:23,-3.583435,14.090955,-36.467766,1.217454,-0.31532785,11.80379,-0.12554029,0.020622188,-0.13053772,0.026566897,-0.102777511,-0.013493516,1016.51495
2021.02.12 11:49:23,-4.4859695,13.7068405,-36.23044,0.3494216,0.5421941,9.300801,0.26344493,-0.06450674,-0.19089577,-0.058188558,-0.037551317,0.195132598,1016.5158
2021.02.12 11:49:23,-3.779953,14.898537,-35.8245,1.7346373,-0.6032432,8.563209,-0.060494155,-0.006353613,-0.115135394,0.068934202,-0.199864149,-0.268341929,1016.5158
2021.02.12 11:49:23,-3.7499619,15.452574,-36.116432,0.74014425,0.45620146,10.100146,-0.10401514,0.035612397,-0.21467021,-0.045016587,-0.0731498,0.064372964,1016.5158
2021.02.12 11:49:23,-5.007271,12.733082,-35.390892,0.4494783,1.549421,8.728304,0.19353367,-0.0338061,-0.117487244,-0.175458938,-0.051451188,0.168010265,1016.5158
2021.02.12 11:49:23,-5.7041473,13.724483,-35.457558,0.89399225,1.173091,8.154265,2.24E-05,0.100789174,0.00435083,-0.142042324,-0.109198801,0.096460678,1016.51495
2021.02.12 11:49:23,-5.3038406,13.961416,-35.643097,1.0833229,1.3362292,9.3061695,-0.063984245,0.07507904,-0.007301018,-0.14166683,-0.115887515,0.060586743,1016.5145
2021.02.12 11:49:23,-4.644005,13.823558,-34.97075,1.0735275,2.0126464,9.355189,0.020910596,0.020593883,0.027108554,-0.210566029,-0.114252336,0.030000878,1016.5138
2021.02.12 11:49:24,-5.1665344,14.211166,-34.58288,1.1168277,1.9437767,9.699674,-0.07343405,0.046344575,0.041053515,-0.196511552,-0.114635944,0.056625519,1016.5138
2021.02.12 11:49:24,-5.2994385,14.097253,-35.12993,1.2357103,1.6715498,10.348628,0.06448874,-0.00415933,-0.051525395,-0.159030095,-0.118845418,0.056066543,1016.5138
2021.02.12 11:49:24,-5.411171,12.714535,-34.294006,-0.15006162,2.230508,10.769085,-0.112419814,0.13153005,-0.017309688,-0.204214305,0.01393358,0.294847459,1016.5138
2021.02.12 11:49:24,-3.5474472,14.484139,-35.489212,1.2794937,1.5274752,12.964459,-0.07489977,0.061130185,0.28286096,-0.116717637,-0.098373838,0.002411895,1016.5138
2021.02.12 11:49:24,-4.6159515,13.404823,-35.680916,1.3038205,-0.18408965,8.525386,0.44344378,-0.11073737,-0.05979875,0.021341702,-0.151758045,-0.065695494,1016.5138
2021.02.12 11:49:24,-3.772766,12.949625,-36.210915,-0.7118029,-0.4634656,8.927094,0.0824221,0.07981321,-5.18E-04,0.051706355,0.079566777,0.539731443,1016.51276
2021.02.12 11:49:24,-3.9296417,13.107312,-35.671127,-0.5559547,1.0497135,9.974875,0.023411332,0.086708054,0.021907035,-0.104688548,0.055677898,0.339416862,1016.51276
2021.02.12 11:49:24,-3.6179123,11.791218,-35.735893,0.45161414,1.0669465,8.600293,0.10692659,0.05961797,0.11563845,-0.123260565,-0.052463293,0.107509263,1016.51276
2021.02.12 11:49:24,-4.1103516,11.372451,-35.082977,0.427068,0.98923606,8.653794,-0.05783193,0.027645413,0.080787666,-0.113681197,-0.049310368,0.154100955,1016.5122
2021.02.12 11:49:24,-3.2460022,12.94204,-34.720573,0.22576241,1.8058176,9.241832,-0.03178683,-0.008013938,0.03715705,-0.192908689,-0.024423461,0.12311811,1016.5122
2021.02.12 11:49:24,-3.327713,12.824873,-34.15657,0.03994404,2.3156924,8.623139,-0.06704504,-0.07705589,0.11852504,-0.262351573,-0.004632159,0.148069635,1016.5122
2021.02.12 11:49:24,-3.2951431,12.639357,-34.5412,1.4817953,2.4479897,11.606835,0.13011803,-0.18999682,-0.1306086,-0.20623669,-0.126978859,-0.056714907,1016.5121
2021.02.12 11:49:24,-3.5936508,13.329557,-34.430344,0.96926564,1.5720774,9.76305,0.09073678,-0.092286445,-0.19444878,-0.158884823,-0.098954722,0.009366438,1016.5121
2021.02.12 11:49:24,-4.541832,12.355705,-34.853416,0.8986957,-0.56760687,10.805676,0.06420186,0.16997217,-0.46833342,0.05230011,-0.082977876,0.154653266,1016.5121
2021.02.12 11:49:25,-5.668289,10.963607,-34.814873,-0.5252947,0.91128016,9.027427,-0.011301225,0.014100684,-0.11917009,-0.100436181,0.058123212,0.491167396,1016.5115
2021.02.12 11:49:25,-5.0433884,11.320629,-34.432297,1.8543521,-0.34042943,9.441478,-0.13803598,0.030674899,-7.67E-05,0.035366096,-0.193936318,-0.165756166,1016.5115
2021.02.12 11:49:25,-5.1049805,12.453123,-35.038055,0.31950504,0.8923343,10.027359,-0.11093164,0.024958322,-0.069885686,-0.088711381,-0.031852551,0.251409978,1016.5115
2021.02.12 11:49:25,-5.9348373,11.734995,-33.880196,0.57603186,1.4175158,8.517385,-0.05844928,-0.017464915,0.12102201,-0.164545581,-0.067527309,0.20852986,1016.5115
2021.02.12 11:49:25,-5.204033,12.330532,-35.509445,1.3707403,0.8637206,8.885659,-0.16041775,0.08631511,0.06918183,-0.095773622,-0.153057814,-0.017227968,1016.5115
2021.02.12 11:49:25,-4.3986588,11.852222,-34.39006,0.93941593,1.9022964,9.513155,-0.13024847,0.014138183,0.041071687,-0.196430907,-0.09843003,0.054211114,1016.5115
2021.02.12 11:49:25,-4.7925644,12.870833,-34.13822,0.711044,2.475424,9.372876,0.043603446,0.004109152,0.12215493,-0.257501841,-0.075716846,0.103201106,1016.5097
2021.02.12 11:49:25,-3.1297455,13.207432,-34.92946,1.4214425,1.6984653,10.173023,-0.018105244,-0.09095706,0.23063955,-0.16386874,-0.138827831,-0.092243403,1016.5097
2021.02.12 11:49:25,-3.7430115,13.407015,-35.66684,1.3234946,1.6220824,9.906638,0.1375154,-0.049471844,0.029879026,-0.160892159,-0.132810339,-0.053328551,1016.5097
2021.02.12 11:49:25,-3.002411,13.256779,-35.520485,0.30243534,1.9715904,11.32589,-0.009146594,0.13738592,0.044341154,-0.172290906,-0.026696665,0.106742688,1016.5097
2021.02.12 11:49:25,-4.3569717,12.619726,-35.565933,0.6765806,1.1104096,11.610124,0.062042862,0.14063063,0.21449827,-0.095190957,-0.058209226,0.141915172,1016.5097
2021.02.12 11:49:25,-3.150322,12.836798,-36.041893,1.130249,0.26839027,8.851981,0.3071885,0.048651647,0.13043639,-0.030066565,-0.126996011,-0.103093192,1016.5101
2021.02.12 11:49:25,-3.814209,11.860215,-37.17926,0.012543038,-0.19115806,8.709232,0.008691208,-0.014367443,0.1077912,0.021945352,-0.001440199,0.328273088,1016.5103
2021.02.12 11:49:25,-3.5318756,11.259487,-36.6185,-0.26359943,0.9039521,9.795417,0.011459991,-0.050022867,0.05508851,-0.09198942,0.026903991,0.300624132,1016.5115
2021.02.12 11:49:25,-4.018654,9.709894,-36.700066,-0.005032226,1.4591862,9.077916,0.16435656,0.06011598,0.06972765,-0.159376889,5.54E-04,0.256322116,1016.5115
2021.02.12 11:49:25,-3.1901627,12.044278,-36.3572,0.4896823,1.2188958,8.206429,-0.021296807,0.014029339,0.15206993,-0.147193357,-0.059599902,0.05894782,1016.5115
2021.02.12 11:49:26,-4.4003143,13.1408205,-38.09137,0.5371585,1.4348769,9.1063385,-0.08824552,0.007086551,0.071038395,-0.156017274,-0.058919046,0.113074303,1016.51135
2021.02.12 11:49:26,-4.2979813,11.245819,-36.360085,0.52599555,2.483686,9.289935,-0.06926424,-0.09141783,0.07808492,-0.260843426,-0.056559552,0.109743387,1016.51135
2021.02.12 11:49:26,-4.200264,13.806226,-37.694275,0.99028283,2.815684,10.389884,-0.17324857,-0.18708703,0.022481196,-0.263506591,-0.095025159,0.026054775,1016.51135
2021.02.12 11:49:26,-4.7875443,12.324848,-37.65355,1.1508975,2.3538065,11.177176,0.19415389,-0.10071949,-0.2970342,-0.20649682,-0.102606922,0.045607537,1016.51135
2021.02.12 11:49:26,-5.956894,12.070088,-38.18222,0.3738509,1.6091889,10.346907,0.14135873,0.026395129,-0.3340501,-0.154188603,-0.036115952,0.251269847,1016.51135
2021.02.12 11:49:26,-5.427582,10.642557,-37.79596,0.5187225,0.3743031,10.983106,0.055527713,0.058544118,-0.2465623,-0.03402881,-0.047194052,0.296032608,1016.51135
2021.02.12 11:49:26,-6.657158,10.83049,-38.66282,0.70921665,0.35489532,8.871688,0.076193415,-0.074374646,-0.050298344,-0.039854806,-0.079771928,0.279666007,1016.512
2021.02.12 11:49:26,-5.9586334,12.551491,-38.187874,0.3317337,0.86328775,9.869155,-0.19801332,-0.002673956,-0.13588311,-0.087202229,-0.033600532,0.28674978,1016.5125
2021.02.12 11:49:26,-7.784279,11.861486,-37.853813,0.82653683,1.4420811,8.395219,-0.06756586,-0.02869468,0.04504604,-0.169310987,-0.098137014,0.218697622,1016.5125
2021.02.12 11:49:26,-6.999481,13.145686,-38.22088,1.7101549,0.9055112,8.923245,-0.16334231,0.033047795,-0.010919565,-0.099335916,-0.189355582,-0.018882215,1016.512
2021.02.12 11:49:26,-7.558052,12.5862255,-38.178238,1.316835,1.5872798,9.263338,-0.14896564,0.008408345,-0.11187217,-0.168045312,-0.141209438,0.111107305,1016.512
2021.02.12 11:49:26,-7.8398285,12.145048,-37.570534,0.7677863,2.2853646,9.55034,-0.05880357,-0.005176236,-0.053040486,-0.23415184,-0.080221087,0.228585988,1016.512
2021.02.12 11:49:26,-7.273369,13.738363,-38.364,1.0552486,2.0920966,10.272761,-0.037356265,0.009195213,0.052983668,-0.199883446,-0.102363937,0.155187428,1016.512
2021.02.12 11:49:27,-6.443207,12.782188,-38.47467,0.6773763,2.174136,10.419461,0.1841849,0.03879288,0.06372565,-0.205288231,-0.064919323,0.19025524,1016.512
2021.02.12 11:49:27,-5.9300003,13.160839,-38.867905,0.4174359,1.9180704,11.366328,-0.048622217,0.18630509,0.19419855,-0.167064697,-0.03670916,0.227082103,1016.5125
2021.02.12 11:49:27,-5.6348495,13.200773,-38.889557,2.202095,-0.02859515,11.189743,0.108941145,-0.14026396,0.25168008,0.002507381,-0.194312751,-0.15001823,1016.5133
2021.02.12 11:49:27,-6.7003098,13.214048,-38.64051,0.11061219,-0.5041451,8.308475,0.20455228,0.07478246,-0.16524139,0.060598753,-0.013312391,0.518346071,1016.5133
2021.02.12 11:49:27,-6.1874313,13.026522,-40.228645,-0.76529163,0.9518824,10.390691,-0.07033498,0.060892265,0.03365686,-0.091108762,0.073518917,0.503114879,1016.5135
2021.02.12 11:49:27,-4.8447037,13.257708,-39.87622,0.58575654,1.3371712,9.388989,0.25396758,0.11291395,0.13522357,-0.141196862,-0.062306847,0.12468116,1016.5136
2021.02.12 11:49:27,-4.115036,13.044663,-39.842194,0.9800577,0.42399934,8.345906,0.08632473,0.063203536,0.06241694,-0.050413817,-0.116894402,-0.037186414,1016.5136
2021.02.12 11:49:27,-5.0388184,12.739559,-39.407913,0.57545376,1.2730689,8.941714,-0.032401655,0.017937591,-0.0545235,-0.141135588,-0.064267464,0.136445478,1016.5136
2021.02.12 11:49:27,-4.745941,12.322698,-39.03782,0.5152963,2.032929,8.810822,-0.01486087,0.011434363,-0.039373394,-0.226388738,-0.058417931,0.117557131,1016.5141
2021.02.12 11:49:27,-5.332123,13.232864,-40.147644,0.58601165,2.1307032,9.112133,-0.1061593,-0.095147915,-0.04283417,-0.229247138,-0.064222693,0.123725601,1016.5141
2021.02.12 11:49:27,-4.58255,13.03851,-39.007423,0.62305874,2.3710384,10.743213,-0.09396044,-0.13738139,-0.056770805,-0.216865838,-0.057930678,0.108988807,1016.5141
2021.02.12 11:49:27,-5.25795,10.741515,-38.88002,0.96117204,2.2235577,10.408817,0.13805087,-0.17480348,-0.19340815,-0.209593505,-0.092080966,0.088749282,1016.5141
2021.02.12 11:49:27,-4.8320923,11.680742,-39.510628,1.3693824,0.2971477,10.286212,-0.11159139,-0.037772406,-0.1928516,-0.028627498,-0.132349744,-0.033084005,1016.51416
2021.02.12 11:49:27,-6.095398,11.108204,-39.544556,0.39970192,0.32323578,10.823891,0.11568355,0.09870612,-0.53692245,-0.029833984,-0.036910981,0.360457778,1016.51556
2021.02.12 11:49:27,-6.664055,10.382036,-39.437675,0.9780746,0.029568126,8.855912,-0.2152867,-5.03E-04,0.034044173,-0.00331861,-0.109997332,0.214852795,1016.51556
2021.02.12 11:49:28,-6.128685,12.210215,-39.24285,0.61635965,1.4036685,10.0464525,-0.16362113,-0.012186239,0.06672291,-0.138561994,-0.061274175,0.208495185,1016.51556
2021.02.12 11:49:28,-5.9046783,12.401236,-38.6175,1.0790099,1.4955097,8.247732,-0.003523139,0.027241232,0.11986692,-0.177891165,-0.130086258,0.044190761,1016.51556
2021.02.12 11:49:28,-4.8813705,12.124313,-38.18953,1.4972502,1.0810674,9.126291,-0.18261383,0.05100329,0.07420762,-0.116365619,-0.162610427,-0.082534619,1016.51556
2021.02.12 11:49:28,-4.930786,12.176239,-38.78196,1.2028061,1.7588149,9.700429,-0.09726533,0.07707146,-0.012892071,-0.178030133,-0.123365477,0.006404115,1016.51556
2021.02.12 11:49:28,-5.5516434,13.139614,-38.616684,1.3525285,1.7861972,9.593072,0.07770806,0.09026146,-0.068483084,-0.182325527,-0.140066907,0.005302275,1016.51556
2021.02.12 11:49:28,-4.5668335,12.128981,-37.48757,0.80783397,1.6283951,9.848323,0.016675752,0.054732237,-0.06027148,-0.16332604,-0.08184433,0.081945792,1016.51465
2021.02.12 11:49:28,-3.89637,11.736707,-39.041977,0.40665677,2.0919526,10.163569,0.004428694,-0.002136192,0.033551175,-0.202835724,-0.039989885,0.119736761,1016.51465
2021.02.12 11:49:28,-3.9823837,12.134127,-39.35367,-0.22614674,2.5119016,11.4058485,0.00965678,0.0856726,0.24756347,-0.216727704,0.019824663,0.230467454,1016.51465
2021.02.12 11:49:28,-3.0621643,11.921103,-38.587852,1.5321717,0.6299569,12.011444,0.102976136,0.006320985,0.49024412,-0.051977981,-0.126874149,-0.131841615,1016.51465
2021.02.12 11:49:28,-3.2029495,12.470978,-39.00049,1.1459576,-0.2681217,8.470672,0.49498346,-0.14133897,-0.053911787,0.03135692,-0.134468943,-0.180796295,1016.5157
2021.02.12 11:49:28,-3.4270172,11.618538,-38.14733,-0.6829553,0.25129485,8.22143,0.06495897,0.013247011,0.120763816,-0.030451497,0.082879849,0.475628436,1016.5157
2021.02.12 11:49:28,-2.0386276,11.471561,-38.83615,0.38067365,1.3720021,10.470486,0.021727847,0.008163805,0.09979061,-0.130207807,-0.036340822,0.038113758,1016.5157
2021.02.12 11:49:28,-3.7319565,10.385442,-38.82366,0.75582886,1.4864846,8.231364,0.2124025,0.0039157,-0.010424314,-0.17792958,-0.091566265,0.009713815,1016.5157
2021.02.12 11:49:28,-3.2353134,10.388046,-38.77321,0.44299075,1.1624211,8.340368,-0.06725595,0.003960766,-8.72E-04,-0.138288364,-0.05306419,0.074892886,1016.5157
2021.02.12 11:49:28,-2.948639,10.981884,-38.97441,0.28514954,1.6494632,9.115793,-0.14548625,-0.015944015,0.021639563,-0.178923115,-0.031270631,0.097050264,1016.5157
2021.02.12 11:49:29,-2.756546,10.717968,-38.19182,0.5123449,2.4905336,8.953729,-0.12281485,-0.050304554,-0.014048996,-0.270876259,-0.05715907,0.027711613,1016.51465
2021.02.12 11:49:29,-3.3875885,10.264441,-37.42565,0.42804575,3.0815475,9.916663,-0.21698593,-0.044436224,-0.007696654,-0.30102098,-0.043137513,0.084380321,1016.51447
2021.02.12 11:49:29,-3.0973053,11.4350395,-37.47435,1.4294764,2.1968193,11.263488,0.061472535,-0.04544105,-0.18099137,-0.191125259,-0.126237541,-0.089368388,1016.51447
2021.02.12 11:49:29,-3.2208405,12.884859,-38.3891,0.70326066,2.085238,10.369119,0.05160464,-0.058907572,-0.2423628,-0.198010728,-0.067718893,0.030458713,1016.51447
2021.02.12 11:49:29,-5.067253,11.176287,-37.3161,0.8917497,0.2562603,11.539993,-0.037689,0.055932682,-0.26546305,-0.022136657,-0.077121451,0.179394931,1016.5157
2021.02.12 11:49:29,-4.545517,10.673689,-37.217957,0.11200819,0.83391815,8.936713,0.17995748,-0.07624131,-0.2648732,-0.093037046,-0.012532832,0.281770736,1016.5157
2021.02.12 11:49:29,-5.470604,10.989518,-38.67975,1.0875777,-7.57E-04,8.786603,-0.06975042,0.042661052,-0.11341848,8.55E-05,-0.123150438,0.061615415,1016.5157
2021.02.12 11:49:29,-5.555031,10.403345,-38.027412,0.72721106,0.40657917,10.056239,-0.18179382,-0.050234966,0.006125508,-0.040303402,-0.072188757,0.230182156,1016.5157
2021.02.12 11:49:29,-4.347603,10.999492,-38.16104,0.7369445,1.1237235,8.766308,0.072267435,-0.061944157,-0.055205952,-0.12704806,-0.083868355,0.071860261,1016.5157
2021.02.12 11:49:29,-4.852249,10.59117,-38.637474,0.5105901,1.5032536,8.726429,-0.09110414,0.06051446,0.038034875,-0.170304537,-0.058444135,0.150821969,1016.5157
2021.02.12 11:49:29,-4.698532,9.349297,-37.445778,1.3523912,1.7900282,9.263597,-0.004999103,-0.01177432,0.15342735,-0.188925371,-0.144965768,-0.046687424,1016.51447
2021.02.12 11:49:29,-5.4956894,10.585081,-38.694138,1.2219573,1.6880112,9.780059,-0.049101993,-0.03576902,0.13399546,-0.169619977,-0.124299616,0.038501836,1016.51416
2021.02.12 11:49:29,-4.0656204,10.181284,-38.971,0.7557065,2.0179288,10.124261,0.07288428,0.012233935,0.12811333,-0.196206063,-0.074504964,0.065367192,1016.51416
2021.02.12 11:49:30,-4.34597,12.013767,-38.4291,0.38668847,2.2842367,11.5305605,0.012222938,0.13379957,0.25970015,-0.195463583,-0.033523399,0.157230288,1016.51416
2021.02.12 11:49:30,-4.1334,11.692064,-38.56774,1.090249,1.5500425,12.172599,0.20910515,0.071541965,0.28950447,-0.126157373,-0.089327477,0.041019816,1016.51416
2021.02.12 11:49:30,-3.6112976,9.862637,-38.70656,0.3849988,0.70858663,8.527769,0.5681843,-0.10082228,0.08655558,-0.082817264,-0.045115851,0.14181757,1016.51416
2021.02.12 11:49:30,-3.336998,10.30398,-39.024956,-0.62309486,0.15026252,8.902893,0.06868865,0.05490362,0.36627838,-0.016835166,0.069873966,0.504858792,1016.51416
2021.02.12 11:49:30,-2.8778381,9.362875,-40.44799,-0.08761359,0.7791503,9.997643,0.111369014,-0.026581949,0.3546209,-0.077773213,0.0087632,0.253515869,1016.51416
2021.02.12 11:49:30,-2.6352997,10.823959,-38.842384,-0.39834115,1.7402077,7.5058675,0.14055775,0.031896416,0.3754824,-0.227512017,0.053020895,0.238838106,1016.51306
2021.02.12 11:49:30,-1.2396088,9.917725,-38.721497,-0.05855304,1.4384371,8.532283,-0.25383258,0.117865145,0.6902559,-0.167013258,0.006862421,0.09256772,1016.51306
2021.02.12 11:49:30,0.11834717,10.494591,-38.34291,1.0049402,1.3084468,9.978566,-0.10862402,0.06420035,0.5967644,-0.129733011,-0.10037145,-0.252617806,1016.51294
2021.02.12 11:49:30,0.6445465,12.868322,-39.096886,0.623704,2.306164,8.6884985,-0.070371084,-0.06938456,0.5282074,-0.258808345,-0.071662098,-0.152424037,1016.51227
2021.02.12 11:49:30,0.09840393,13.393124,-38.25837,0.8817368,2.5244362,10.772168,-0.10591132,-0.08244994,0.53857046,-0.229453415,-0.081671163,-0.14718987,1016.51227
2021.02.12 11:49:30,1.6203461,13.479238,-39.355568,0.63579786,2.3966038,10.170528,0.167363,-0.23327419,0.5699961,-0.230985299,-0.062432505,-0.182315409,1016.51227
2021.02.12 11:49:30,1.5092087,14.274245,-38.56723,0.6162721,0.8891573,9.906489,-0.09347018,-0.15505482,0.722738,-0.089343384,-0.062128868,-0.217595279,1016.51227
2021.02.12 11:49:30,2.42688,13.420891,-39.222443,0.36344266,0.071884036,12.176503,0.016333977,-0.009837734,0.659296,-0.005900808,-0.029839009,-0.257561117,1016.51227
2021.02.12 11:49:30,3.9968643,14.022417,-41.456543,-0.29927164,1.3381599,8.617775,0.28929722,-0.09321506,0.8613482,-0.153957456,0.034713306,-0.125655755,1016.5125
2021.02.12 11:49:30,6.649246,13.176002,-41.85028,0.6029411,-0.4345056,9.103318,0.09933099,0.1780565,1.003624,0.047590159,-0.066136517,-0.698469222,1016.51294
2021.02.12 11:49:31,8.025558,13.81849,-41.54641,0.008869786,0.21650617,10.652413,0.118874125,0.19884208,1.1423441,-0.020321809,-8.33E-04,-0.502701402,1016.5125
2021.02.12 11:49:31,10.995148,13.462016,-41.671753,0.5225131,0.79206854,8.625422,0.23385234,0.30996916,1.2969966,-0.091406092,-0.060504328,-0.666912138,1016.51227
2021.02.12 11:49:31,13.215157,12.052762,-41.660233,1.2757635,1.2367635,9.3611,0.028491331,0.21995865,1.2722448,-0.130167052,-0.135449037,-0.831252396,1016.5122
2021.02.12 11:49:31,15.446068,12.227389,-42.078217,1.4226699,2.2042043,8.961114,0.018547773,0.15773909,1.2942152,-0.238315329,-0.157446355,-0.802437127,1016.5122
2021.02.12 11:49:31,18.55735,11.136164,-42.070732,1.7947617,1.8384852,9.753297,0.022236975,0.12630768,1.290294,-0.183305174,-0.181980059,-0.965955734,1016.5122
2021.02.12 11:49:31,19.819962,12.781001,-42.58477,2.0455093,1.5741581,9.810881,0.09997764,0.041062158,1.031858,-0.155799627,-0.20554933,-0.989287853,1016.5114
2021.02.12 11:49:31,20.144371,10.111223,-43.239006,0.9936561,1.9270905,10.436179,0.10023265,0.2960302,0.74096936,-0.181793928,-0.094926469,-0.946988821,1016.5114
2021.02.12 11:49:31,21.927696,9.056302,-42.35219,0.44876146,1.9156438,12.305083,-0.03959023,0.29400346,0.98724335,-0.15433839,-0.036453445,-0.991869211,1016.5122
2021.02.12 11:49:31,24.993538,8.336437,-42.904602,2.1656406,-0.32505777,10.358779,0.2463196,-0.067651294,1.0011559,0.030706201,-0.206094891,-1.357508421,1016.5122
2021.02.12 11:49:31,24.980423,5.8685555,-43.515564,0.49350846,-0.61584824,8.604487,0.29086223,0.1725068,0.63262296,0.071334243,-0.057292011,-1.466941357,1016.5122
2021.02.12 11:49:31,26.305122,4.250539,-43.202637,-0.10784551,0.6981928,10.016417,0.022111705,0.2384595,0.64503676,-0.069588259,0.010766459,-1.296748281,1016.5122
2021.02.12 11:49:31,27.093292,2.8422165,-43.933113,0.7574504,0.7709553,9.46359,0.16447456,0.28257966,0.68393975,-0.081027932,-0.079868123,-1.370248199,1016.5125
2021.02.12 11:49:31,29.400894,1.0174694,-43.824768,0.71131796,0.36738515,8.698058,0.1700618,0.1908889,0.5900988,-0.042072229,-0.081597358,-1.487252831,1016.5125
2021.02.12 11:49:31,29.876328,0.3357525,-43.365448,0.56989616,1.1832243,8.969085,0.047558796,0.13592423,0.49502414,-0.130904153,-0.063454747,-1.396488786,1016.5122
2021.02.12 11:49:32,30.091805,0.93135977,-43.04207,0.5749297,2.0116827,8.675895,0.09008891,0.13165744,0.4256646,-0.227362424,-0.066170737,-1.271595955,1016.5122
2021.02.12 11:49:32,32.432564,-1.3619361,-42.93641,1.2134286,2.196704,9.012288,-0.03847216,-0.03580148,0.42221248,-0.237024829,-0.133836702,-1.371436834,1016.5114
2021.02.12 11:49:32,31.87722,-3.9897833,-42.355637,1.6296536,1.7313322,10.14347,-0.07260666,-0.0910444,0.21135728,-0.166954622,-0.159299076,-1.51391077,1016.5114
2021.02.12 11:49:32,32.03344,-2.8416748,-43.81894,0.9334361,2.4698582,10.6350765,0.053527284,-0.11579782,-0.09810573,-0.22734791,-0.087545231,-1.392559052,1016.5114
2021.02.12 11:49:32,31.875328,-3.2399502,-43.70971,0.37144294,1.9988089,11.056724,-0.0110355,-0.012371028,0.004937616,-0.17874743,-0.033581674,-1.43986249,1016.5122
2021.02.12 11:49:32,31.537941,-3.6434546,-42.871246,1.1819624,0.5653978,11.834805,0.16164048,0.11684772,-0.07276541,-0.047501907,-0.099541649,-1.620207071,1016.5122
2021.02.12 11:49:32,31.985527,-4.4275875,-43.3685,1.0068107,0.3375586,8.084626,0.31912386,-0.08318086,-0.001466244,-0.041409411,-0.123896115,-1.646282077,1016.5125
2021.02.12 11:49:32,33.194054,-5.9468746,-43.23604,1.187137,-0.33612263,8.398682,-0.06330813,0.092341766,-0.03155729,0.039606255,-0.140417799,-1.760017514,1016.5125
2021.02.12 11:49:32,33.29669,-5.7673874,-43.0568,0.47993383,0.9905904,10.028991,-0.055229694,0.07278904,0.052571233,-0.098341532,-0.047818169,-1.618137002,1016.5125
2021.02.12 11:49:32,33.53401,-5.847128,-42.28483,0.39279124,1.679691,7.9042816,0.078775026,0.06194346,0.121085666,-0.209138572,-0.049652632,-1.494997263,1016.5122
2021.02.12 11:49:32,34.3263,-5.9597044,-41.686996,0.9850805,1.3372532,8.718619,-0.21484908,0.24738319,0.23589295,-0.151245385,-0.112508699,-1.576753616,1016.5122
2021.02.12 11:49:32,35.389244,-7.846986,-41.500732,1.4540161,1.7813944,10.213474,-0.098912686,0.12123273,0.17225412,-0.170988932,-0.141412303,-1.60966897,1016.51056
2021.02.12 11:49:32,36.406715,-6.640395,-42.04773,1.310778,2.4228172,9.099774,0.08631137,-0.002600923,0.11652074,-0.257671952,-0.143061072,-1.502814531,1016.50964
2021.02.12 11:49:32,36.324608,-8.099027,-42.044212,1.2552063,1.619222,9.875198,-0.005672865,0.013934506,0.065799385,-0.161247611,-0.126428992,-1.619939089,1016.5094
2021.02.12 11:49:32,36.140343,-8.455849,-41.734238,0.039564595,1.7834839,11.776919,-0.16817324,0.26385266,0.04140767,-0.150296062,-0.00335949,-1.62943399,1016.50964
2021.02.12 11:49:33,37.9162,-7.625906,-41.393333,1.785807,0.2916098,11.27946,0.061157584,-0.20592925,0.053688057,-0.025529565,-0.157020479,-1.722862959,1016.51056
2021.02.12 11:49:33,38.122314,-9.34301,-39.653214,-0.35381258,0.33290803,8.625396,0.31491467,-0.002902322,-0.14438713,-0.038544733,0.040996883,-1.780188799,1016.51056
2021.02.12 11:49:33,39.566254,-9.284776,-40.472588,-0.63703316,0.19716318,9.241405,-0.056868967,-0.028089391,0.2087786,-0.021281041,0.068823628,-1.794975162,1016.51056
2021.02.12 11:49:33,39.107887,-8.637362,-38.637184,-0.106748074,1.2730464,9.822241,0.080290884,0.07630515,0.13886398,-0.128882512,0.010867568,-1.662190199,1016.51056
2021.02.12 11:49:33,39.579636,-10.842488,-38.920982,0.5429714,1.2823535,8.567493,0.08944651,0.006359133,0.21300188,-0.148280531,-0.06329111,-1.697719932,1016.5099
2021.02.12 11:49:33,39.896713,-11.5026045,-39.94583,0.9307495,1.2508806,8.937009,0.013263933,-0.045851637,0.18281227,-0.13832441,-0.103771426,-1.7177068,1016.5099
2021.02.12 11:49:33,39.747437,-12.658671,-38.91469,0.7051893,1.7847875,8.687645,-0.027873734,-0.111239225,0.06873084,-0.201974303,-0.080993943,-1.693306923,1016.50964
2021.02.12 11:49:33,39.84732,-11.911384,-39.17707,0.92767054,2.2218668,9.057312,-0.1355684,-0.12062383,-0.01508026,-0.239356995,-0.102066368,-1.64616394,1016.50964
2021.02.12 11:49:33,40.732956,-11.001994,-39.9569,1.2922654,2.2866201,10.840408,-0.18641435,-0.12215745,-0.16924444,-0.206467181,-0.118648276,-1.650823116,1016.50964
2021.02.12 11:49:33,41.015884,-9.571815,-39.3078,0.6518716,2.4735696,10.802497,0.06531785,-0.12933782,-0.38886994,-0.224705532,-0.060271446,-1.597090483,1016.50964
2021.02.12 11:49:33,42.892,-8.033067,-38.476097,1.0322412,0.9578757,10.50277,-0.017428603,-0.04190246,-0.2816772,-0.09051685,-0.097968124,-1.676283479,1016.50964
2021.02.12 11:49:33,40.883347,-7.098837,-37.946198,0.37686718,0.53557426,10.346207,0.07955586,0.13011202,-0.4410129,-0.051684894,-0.036409538,-1.693460345,1016.50964
2021.02.12 11:49:33,41.127487,-5.593771,-39.118988,1.0744051,0.45684704,8.792861,0.015550775,-0.03749751,-0.08315168,-0.051527359,-0.12158788,-1.654939055,1016.50964
2021.02.12 11:49:33,41.94673,-5.896364,-38.52922,1.6027626,-0.09050793,8.938014,-0.16525947,0.026212774,-0.13556679,0.009966866,-0.177433982,-1.699022651,1016.5099
2021.02.12 11:49:34,41.85608,-5.2857084,-38.58303,0.83737636,0.7130634,10.430713,-0.054461777,-0.035387132,-0.15796877,-0.068037495,-0.080108084,-1.635125518,1016.5103
2021.02.12 11:49:34,42.246582,-4.3254986,-37.51519,0.58056587,1.4252468,8.216123,0.02799955,0.046086285,-0.15271017,-0.171341389,-0.070544526,-1.53484726,1016.5103
2021.02.12 11:49:34,42.359604,-3.5763693,-37.573868,0.90101963,1.5675751,8.759704,-0.09250132,0.055988465,0.020883452,-0.176168367,-0.102499135,-1.52147007,1016.5099
2021.02.12 11:49:34,42.169113,-4.3919706,-37.95317,1.4019641,1.765886,9.49974,-0.06623197,-3.50E-04,0.10210935,-0.181864098,-0.146521583,-1.542074084,1016.5099
2021.02.12 11:49:34,41.978607,-3.9865599,-37.80777,1.5704542,1.6788431,9.209317,-0.07174008,-0.058509972,0.06544909,-0.177806348,-0.168904111,-1.541056514,1016.50964
2021.02.12 11:49:34,41.12474,-3.9142685,-38.818115,0.6535008,2.2085426,10.714122,-0.0534437,0.085986964,0.003079859,-0.202919602,-0.060918871,-1.491034389,1016.50964
2021.02.12 11:49:34,42.356934,-3.6465387,-37.77157,0.17846496,1.8570719,11.967469,-0.04872613,0.21711104,0.22575139,-0.15393196,-0.014911401,-1.522124648,1016.50964
2021.02.12 11:49:34,42.068665,-3.0555124,-37.72899,2.3801,-0.08106909,10.491708,0.30225888,-0.19255017,0.15171035,0.007535357,-0.223079681,-1.636779785,1016.50964
2021.02.12 11:49:34,41.896774,-6.676508,-37.5353,-0.2177022,0.0548417,7.5273833,0.33733344,0.12599811,-0.101878926,-0.007282452,0.028913304,-1.726276278,1016.50964
2021.02.12 11:49:34,40.667664,-4.971939,-38.02836,-0.35323146,0.57935476,10.125144,-0.2227674,0.01439124,0.22406468,-0.057122417,0.03487242,-1.639693022,1016.50964
2021.02.12 11:49:34,40.928696,-5.7218122,-38.203598,0.43675622,1.7274923,9.708867,0.29682654,0.033147104,0.095613874,-0.175912306,-0.044954985,-1.553810954,1016.50964
2021.02.12 11:49:34,40.43094,-5.542362,-38.263382,0.77842504,1.0579677,8.016103,0.038752567,-3.38E-04,0.18460003,-0.130614519,-0.096804142,-1.59454906,1016.50964
2021.02.12 11:49:34,40.761703,-7.4072447,-38.057495,0.7364729,1.3819917,9.542605,0.026950637,-0.03529037,0.06265142,-0.14340277,-0.077024654,-1.624835014,1016.50964
2021.02.12 11:49:34,40.88501,-6.7894783,-37.93782,0.30774155,2.3050056,8.38367,0.033261538,-0.046750493,0.049241032,-0.268138319,-0.036690786,-1.497549772,1016.50964
2021.02.12 11:49:34,40.816772,-6.7378187,-37.95967,1.0391239,2.1263583,9.198547,-0.19465074,-0.123437665,0.047448,-0.225784764,-0.112489194,-1.551792741,1016.50934
2021.02.12 11:49:35,40.057526,-6.2922134,-38.64608,1.3141284,2.212879,11.176047,-0.11080569,-0.07362209,-0.20075873,-0.194169611,-0.117046908,-1.563364148,1016.50916
2021.02.12 11:49:35,40.016785,-6.1001577,-38.314835,0.6038754,2.7078884,10.252219,0.003414804,-0.112952,-0.2642344,-0.257802635,-0.058833942,-1.493858337,1016.50916
2021.02.12 11:49:35,39.201782,-5.3999195,-38.422707,1.0533714,0.4136516,10.892967,-0.043202434,0.034158267,-0.19589277,-0.037779883,-0.096402228,-1.666343689,1016.50916
2021.02.12 11:49:35,38.907745,-4.6075583,-39.10562,-0.08837547,1.110922,10.143173,0.25775784,0.08342588,-0.30138952,-0.109085187,0.008712583,-1.578213096,1016.50934
2021.02.12 11:49:35,39.192276,-3.5771542,-38.95037,1.3812047,0.12468491,8.420891,-0.024784116,0.057901748,0.104891814,-0.014610339,-0.162573621,-1.639781833,1016.50934
2021.02.12 11:49:35,40.189026,-3.6424484,-38.545845,1.2436731,0.08293736,10.00218,-0.104925424,0.12957813,-0.07624127,-0.008228378,-0.12370529,-1.646113515,1016.50934
2021.02.12 11:49:35,39.02986,-2.9485378,-38.03141,0.55313796,1.4439129,9.253242,0.06968997,-0.018390132,-0.10965228,-0.154524177,-0.059706699,-1.508515954,1016.5095
2021.02.12 11:49:35,39.41414,-2.2220426,-39.441193,0.8420181,1.3582901,8.352978,-0.030939732,0.0903069,0.017943013,-0.160401568,-0.100465171,-1.491219759,1016.5095
2021.02.12 11:49:35,39.34868,-1.6783142,-38.45852,1.077412,1.6187557,9.179307,-0.06388176,0.015264653,0.057704035,-0.173387349,-0.116839409,-1.475931048,1016.5095
2021.02.12 11:49:35,38.88491,-3.0610275,-38.34246,1.3465573,2.0403779,9.624725,0.06714687,0.023565294,0.01571545,-0.206942946,-0.139003783,-1.486576557,1016.5095
2021.02.12 11:49:35,38.5195,-3.543992,-38.85067,0.90159005,2.0852783,9.087441,0.013313342,-0.115117766,0.0978774,-0.224497944,-0.098889135,-1.469056964,1016.5095
2021.02.12 11:49:35,39.292145,-2.211926,-38.5839,0.9783943,2.0082362,10.234454,-0.068903364,0.018493468,0.08100319,-0.192903653,-0.095308453,-1.466570377,1016.5095
2021.02.12 11:49:35,39.003006,-1.2950659,-39.074303,0.51523703,2.646061,11.054718,-0.07768351,0.13212438,0.0661899,-0.234694555,-0.046574183,-1.391409278,1016.5095
2021.02.12 11:49:35,38.218285,-2.7751398,-39.426125,0.8479428,1.5655252,11.777626,-0.031457134,0.008122083,0.39582616,-0.131811768,-0.071872063,-1.520616293,1016.5099
2021.02.12 11:49:36,37.63806,-2.3454576,-39.77803,1.7243199,-0.4447193,9.108256,0.27067387,-0.09822659,0.039905723,0.047937084,-0.18709971,-1.658003569,1016.5095
2021.02.12 11:49:36,37.713936,-2.644556,-39.934074,-1.1267699,0.40169153,8.6245,-0.045509983,0.11135039,-0.04875473,-0.04615036,0.129911751,-1.589090347,1016.5095
2021.02.12 11:49:36,37.78203,-2.8137178,-39.434044,1.2224151,0.9056311,8.480092,0.24361627,-0.02540448,0.2041537,-0.105311327,-0.143164963,-1.553643942,1016.5095
2021.02.12 11:49:36,38.658813,-4.088011,-39.12047,0.7044522,0.6552176,8.522656,-0.008957148,0.031640567,0.013349512,-0.076468825,-0.082468934,-1.602903128,1016.5095
2021.02.12 11:49:36,37.28463,-3.4127865,-40.00183,0.26288,1.8745546,8.868602,-0.008656399,-0.08543794,0.010244215,-0.208214954,-0.029632974,-1.449228525,1016.50934
2021.02.12 11:49:36,37.878426,-2.2416182,-40.827217,0.33793163,2.4803421,8.73442,-0.09885296,-0.0686506,0.09998697,-0.276492864,-0.038670365,-1.356513739,1016.50934
2021.02.12 11:49:36,37.71428,-3.8973322,-40.05918,0.8936284,2.5005863,9.484708,-0.21792705,-0.13721456,0.0990888,-0.256691068,-0.093940496,-1.439428806,1016.5092
2021.02.12 11:49:36,36.639122,-3.5951757,-40.14766,1.5878444,2.4229572,11.279803,-0.06475178,-0.084640175,-0.1305682,-0.209584177,-0.139849886,-1.482857466,1016.5092
2021.02.12 11:49:36,36.243088,-1.2699928,-41.03569,0.7012195,2.4527633,10.45654,0.031248437,-0.15608944,-0.15320057,-0.229903653,-0.066960119,-1.379346609,1016.5092
2021.02.12 11:49:36,36.22883,-1.1052585,-40.773422,0.8236359,0.5793378,10.97618,-0.03378954,-0.003810074,-0.16569147,-0.052584864,-0.074898109,-1.548061848,1016.5092
2021.02.12 11:49:36,36.580048,-1.5638437,-40.709442,0.5856559,0.5364433,10.132119,0.28903693,0.1420954,-0.21245822,-0.052807458,-0.057737675,-1.558650732,1016.50916
2021.02.12 11:49:36,36.66259,0.27781916,-40.455017,1.9120418,-0.65708333,8.33281,-0.105815314,-0.0493797,-0.07500733,0.07670676,-0.225554913,-1.618018627,1016.50903
2021.02.12 11:49:36,36.313354,-0.47974157,-40.64016,0.60337764,0.7469813,9.70377,-0.118231386,0.13882124,-0.27792546,-0.076679446,-0.062099766,-1.507519245,1016.50903
2021.02.12 11:49:36,36.53237,0.1195879,-41.275772,0.09118257,1.8832669,9.148445,0.050295185,-0.015255347,-0.02882405,-0.203010619,-0.009966671,-1.348107576,1016.50903
2021.02.12 11:49:37,38.464546,-0.27157164,-40.054756,0.8559604,1.3832475,8.108436,-0.055311482,0.09694134,0.15847515,-0.16805093,-0.105174661,-1.436891317,1016.50903
2021.02.12 11:49:37,37.91278,0.44527864,-39.79077,1.208826,1.3670684,9.341952,-0.112564474,0.10995728,0.14765286,-0.144120365,-0.128682539,-1.444798112,1016.5084
2021.02.12 11:49:37,38.78453,0.35142183,-40.993492,1.3933272,2.0774605,9.775844,-0.029783513,0.033964716,0.08711144,-0.207359418,-0.141574055,-1.401050091,1016.50836
2021.02.12 11:49:37,37.22367,-1.0261302,-40.85405,1.3063093,2.0374954,9.369756,-0.00993635,0.03770202,0.07246211,-0.212131143,-0.138524741,-1.420581102,1016.50836
2021.02.12 11:49:37,37.61489,-1.3636684,-40.751076,0.8711484,2.1463149,10.309162,0.064923175,0.075307846,0.08043583,-0.204553947,-0.084302068,-1.418731332,1016.50836
2021.02.12 11:49:37,38.88466,-1.6436243,-40.81835,0.57838243,2.5124629,10.929091,0.019149717,0.1454479,0.060785413,-0.225656524,-0.052872043,-1.400259018,1016.50836
2021.02.12 11:49:37,38.702553,-1.9481864,-39.69783,0.650126,1.4222108,11.975456,0.013737826,0.124705315,0.28139362,-0.118034624,-0.054234963,-1.509929776,1016.50836
2021.02.12 11:49:37,38.26194,-3.303608,-40.284897,1.6932534,-0.008398284,9.363779,0.39790022,-0.14110367,-0.057717793,8.83E-04,-0.178896904,-1.645015001,1016.5084
2021.02.12 11:49:37,39.248993,-3.4954453,-41.219353,0.0778825,1.271674,10.956721,-0.19672272,-0.004673876,0.1492561,-0.115543492,-0.007108074,-1.539254308,1016.5084
2021.02.12 11:49:37,38.37229,-3.4868622,-40.668198,0.589349,1.6542444,9.250237,0.30061752,-0.04958232,0.06869125,-0.176611319,-0.063625768,-1.49099052,1016.5084
2021.02.12 11:49:37,39.225296,-3.9823627,-40.954033,0.59299594,0.7420042,7.5974526,0.054966193,-0.016054127,0.043756817,-0.097062752,-0.077894017,-1.577950597,1016.5084
2021.02.12 11:49:37,39.10087,-3.048789,-40.675453,0.31406605,1.1917415,9.011306,-0.20767264,-0.005999537,0.04802694,-0.131407693,-0.034838345,-1.518354893,1016.50836
2021.02.12 11:49:37,37.493637,-4.117817,-41.157005,0.50582683,2.5706213,9.44351,-0.08309189,-0.003088777,-0.06675478,-0.265408039,-0.053512298,-1.413669348,1016.50836
2021.02.12 11:49:37,38.013412,-4.048689,-40.931313,0.6175211,3.0745306,9.019286,-0.040128555,-0.08283792,0.049167417,-0.327817231,-0.068360053,-1.365504384,1016.50824
2021.02.12 11:49:37,39.034935,-4.8968153,-40.93624,1.5193065,2.29694,9.981831,-0.13652547,-0.08185841,-0.053615008,-0.22368513,-0.151047885,-1.50609386,1016.50824
2021.02.12 11:49:38,37.92086,-4.125861,-41.572487,0.81206053,2.8871033,10.254137,0.08885089,-0.16229859,-0.28999782,-0.273635656,-0.079028517,-1.415837407,1016.50824
2021.02.12 11:49:38,37.26995,-3.2912922,-41.74819,0.98979706,1.697865,11.144124,-0.26918715,-0.08600132,-0.08413666,-0.150608599,-0.088585392,-1.509854078,1016.50824
2021.02.12 11:49:38,36.721672,-1.7647028,-42.23722,0.73192245,0.45287725,12.224957,0.24348144,0.17519681,-0.48705918,-0.036962241,-0.059799783,-1.578110099,1016.50836
2021.02.12 11:49:38,37.168938,-4.032235,-41.81134,0.098210715,0.7545417,7.511427,0.1655942,-0.050342042,-0.15086298,-0.100108162,-0.013074096,-1.567675352,1016.50836
2021.02.12 11:49:38,36.594902,-3.237381,-41.70398,1.3040814,-0.071493655,8.976179,-0.16110688,0.09376228,-0.15758504,0.007881909,-0.144273058,-1.654021025,1016.5085
2021.02.12 11:49:38,38.371017,-2.607809,-41.661697,0.533188,1.0701056,10.157971,-0.09948498,-0.006000282,-0.08402068,-0.104816027,-0.052441485,-1.532572389,1016.50903
2021.02.12 11:49:38,38.11946,-3.2691498,-41.518646,0.08646065,1.9682182,7.9263825,0.046890885,-0.020297315,-0.035794184,-0.243375659,-0.010907526,-1.398008108,1016.5092
2021.02.12 11:49:38,37.168396,-1.8483801,-41.35318,0.7556928,1.8093847,9.131565,-0.12028759,0.055037193,0.13346264,-0.19496277,-0.08256796,-1.433798075,1016.5096
2021.02.12 11:49:38,36.85016,-2.6620321,-42.074593,1.0004712,2.1762264,9.471077,-0.058821768,0.04817229,0.13158897,-0.224647701,-0.105244063,-1.428977609,1016.50903
2021.02.12 11:49:38,37.805717,-3.308467,-41.267998,1.1713696,2.1998339,9.229037,0.013150008,0.014648221,0.13543579,-0.232198,-0.126247153,-1.451789975,1016.50903
2021.02.12 11:49:38,36.875336,-3.9587784,-41.97921,1.3446785,1.7543758,10.021335,-0.04371589,0.07676005,0.015383317,-0.171798676,-0.133384869,-1.514508843,1016.50903
2021.02.12 11:49:38,37.432938,-3.2564955,-42.90341,0.577935,2.1038837,10.1393175,-0.004753958,0.12035465,-0.044097252,-0.204271883,-0.056937788,-1.444181561,1016.50903
2021.02.12 11:49:38,37.184875,-3.3860617,-40.83338,-0.2744382,2.0146062,11.510306,-0.14452063,0.18200174,0.17430681,-0.173222929,0.023838306,-1.464752793,1016.50977
2021.02.12 11:49:38,37.297997,-5.9119406,-42.19433,1.4420824,0.6612335,11.609062,0.003192087,0.009077835,0.2709952,-0.056463879,-0.123587318,-1.660545588,1016.5108
2021.02.12 11:49:39,37.14322,-5.848958,-41.854683,0.060742874,-0.18093334,7.594423,0.26740834,-0.06347768,-0.024150025,0.023819234,-0.007998182,-1.751245975,1016.5115
2021.02.12 11:49:39,37.704506,-5.3264627,-41.88675,-0.25880438,0.7567685,9.937509,-0.23361813,0.045968015,0.0764679,-0.075980373,0.0260373,-1.62696898,1016.5116
2021.02.12 11:49:39,37.231483,-7.327406,-40.518196,0.3214492,1.6532596,9.740718,0.22839136,-0.001649289,0.03858679,-0.168034732,-0.032988593,-1.587833166,1016.5116
2021.02.12 11:49:39,35.73951,-6.3154917,-41.9376,0.65393555,0.79491425,8.128512,0.089400746,-0.073377594,0.06510459,-0.097171389,-0.080276705,-1.635039568,1016.5116
2021.02.12 11:49:39,36.669083,-6.9668226,-41.99018,0.49121642,0.9289611,8.726097,-0.07715324,-0.039189477,-0.06902273,-0.10589195,-0.056233447,-1.640338778,1016.5116
2021.02.12 11:49:39,35.90119,-6.437888,-42.065613,0.18749799,2.6657524,9.227127,-0.16648145,-0.110790886,-0.05732334,-0.281190962,-0.020317504,-1.428003788,1016.5108
2021.02.12 11:49:39,35.083282,-6.1745157,-41.119705,0.7529076,2.287821,10.9796915,-0.23348017,-0.09881957,-0.015066052,-0.204961121,-0.068465561,-1.522817373,1016.5108
2021.02.12 11:49:39,34.7386,-4.7974424,-41.818115,0.56859845,2.611431,10.494293,0.1268657,-0.17426895,-0.21517938,-0.243546158,-0.054128755,-1.437348485,1016.5115
2021.02.12 11:49:39,34.67807,-6.1329603,-42.069298,1.0399138,1.0911984,10.639912,-0.12520714,-0.058990546,-0.098065875,-0.101718478,-0.097427629,-1.627519608,1016.5116
2021.02.12 11:49:39,34.088585,-5.1896524,-42.194595,0.69079405,-0.26855633,11.833287,0.15255262,0.13159443,-0.3583626,0.022652542,-0.058311012,-1.736366868,1016.5116
2021.02.12 11:49:39,33.880455,-6.3461304,-43.589912,0.6235381,0.31503543,7.9070144,0.05126172,-0.124895535,-0.033831682,-0.039698347,-0.078695998,-1.69705379,1016.5118
2021.02.12 11:49:39,33.289093,-5.978467,-41.908585,1.2557122,-0.36993602,9.295988,-0.18595825,0.082087815,-0.11113506,0.03941663,-0.134268358,-1.761080027,1016.51215
2021.02.12 11:49:39,33.6436,-5.761346,-41.803497,0.46533406,1.0017774,10.0868635,-0.026571522,0.008511607,-0.09096141,-0.098885961,-0.046099998,-1.62038672,1016.5123
2021.02.12 11:49:39,34.51966,-6.506463,-41.666977,0.6862715,1.3129654,8.163272,0.014215583,0.046944074,0.031086743,-0.158921197,-0.083870977,-1.579013824,1016.5123
2021.02.12 11:49:40,34.959534,-6.629757,-42.487053,1.1795316,0.8887038,9.3171425,-0.11292707,0.03149437,0.13958894,-0.094347499,-0.125928104,-1.646689534,1016.5123
2021.02.12 11:49:40,34.766808,-6.436594,-41.63201,1.2117954,1.1010847,9.130679,-0.026278928,0.014523463,0.043505184,-0.11897894,-0.131945819,-1.621709347,1016.51215
2021.02.12 11:49:40,35.086662,-7.268852,-41.63272,0.63166493,2.222375,8.735017,-0.11348653,0.019454882,0.06638686,-0.248513147,-0.072188444,-1.503907442,1016.5118
2021.02.12 11:49:40,34.2855,-7.97888,-41.121284,1.3447366,2.013343,10.528367,-0.11457649,0.01099092,0.21597968,-0.187462077,-0.127037242,-1.597480536,1016.5118
2021.02.12 11:49:40,33.33158,-8.865943,-41.224052,1.27188,1.8295207,10.478156,0.032725036,0.050262954,0.028979342,-0.171625853,-0.120793015,-1.634628296,1016.51215
2021.02.12 11:49:40,33.83957,-7.9822054,-40.113373,0.21202035,2.0043154,11.449,0.02602619,0.10771957,0.08306201,-0.173279285,-0.018516561,-1.601321936,1016.51263
2021.02.12 11:49:40,33.151535,-9.698346,-40.99185,1.4435186,0.47178242,12.449027,0.05294518,0.049238715,0.2974627,-0.037627134,-0.115438797,-1.787848473,1016.51263
2021.02.12 11:49:40,33.507256,-11.157044,-41.035583,1.1264862,-0.4246128,8.706173,0.507436,-0.16963597,-0.121405,0.048330594,-0.128674477,-1.894192576,1016.51263
2021.02.12 11:49:40,33.875504,-11.084275,-40.622536,-0.7899318,0.010958687,7.7676735,0.11284005,0.0617133,0.018046454,-0.001403567,0.101346359,-1.92736733,1016.51263
2021.02.12 11:49:40,34.49311,-11.862277,-40.332558,-0.10927225,1.2047687,10.142451,-0.053801615,0.12262301,0.086340964,-0.118223965,0.010773335,-1.77291441,1016.51263
2021.02.12 11:49:40,33.6649,-11.815986,-40.436172,0.42969084,1.3896437,8.576562,0.21291348,-0.007080549,0.18728402,-0.160434291,-0.050058737,-1.723387241,1016.51263
2021.02.12 11:49:40,33.652412,-12.827939,-38.784126,0.78621095,0.55468273,8.734295,-0.06179957,0.006968227,0.013226717,-0.063166425,-0.089772306,-1.848714352,1016.51263
2021.02.12 11:49:40,33.63163,-13.324466,-38.707726,0.3924707,2.4684408,8.771813,0.001751861,-0.032818154,0.052499063,-0.274051398,-0.044712432,-1.649013281,1016.51263
2021.02.12 11:49:40,33.466972,-12.067315,-39.647186,0.97351223,2.092659,9.171016,-0.16728052,-0.10050217,0.07780002,-0.223128796,-0.105754942,-1.672557354,1016.51215
2021.02.12 11:49:41,34.392143,-12.750899,-40.460648,1.3682374,2.3010561,10.7231245,-0.08485631,-0.07953327,-0.14642084,-0.209732115,-0.126911104,-1.698089242,1016.51215
2021.02.12 11:49:41,33.263634,-11.813716,-39.855865,0.6828169,2.734188,10.33706,0.00478054,-0.1513813,-0.14740369,-0.258044064,-0.065959409,-1.621937037,1016.5123
2021.02.12 11:49:41,32.78678,-11.340674,-39.624344,0.9079902,0.33608425,11.678128,-0.044707354,-0.04534111,-0.051905457,-0.028684486,-0.077595234,-1.850615978,1016.51263
2021.02.12 11:49:41,33.536407,-11.379794,-41.287567,-0.47237194,1.021739,10.009074,0.33541334,0.02416224,-0.3004457,-0.101616561,0.047159374,-1.788419008,1016.51263
2021.02.12 11:49:41,33.084206,-11.176009,-39.10186,0.9429736,0.035083514,8.655299,-0.080486745,-0.0910096,0.25730312,-0.004029548,-0.108519539,-1.859689713,1016.51263
2021.02.12 11:49:41,33.00283,-11.596803,-39.370583,0.9327831,-0.52338225,9.629518,-0.041215956,0.08972471,0.055280734,0.054045964,-0.096565783,-1.924364686,1016.51263
2021.02.12 11:49:41,35.293648,-12.100076,-40.850204,0.2007999,0.96618557,9.52437,0.055382535,0.012524296,0.09793979,-0.101075351,-0.021079626,-1.788403749,1016.51263
2021.02.12 11:49:41,32.57493,-12.709428,-38.599953,-0.33297393,1.6096091,8.432472,-0.021423345,0.14022094,0.36811578,-0.188469872,0.039466605,-1.73111701,1016.51263
2021.02.12 11:49:41,34.382965,-12.743501,-38.04165,0.8774794,1.2053969,9.696918,-0.07877071,0.12042004,0.6116488,-0.123174638,-0.090244755,-1.789498687,1016.51166
2021.02.12 11:49:41,34.556374,-13.391072,-39.594627,1.2416176,1.716691,9.294635,0.066447705,0.047909867,0.615976,-0.181065753,-0.132798135,-1.744464278,1016.5115
2021.02.12 11:49:41,34.699196,-13.933867,-38.495384,1.2694217,1.653593,9.275962,0.029904118,0.08870082,0.59418875,-0.174817353,-0.136005849,-1.767864823,1016.5113
2021.02.12 11:49:41,34.06682,-15.518491,-38.850967,0.7861497,1.8243233,9.979634,0.12279183,0.15927015,0.5951639,-0.18026185,-0.078613058,-1.804288745,1016.51117
2021.02.12 11:49:41,33.7603,-17.647102,-38.295815,0.5856363,1.972669,10.046197,0.018964844,0.07078038,0.83687353,-0.193572462,-0.058228433,-1.85102272,1016.5108
2021.02.12 11:49:41,33.520164,-18.065449,-37.04595,0.80994916,1.2268667,12.327164,-0.124551445,0.100647435,0.9797167,-0.09898676,-0.065610118,-1.955865741,1016.5108
2021.02.12 11:49:41,32.942955,-20.37991,-37.228607,1.4370842,-0.010447013,10.114467,0.28619877,-0.11253089,0.5790996,0.001022608,-0.141137391,-2.065369129,1016.5108
2021.02.12 11:49:41,31.660889,-23.043995,-37.976646,-0.9148924,0.18134563,8.353951,0.23747127,0.041118477,0.51595074,-0.021575399,0.10908141,-2.251732349,1016.5108
2021.02.12 11:49:42,31.746857,-25.587215,-36.445488,-1.9222847,0.9265186,9.689219,-0.08815054,0.13183348,0.72028273,-0.093521953,0.195851028,-2.301706076,1016.5108
2021.02.12 11:49:42,30.491524,-25.78389,-36.978714,-1.0770097,1.988924,10.01881,0.056263592,0.2446306,1.0499835,-0.19487679,0.107087523,-2.157976389,1016.5108
2021.02.12 11:49:42,29.912514,-27.41938,-36.081543,0.30488014,0.57929975,8.983914,0.15313165,0.105426684,1.1479553,-0.064355791,-0.033923209,-2.249706507,1016.5108
2021.02.12 11:49:42,28.377518,-29.38155,-36.18622,0.67996603,0.07056535,8.613198,-0.06878171,0.1445794,1.0405854,-0.008167108,-0.078781269,-2.322457314,1016.51044
2021.02.12 11:49:42,27.453651,-31.966595,-35.66886,0.05999516,1.4601998,9.550855,-0.1088758,0.15935887,0.8419215,-0.15170911,-0.006281571,-2.329451323,1016.5092
2021.02.12 11:49:42,26.153557,-30.888924,-34.34857,0.008110624,2.412957,9.714118,0.01862288,0.016866157,0.9763271,-0.243469238,-8.35E-04,-2.262919426,1016.5092
2021.02.12 11:49:42,24.049751,-33.166573,-35.50966,0.7045215,1.8588778,9.831951,0.061251912,-0.074307874,1.0212691,-0.186392486,-0.07153406,-2.352804661,1016.5088
2021.02.12 11:49:42,22.775948,-33.618076,-34.165688,0.9079152,0.42527592,11.275077,-0.03818972,-0.03411104,0.78253,-0.037578836,-0.080350712,-2.475613356,1016.5083
2021.02.12 11:49:42,21.48539,-34.22828,-34.787643,-0.18872714,1.218566,10.617213,0.23553647,-0.032846075,0.57869345,-0.114254773,0.01777371,-2.533862352,1016.5083
2021.02.12 11:49:42,20.306847,-36.68868,-34.558212,0.66079116,1.2310073,9.241536,0.24214818,0.036368404,0.9064946,-0.132090896,-0.071380831,-2.524482965,1016.5083
2021.02.12 11:49:42,16.815506,-37.77409,-33.388428,1.0819138,0.18332303,9.062283,0.16079272,0.15221168,0.98010415,-0.020083891,-0.118824042,-2.634057522,1016.5082
2021.02.12 11:49:42,15.1610565,-38.834457,-33.864098,0.8571088,0.7854037,10.501965,0.1574684,0.15169816,1.0056009,-0.074400939,-0.081433654,-2.684343338,1016.508
2021.02.12 11:49:42,12.57811,-39.545666,-32.66539,0.9541041,1.2760688,8.134749,0.2574668,0.21029453,0.9997021,-0.154555932,-0.11675404,-2.698084593,1016.508
2021.02.12 11:49:43,11.859207,-39.250584,-32.64818,1.9589955,0.81440574,8.906856,-0.0325952,0.34297574,0.95883447,-0.089065112,-0.216495395,-2.670240164,1016.5078
2021.02.12 11:49:43,11.201309,-38.57403,-31.939146,2.288667,1.5732073,9.893441,-0.003859008,0.20245542,0.7104773,-0.153701946,-0.227332845,-2.648964405,1016.5076
2021.02.12 11:49:43,11.933945,-39.591114,-31.942068,2.0136902,2.3654785,9.235774,0.16468658,0.109548055,0.4593593,-0.245206758,-0.214671955,-2.610676289,1016.5076
2021.02.12 11:49:43,9.504303,-40.176014,-30.582014,1.771768,1.9924029,9.420928,0.06261119,0.11820084,0.38381526,-0.204925612,-0.185895875,-2.721630812,1016.50757
2021.02.12 11:49:43,9.823395,-40.05426,-30.676004,1.5336751,1.870525,10.052542,0.12730196,0.115111396,0.2108902,-0.181912795,-0.15139845,-2.744362593,1016.5074
2021.02.12 11:49:43,9.494225,-40.167572,-30.873247,0.29365006,2.6310985,10.699027,0.123506635,0.28710297,0.05486271,-0.241047159,-0.027439537,-2.826367855,1016.5076
2021.02.12 11:49:43,8.887085,-39.938778,-31.12927,0.7810805,1.6080484,11.425698,-0.05818689,0.21922371,0.42159826,-0.139499918,-0.068255536,-2.839920282,1016.5076
2021.02.12 11:49:43,8.142838,-40.72374,-30.21295,1.5138294,0.5022461,9.218862,0.30617905,0.08011138,0.1072889,-0.053708564,-0.162757471,-2.822470665,1016.5078
2021.02.12 11:49:43,7.9832535,-39.963226,-29.498114,-0.066829294,0.2861384,8.903567,-0.050725568,0.112348855,0.360795,-0.032125536,0.00750576,-2.945110083,1016.5078
2021.02.12 11:49:43,7.773506,-40.108093,-30.354261,-0.12493545,1.111741,10.082768,0.042074814,0.1267792,0.13841048,-0.10980951,0.012390353,-2.941806316,1016.5078
2021.02.12 11:49:43,6.542221,-39.293774,-30.111444,0.13096891,1.820583,8.914871,0.12600526,0.15059857,0.26753828,-0.20142749,-0.014690003,-2.929891825,1016.5078
2021.02.12 11:49:43,7.6656647,-40.73257,-29.20096,0.942111,0.90637255,8.376897,0.005882734,0.027153473,0.3614486,-0.107109733,-0.111994788,-2.859102011,1016.50757
2021.02.12 11:49:43,7.855629,-39.775696,-29.81864,0.80414844,1.1020743,8.995471,-0.098822646,3.07E-04,0.13864759,-0.121427387,-0.08915782,-2.858100176,1016.5074
2021.02.12 11:49:43,7.2212753,-39.08895,-29.814249,0.22022414,2.7573853,9.2344675,-0.019674964,-0.004625696,0.050296184,-0.290091306,-0.02384354,-2.874487162,1016.50714
2021.02.12 11:49:43,7.0424957,-39.816494,-30.02212,1.2328461,2.0587542,10.5155,-0.09869694,-0.058769163,-0.022546634,-0.192054316,-0.116708063,-2.838537693,1016.50696
2021.02.12 11:49:44,5.7790146,-39.25972,-29.172083,0.5785393,3.1500883,10.325076,0.10383106,-0.12395709,-0.22816427,-0.295683742,-0.055973921,-2.89302659,1016.50696
2021.02.12 11:49:44,7.122177,-38.986477,-30.426844,0.79945546,1.7034181,10.829803,-0.069705546,-0.037887517,-0.048028402,-0.155595094,-0.073686287,-2.872625589,1016.50696
2021.02.12 11:49:44,7.615799,-38.242485,-29.636389,1.2873033,0.25169587,12.178672,0.15320864,-0.037344024,-0.2501079,-0.020549549,-0.10531041,-2.864937305,1016.50696
2021.02.12 11:49:44,8.099487,-38.18231,-29.220037,0.8072334,0.41217187,7.5589485,0.20978144,-0.26824474,-0.12431717,-0.054166343,-0.106388539,-2.845716238,1016.50714
2021.02.12 11:49:44,6.6443253,-38.654533,-29.800917,1.1665608,-0.21090782,8.705518,-0.18559042,0.054235164,-0.16147453,0.024007667,-0.133208901,-2.879681826,1016.50714
2021.02.12 11:49:44,6.801956,-39.391216,-27.979956,0.51414937,1.1057241,10.156198,-0.12629388,0.027882615,-0.104745075,-0.108307123,-0.050581019,-2.91848731,1016.50714
2021.02.12 11:49:44,7.1663666,-39.15177,-29.16834,0.42215896,1.7492777,8.534743,0.1498917,0.011480667,0.009741543,-0.201919645,-0.049423296,-2.883589268,1016.50714
2021.02.12 11:49:44,8.232559,-38.14274,-29.843534,1.0748677,1.3274604,8.471911,-0.13692813,0.09894651,0.16366896,-0.154209375,-0.12620002,-2.797773838,1016.50714
2021.02.12 11:49:44,6.887825,-37.492527,-29.638102,1.471449,1.7759825,9.456731,-0.12264967,0.08665401,0.088334754,-0.183480889,-0.154360279,-2.797545433,1016.50696
2021.02.12 11:49:44,8.045158,-37.419308,-28.732847,1.2410396,2.3402548,9.2260275,-0.033512365,0.046179306,0.041621454,-0.246289954,-0.133712441,-2.762242794,1016.5069
2021.02.12 11:49:44,7.7117615,-38.031567,-29.938272,1.3267323,1.873303,9.782245,-0.10329974,-0.015919184,0.052616794,-0.187533185,-0.134804025,-2.792292833,1016.5064
2021.02.12 11:49:44,8.161606,-38.979702,-31.025568,0.42341647,2.06517,10.224408,-0.021549648,0.054170452,-0.024697829,-0.19913663,-0.041388672,-2.855991364,1016.50653
2021.02.12 11:49:44,7.484932,-38.044384,-30.562883,-0.33074287,2.4548738,11.401904,-0.037592888,0.16587028,0.11364223,-0.211980045,0.028999556,-2.930099726,1016.50653
2021.02.12 11:49:44,7.252968,-36.861702,-29.942438,1.428187,0.62434965,12.28054,-0.19353826,0.07305898,0.39188132,-0.050457347,-0.115776666,-2.848677874,1016.50653
2021.02.12 11:49:44,7.0185013,-37.32554,-30.633688,1.1738579,0.3285999,9.128208,0.5132482,-0.088316336,-0.10834571,-0.035689123,-0.127894834,-2.850299835,1016.5069
2021.02.12 11:49:45,7.323555,-37.63716,-30.009813,-0.2723607,0.17253225,7.750563,0.013216008,-0.059873447,0.24824299,-0.022243207,0.035126314,-2.973655939,1016.5069
2021.02.12 11:49:45,6.051468,-37.683506,-29.575567,0.40545556,0.8044553,9.689883,-0.042943846,0.067442626,0.058300532,-0.082758084,-0.04181879,-2.9371984,1016.5069
2021.02.12 11:49:45,6.98217,-37.79795,-30.197493,0.46510145,1.3083986,8.791785,0.034778032,0.015357504,0.04540337,-0.147532985,-0.052852552,-2.887638807,1016.5069
2021.02.12 11:49:45,6.689827,-36.513493,-29.67204,0.546951,1.1017064,8.728325,-0.11902196,0.004954635,0.08334239,-0.125314757,-0.062582083,-2.885438442,1016.50653
2021.02.12 11:49:45,7.176491,-36.724014,-28.024042,0.47836912,1.5252894,9.254165,-0.12678327,0.007308121,-0.02116324,-0.163139299,-0.051646337,-2.876682758,1016.5058
2021.02.12 11:49:45,4.477165,-36.98841,-30.197199,0.2431432,2.5568826,9.962236,-0.07008315,-0.040047992,0.028284173,-0.251162976,-0.024401642,-2.959771395,1016.5058
2021.02.12 11:49:45,5.188217,-37.46132,-29.998678,0.76318216,2.384134,8.989777,-0.06573535,-0.13847831,0.14080209,-0.258349031,-0.084691383,-2.879181385,1016.5058
2021.02.12 11:49:45,4.1023636,-38.216858,-29.545237,1.5746226,1.7096285,10.217949,-0.08611699,-0.14177987,-0.0803995,-0.163881138,-0.1529008,-2.888265133,1016.5057
2021.02.12 11:49:45,5.979164,-36.443634,-29.854292,0.91436666,2.3877213,10.215682,-0.13356963,-0.12188133,-0.18870363,-0.228726372,-0.089268297,-2.851569653,1016.5057
2021.02.12 11:49:45,6.077217,-36.860085,-30.253687,1.110964,0.8053255,12.051215,-0.16532269,-0.026054941,-0.14389859,-0.066445142,-0.091927059,-2.89324069,1016.5057
2021.02.12 11:49:45,6.1026,-37.198254,-30.352377,0.98303944,0.28206816,8.00838,0.041625544,-0.026248163,-0.026646335,-0.034945,-0.122140333,-2.878010988,1016.506
2021.02.12 11:49:45,6.6079865,-36.362988,-29.534735,1.3227528,-0.28396192,8.670503,-0.11323768,0.03323713,0.033894714,0.03236445,-0.151390523,-2.854828835,1016.506
2021.02.12 11:49:45,6.4350357,-36.39762,-31.048582,1.5343474,0.32896572,10.678233,-0.105928876,0.023978539,-0.049048793,-0.030484496,-0.142712429,-2.846414328,1016.506
2021.02.12 11:49:46,6.546768,-35.634865,-29.59276,0.7831829,1.6381735,8.214692,0.15265645,0.016900057,-0.15130785,-0.195971861,-0.095051989,-2.833812952,1016.506
2021.02.12 11:49:46,6.6577606,-35.005146,-29.690027,1.0472492,1.3298585,9.040544,-0.08289998,0.075596906,0.03920832,-0.145095408,-0.115325175,-2.823723793,1016.506
2021.02.12 11:49:46,7.3304596,-33.443615,-30.387411,1.5111643,1.5845705,9.611606,-0.035036296,0.007461061,0.048905678,-0.161442176,-0.155946285,-2.742551088,1016.506
2021.02.12 11:49:46,7.0465775,-34.935966,-29.498518,1.427255,1.7958666,8.890463,0.001407096,-0.028782168,0.041948102,-0.19686231,-0.159179553,-2.75749445,1016.506
2021.02.12 11:49:46,6.9103775,-34.744503,-29.88878,1.3362325,1.6565652,10.259667,5.21E-04,0.07950701,-0.006375847,-0.158764049,-0.129512295,-2.796095848,1016.506
2021.02.12 11:49:46,6.6512604,-35.152752,-29.949476,0.57735,2.5260541,10.737465,0.09441087,0.10816469,0.040536825,-0.230733082,-0.053717948,-2.849780083,1016.5064
2021.02.12 11:49:46,6.3922806,-34.411873,-28.860468,-0.25925806,2.2628515,11.614751,0.048159953,0.19363637,0.37300992,-0.192368567,0.022317743,-2.940796137,1016.5064
2021.02.12 11:49:46,6.9669876,-35.550915,-29.415045,2.4306593,-0.26851615,12.002292,0.24305265,-0.079710394,0.3214659,0.021923436,-0.199813873,-2.804512501,1016.5069
2021.02.12 11:49:46,6.1112213,-37.50907,-28.414198,0.55115384,-0.053877313,7.0999503,0.4947229,-0.07298435,-0.090367064,0.007565502,-0.077472478,-2.925196886,1016.50745
2021.02.12 11:49:46,6.1349564,-35.36514,-28.94951,-0.17709191,0.42960498,8.316151,-0.148387,0.035001416,0.175091,-0.051601555,0.021291722,-2.979875088,1016.50806
2021.02.12 11:49:46,5.4982834,-36.018143,-28.842878,0.6215785,1.3622309,9.935826,0.020715402,0.088566296,0.05019253,-0.135990873,-0.062477894,-2.91648984,1016.50806
2021.02.12 11:49:46,5.1567307,-34.618732,-29.125826,0.5435503,1.4236526,9.003236,-0.011134142,0.056112144,0.09539099,-0.156547859,-0.060299583,-2.913319349,1016.50916
2021.02.12 11:49:46,5.6710663,-34.937634,-28.035898,0.8068575,1.3229076,8.913487,-0.034324303,-0.006531549,0.08080092,-0.146749452,-0.09027493,-2.880143166,1016.5087
2021.02.12 11:49:46,6.144058,-35.403797,-29.144709,0.6772874,1.8121687,8.686436,-0.11019147,0.006724864,0.034482088,-0.205065593,-0.07781326,-2.85848093,1016.50806
2021.02.12 11:49:46,6.67894,-34.414764,-28.862448,0.9097188,2.354443,8.93833,-0.19677447,-0.091435224,0.040361412,-0.25629288,-0.101428017,-2.791274071,1016.50745
2021.02.12 11:49:47,5.482605,-35.330387,-29.039835,1.4514923,2.3998473,10.503312,-0.22757573,-0.06996087,-0.033714056,-0.222583637,-0.13732399,-2.82042861,1016.50745
2021.02.12 11:49:47,6.156372,-34.130196,-29.34366,1.1187006,2.7899387,10.368865,0.07905084,-0.16743097,-0.22290298,-0.261395544,-0.10747464,-2.794248104,1016.50806
2021.02.12 11:49:47,5.4043503,-32.922115,-28.887014,1.423258,-0.30629846,12.147944,-0.08259762,-0.06484863,-0.07879725,0.025037492,-0.116628692,-2.887521744,1016.50806
2021.02.12 11:49:47,6.6051636,-34.130962,-28.76393,-0.14111064,1.17534,7.879154,0.1198743,0.053778164,-0.29221246,-0.148055539,0.01790745,-2.938027382,1016.5087
2021.02.12 11:49:47,5.6943054,-33.669136,-28.40484,1.9102105,-0.63162273,8.575439,0.30139986,-0.10832832,-0.18607873,0.071769334,-0.219175309,-2.822209835,1016.50916
2021.02.12 11:49:47,6.7035904,-34.38366,-28.57828,1.0942278,0.4328262,10.214572,-0.2153981,-0.03286868,0.03793427,-0.042107448,-0.106717221,-2.856968403,1016.50916
2021.02.12 11:49:47,7.1244583,-33.345894,-28.635527,0.48835954,1.9257469,8.717193,-0.13859108,0.044466782,-0.22947975,-0.217091829,-0.055964071,-2.823763132,1016.50916
2021.02.12 11:49:47,7.4229126,-32.78868,-29.112402,0.9242862,1.278073,8.571807,-0.13267377,0.039660376,0.08068199,-0.147170767,-0.107413612,-2.786349297,1016.50916
2021.02.12 11:49:47,7.52137,-32.81325,-28.889837,1.2707444,1.764924,9.591931,-0.099015824,-0.018805694,0.105369784,-0.180423558,-0.131713554,-2.75093627,1016.50916
2021.02.12 11:49:47,6.8474426,-33.444412,-29.783476,1.5126516,2.0016773,9.204548,-0.004271677,-0.032563236,0.12584418,-0.211382076,-0.162881523,-2.73307395,1016.5087
2021.02.12 11:49:47,5.645012,-33.808968,-30.396238,1.7251506,1.3552179,9.642925,-0.055436686,-0.007606875,0.051522575,-0.137471035,-0.177030399,-2.787653446,1016.5084
2021.02.12 11:49:47,7.839073,-32.295666,-30.841246,1.2274796,1.8896512,9.894618,-0.048397463,0.018285248,0.007505966,-0.187303334,-0.123424701,-2.725699425,1016.50824
2021.02.12 11:49:47,6.841942,-32.3337,-31.292692,0.8265814,2.1556494,11.63857,-0.06468547,0.1701756,0.04017984,-0.18269065,-0.070901826,-2.80944109,1016.5084
2021.02.12 11:49:47,7.349777,-31.90863,-29.500837,1.2902232,0.8005378,11.697697,0.05033038,0.032998297,0.23040691,-0.067918368,-0.109853171,-2.802690268,1016.50916
2021.02.12 11:49:48,7.248123,-31.708961,-30.014608,0.92158705,-0.03843123,8.67907,0.279757,-0.15320976,0.026261773,0.004403253,-0.105788581,-2.826509953,1016.50916
2021.02.12 11:49:48,5.372795,-31.896667,-30.325502,-0.532183,0.31016538,9.1942215,0.05209914,0.07822114,0.08085133,-0.03366572,0.05781782,-3.02505517,1016.5094
2021.02.12 11:49:48,5.870926,-31.86385,-30.358736,0.6591151,1.3301454,9.842346,0.001959435,0.07845234,0.17537664,-0.134034678,-0.066867433,-2.863106489,1016.5094
2021.02.12 11:49:48,6.7273407,-33.263863,-30.278482,1.2050568,0.7609393,8.908149,0.14979176,0.03772426,0.080777,-0.084448256,-0.13445957,-2.805384874,1016.50946
2021.02.12 11:49:48,6.0512924,-32.18596,-30.357782,0.4892603,1.2001196,8.521977,-0.015595136,-0.03498202,0.10432783,-0.139679372,-0.057348635,-2.867745638,1016.50946
2021.02.12 11:49:48,6.0851746,-31.942142,-30.598284,0.6520002,1.8661987,8.945801,-0.09585765,-0.052795064,0.1605703,-0.205133244,-0.072754741,-2.823023558,1016.50946
2021.02.12 11:49:48,5.6246643,-33.299328,-30.28118,1.3633631,2.3174338,8.973111,-0.09341624,-0.103350796,0.14874013,-0.24999243,-0.150785476,-2.758241415,1016.50946
2021.02.12 11:49:48,4.7861404,-32.54381,-30.898973,1.9432095,1.814103,10.215768,-0.15874402,-0.12495654,-0.029853854,-0.172712684,-0.187971085,-2.771439075,1016.5094
2021.02.12 11:49:48,6.2685623,-32.3261,-31.806013,1.3101326,2.6082466,10.717309,0.06363631,-0.06817505,-0.31102088,-0.237028345,-0.121641017,-2.746678591,1016.50946
2021.02.12 11:49:48,4.891159,-31.135986,-31.115034,1.3933305,0.90000397,11.961881,-0.015721502,0.030367063,-0.1267509,-0.074595392,-0.11595834,-2.855824471,1016.5098
2021.02.12 11:49:48,4.928215,-31.96597,-30.699228,1.3059198,-0.010537028,9.467993,0.27192312,-0.08335568,-0.4540686,0.001102472,-0.137065113,-2.865197182,1016.5098
2021.02.12 11:49:48,6.497856,-32.01934,-31.248175,0.6523402,0.8430509,7.9542446,-0.05129384,0.088717364,-0.24270917,-0.105242625,-0.081828453,-2.836020708,1016.5094
2021.02.12 11:49:48,7.8250046,-31.384811,-30.819616,1.4582227,0.008741384,9.46985,-0.23067845,0.03929279,-0.06391835,-9.12E-04,-0.152785778,-2.764358759,1016.5094
2021.02.12 11:49:48,6.8222656,-30.402088,-32.413322,1.6209388,0.9018231,10.366452,-0.07191813,-0.013222991,-0.17128944,-0.085739285,-0.155107915,-2.739675522,1016.50916
2021.02.12 11:49:48,6.6443634,-31.524872,-32.802467,1.0502567,0.79771477,9.417956,-0.19155744,0.09095481,-0.116185755,-0.083981663,-0.111057565,-2.799362183,1016.5087
2021.02.12 11:49:49,7.945587,-30.989605,-33.022774,0.9537328,1.9956509,9.425876,-0.06683892,0.018724421,-0.07611786,-0.207609817,-0.100839213,-2.69938159,1016.50824
2021.02.12 11:49:49,8.047607,-30.551502,-32.386208,1.5991157,1.8182517,9.066607,-0.124770656,-0.00383457,0.07576187,-0.194986209,-0.174578726,-2.628741264,1016.50824
2021.02.12 11:49:49,6.9504776,-30.923454,-32.685707,1.4048206,1.6137486,10.244195,0.010065747,-0.002986381,-0.005521757,-0.15481855,-0.136283264,-2.726557016,1016.50824
2021.02.12 11:49:49,6.651947,-31.109821,-33.32702,0.80054766,2.2247946,10.403035,0.014207426,0.112564564,0.009797342,-0.2100835,-0.076801911,-2.770312071,1016.50824
2021.02.12 11:49:49,8.233192,-29.9166,-33.23091,0.23400201,2.063299,11.986756,-0.050495695,0.25717312,0.2761059,-0.17042926,-0.019519232,-2.785506487,1016.5084
2021.02.12 11:49:49,7.8931503,-30.280285,-33.37667,2.4002264,0.36019537,12.074313,0.2786714,-0.0817161,0.22770157,-0.029250689,-0.196229726,-2.689683914,1016.5084
2021.02.12 11:49:49,7.2704086,-30.965282,-32.78676,0.5045487,0.03571586,7.074192,0.51076907,-0.09859143,-0.028891273,-0.00503592,-0.071201883,-2.839932203,1016.5084
2021.02.12 11:49:49,7.450943,-30.435795,-33.938217,-0.24454159,0.12936294,8.889804,-0.15214157,0.06056082,0.21019006,-0.014545304,0.02750116,-2.927307367,1016.50757
2021.02.12 11:49:49,7.7194214,-32.802456,-33.634842,0.63470346,1.6561576,10.469876,0.092653155,0.07576666,0.030210774,-0.156600431,-0.060547765,-2.798153162,1016.50757
2021.02.12 11:49:49,7.0727615,-32.053402,-33.237755,0.8906608,1.299158,7.809271,0.12675786,-0.012893338,0.071357,-0.163808361,-0.113561034,-2.753077745,1016.50757
2021.02.12 11:49:49,6.4511414,-32.006657,-33.374405,0.7589547,1.0857064,9.008418,-0.1323143,0.010999347,0.065146446,-0.119523413,-0.084051013,-2.821853161,1016.50757
2021.02.12 11:49:49,6.339615,-31.970955,-33.91626,0.7747584,2.0228791,8.98336,-0.057913616,-0.07405482,0.016191974,-0.220693648,-0.086030848,-2.773279905,1016.5073
2021.02.12 11:49:49,5.933853,-31.854431,-34.031113,1.014937,2.4050672,8.88242,-0.14365153,-0.094530255,0.027100272,-0.262795061,-0.11377015,-2.72663784,1016.5073
2021.02.12 11:49:49,6.481514,-30.915802,-35.057762,1.4600815,2.2509506,10.405999,-0.22007708,-0.11199713,-0.06730063,-0.211025164,-0.139401451,-2.687786579,1016.5073
2021.02.12 11:49:50,6.968567,-32.133324,-34.87317,1.0671345,2.8175094,10.594825,0.06978021,-0.12915018,-0.23935437,-0.258666217,-0.100383691,-2.70532918,1016.5073
2021.02.12 11:49:50,7.539772,-32.306244,-34.81289,1.1840211,1.2108706,11.416747,-0.06674297,0.048187863,-0.11340844,-0.105106331,-0.103339709,-2.771384478,1016.50757
2021.02.12 11:49:50,8.381981,-32.82128,-34.887604,0.61414057,0.42718863,11.822749,0.31408355,0.14440909,-0.42801684,-0.036068466,-0.051899016,-2.829547167,1016.50757
2021.02.12 11:49:50,7.2189484,-32.40317,-35.48307,0.27571154,0.68200594,7.5620995,0.18240948,-0.040496405,0.016228661,-0.089884646,-0.036443513,-2.857301474,1016.50824
2021.02.12 11:49:50,8.266075,-33.02649,-35.680984,1.6961293,-0.734674,9.30646,-0.21359836,-0.035275307,0.08085075,0.077507488,-0.180274278,-2.753407478,1016.50757
2021.02.12 11:49:50,8.362747,-32.84038,-34.904152,0.97269726,0.9456358,10.225763,-0.04791945,-4.48E-04,-0.14947751,-0.091801494,-0.094836868,-2.767082453,1016.50757
2021.02.12 11:49:50,6.932373,-32.62186,-36.363953,0.40288273,1.8410662,7.619798,0.06977487,0.058901943,0.019680701,-0.23675409,-0.052823961,-2.778591633,1016.50757
2021.02.12 11:49:50,8.040649,-32.475452,-36.48427,1.2143506,1.0861105,8.897498,-0.11929805,0.1663263,0.13919346,-0.120363288,-0.135644168,-2.710263491,1016.5073
2021.02.12 11:49:50,8.708481,-31.86021,-37.370094,1.1065208,2.2389922,9.483304,-0.105356656,0.13787766,0.13118602,-0.230345085,-0.116155699,-2.623547077,1016.5073
2021.02.12 11:49:50,7.3668823,-32.16177,-35.533493,1.5530195,2.225143,9.813899,0.03656466,0.09211607,0.16356951,-0.220312059,-0.156945512,-2.650066614,1016.5073
2021.02.12 11:49:50,7.928261,-32.422947,-36.500175,1.3499504,1.3907796,10.040318,0.113047265,0.016593894,0.110859215,-0.136431322,-0.13365145,-2.706161022,1016.5073
2021.02.12 11:49:50,8.98513,-32.64352,-35.737396,0.5630227,2.2681549,9.49613,-0.025938734,0.13480899,0.027337935,-0.234061614,-0.059220374,-2.702535152,1016.5073
2021.02.12 11:49:50,7.6799927,-32.5392,-37.2041,0.5110514,2.0901437,12.548427,-0.21670976,0.26057878,0.30493623,-0.164916679,-0.040703841,-2.802479029,1016.5073
2021.02.12 11:49:50,8.081245,-32.8452,-35.686333,2.8413866,-0.13775568,11.51266,0.33434045,-0.09764086,-0.06598263,0.011616478,-0.24196972,-2.683127403,1016.5073
2021.02.12 11:49:50,8.284447,-35.16623,-36.527092,-0.7401548,0.9986393,9.397732,-0.18246691,0.044735674,0.09760574,-0.105542175,0.078596629,-2.9697721,1016.50714
2021.02.12 11:49:51,8.480263,-35.08996,-36.712624,0.26662883,1.6939607,9.391596,0.16636422,0.100039385,0.031461887,-0.178380772,-0.028382529,-2.814594269,1016.50714
2021.02.12 11:49:51,8.679039,-35.637974,-36.508423,0.64238137,0.8630233,7.7521076,-0.034569696,-0.018364621,0.119516924,-0.110495396,-0.082676493,-2.78682375,1016.50714
2021.02.12 11:49:51,9.033691,-35.1136,-36.809998,0.39377868,0.9446633,9.200318,-0.24249062,-0.039334316,0.012303907,-0.102225736,-0.042774443,-2.814262629,1016.50714
2021.02.12 11:49:51,8.306168,-34.373497,-37.267654,0.30471185,2.3369844,9.378761,-0.2036061,-0.1145758,-0.00585294,-0.244081467,-0.032478139,-2.770133972,1016.50684
2021.02.12 11:49:51,8.201546,-34.491882,-36.717438,0.4927887,2.587776,9.202807,-0.10778151,-0.12641566,0.05810359,-0.273742914,-0.053496558,-2.732435226,1016.5067
2021.02.12 11:49:51,7.394272,-34.260517,-38.07447,1.206214,1.9238,10.457471,-0.13715531,-0.19780907,-0.012524176,-0.180757761,-0.114837222,-2.733165979,1016.5067
2021.02.12 11:49:51,7.8315506,-34.248817,-37.60926,0.9362104,2.6450903,10.409312,-0.02330341,-0.26659113,-0.17386621,-0.247881502,-0.089698352,-2.708935738,1016.5067
2021.02.12 11:49:51,7.5570602,-33.90134,-38.194237,0.78545976,1.5103201,11.368117,-0.02870313,-0.07374415,-0.17199786,-0.131771773,-0.068983577,-2.800652742,1016.50684
2021.02.12 11:49:51,7.426239,-33.179966,-38.778816,0.5237121,0.21149717,11.306617,0.22419901,0.023187088,-0.28568804,-0.018683404,-0.046285994,-2.865026712,1016.5069
